time,seconds_elapsed,z,y,x
1738005701437087000,0.0280869140625,-0.05281973257660866,-0.053770869970321655,0.028983529657125473
1738005701447156200,0.03815625,-0.06023690477013588,-0.03913040831685066,0.023038288578391075
1738005701457225000,0.048224853515625,-0.069550059735775,-0.021330831572413445,0.0009398264810442924
1738005701467294200,0.058294189453125,-0.07604258507490158,-0.009735961444675922,-0.02943352609872818
1738005701477362200,0.068362060546875,-0.07934950292110443,-0.013568896800279617,-0.052833110094070435
1738005701487431200,0.07843115234375,-0.07872206717729568,-0.027205878868699074,-0.07133781909942627
1738005701497500200,0.088500244140625,-0.07000213861465454,-0.03874772787094116,-0.08126481622457504
1738005701507568000,0.098568115234375,-0.05700165033340454,-0.0428101122379303,-0.09032249450683594
1738005701517637400,0.108637451171875,-0.04946405068039894,-0.029208924621343613,-0.07678301632404327
1738005701527706000,0.1187060546875,-0.03802923858165741,-0.017855867743492126,-0.05625803396105766
1738005701537775000,0.128775146484375,-0.022660844027996063,-0.010488530620932579,-0.033682681620121
1738005701547843300,0.13884326171875,-0.01484846230596304,-0.023225096985697746,-0.019625985994935036
1738005701557911300,0.148911376953125,-0.005875168368220329,-0.026921886950731277,-0.014347117394208908
1738005701567980300,0.158980224609375,-0.004724682774394751,-0.024559663608670235,-0.02038237266242504
1738005701578049500,0.169049560546875,-0.008401792496442795,-0.018195169046521187,-0.029821764677762985
1738005701588117200,0.1791171875,-0.003556970041245222,-0.021780848503112793,-0.03618139401078224
1738005701598186500,0.1891865234375,0.0006403820589184761,-0.020689647644758224,-0.037986185401678085
1738005701608255500,0.19925537109375,-0.0022390277590602636,-0.015346014872193336,-0.0499323271214962
1738005701618324200,0.20932421875,0.0004688701592385769,-0.006087042856961489,-0.05491155385971069
1738005701628392400,0.219392333984375,0.005463362205773592,-0.005585303530097008,-0.04591113328933716
1738005701638461400,0.22946142578125,0.013125486671924591,-0.014795476570725441,-0.026923563331365585
1738005701648530400,0.239530517578125,0.015171326696872711,-0.00681717786937952,-0.005625197663903236
1738005701658599400,0.249599365234375,0.022405430674552917,0.005069390870630741,0.004286805167794228
1738005701668667400,0.25966748046875,0.0166386216878891,0.012302003800868988,-0.003439825028181076
1738005701678736400,0.269736328125,0.01700814813375473,-0.0031753608491271734,-0.020372234284877777
1738005701688805400,0.279805419921875,0.005177588202059269,-0.021871019154787064,-0.036016177386045456
1738005701698873300,0.289873291015625,-0.0076543353497982025,-0.03235197439789772,-0.047626327723264694
1738005701708942300,0.2999423828125,-0.015391884371638298,-0.03710997477173805,-0.04622683674097061
1738005701719011300,0.31001123046875,-0.024887453764677048,-0.026383671909570694,-0.04491760954260826
1738005701729080300,0.320080322265625,-0.028543706983327866,-0.024628914892673492,-0.039329495280981064
1738005701739148300,0.330148193359375,-0.0286252424120903,-0.02896878495812416,-0.03838234767317772
1738005701749217500,0.340217529296875,-0.026134923100471497,-0.030760295689105988,-0.03358625993132591
1738005701759286500,0.35028662109375,-0.019788259640336037,-0.025613008067011833,-0.027930153533816338
1738005701769355300,0.360355224609375,-0.017798611894249916,-0.022423073649406433,-0.007604377344250679
1738005701779423500,0.370423583984375,-0.018158352002501488,-0.028588132932782173,0.010968740098178387
1738005701789492500,0.380492431640625,-0.02959423139691353,-0.03975237160921097,0.006516201421618462
1738005701799561500,0.3905615234375,-0.036737702786922455,-0.04440826177597046,-0.006098292768001556
1738005701809630500,0.40063037109375,-0.03684289753437042,-0.052322641015052795,-0.009641094133257866
1738005701819698400,0.410698486328125,-0.03497574105858803,-0.029222434386610985,-0.01678048074245453
1738005701829767400,0.420767333984375,-0.029062457382678986,-0.0026731148827821016,-0.021616514772176743
1738005701839836400,0.43083642578125,-0.024794477969408035,0.020005833357572556,-0.018643096089363098
1738005701849905400,0.440905517578125,-0.026062406599521637,0.0280376598238945,-0.009716981090605259
1738005701859973400,0.450973388671875,-0.031672097742557526,0.01775568164885044,-0.0007716082036495209
1738005701870042400,0.46104248046875,-0.035702262073755264,-0.013956176117062569,0.008393128402531147
1738005701880111400,0.471111328125,-0.04319320619106293,-0.058348577469587326,0.00014788657426834106
1738005701890179300,0.481179443359375,-0.05450578033924103,-0.08172980695962906,-0.007764099165797234
1738005701900248300,0.491248291015625,-0.058097340166568756,-0.0878254622220993,-0.02655458077788353
1738005701910317300,0.5013173828125,-0.057538874447345734,-0.07567238807678223,-0.034286003559827805
1738005701920386300,0.51138623046875,-0.043634574860334396,-0.05475084111094475,-0.03972744196653366
1738005701930454500,0.52145458984375,-0.03674071654677391,-0.02498468942940235,-0.030857518315315247
1738005701940523300,0.531523193359375,-0.026510532945394516,0.0021292916499078274,-0.02452274039387703
1738005701950592500,0.541592529296875,-0.013766775839030743,0.0007516383193433285,-0.00987881701439619
1738005701960661500,0.55166162109375,-0.008987017907202244,0.0003551654517650604,0.004864091984927654
1738005701970729500,0.5617294921875,-0.0009256293997168541,-0.0036720666103065014,0.02129845879971981
1738005701980798500,0.571798583984375,-0.006110697519034147,-0.02133103460073471,0.023056695237755775
1738005701990867500,0.581867431640625,-0.01191825233399868,-0.049936313182115555,0.02109447866678238
1738005702000936400,0.5919365234375,-0.01456436887383461,-0.06165235862135887,0.022152818739414215
1738005702011004400,0.60200439453125,-0.0154072605073452,-0.05979134142398834,0.03174738958477974
1738005702021073400,0.612073486328125,-0.012962029315531254,-0.035076867789030075,0.042951226234436035
1738005702031142400,0.622142333984375,-0.011750290170311928,-0.007454028818756342,0.05277722328901291
1738005702041211400,0.63221142578125,-0.012945442460477352,0.008856916800141335,0.05249056592583656
1738005702051279400,0.642279296875,-0.005431600380688906,0.01400027982890606,0.056413937360048294
1738005702061348400,0.652348388671875,-0.003839116310700774,0.011357031762599945,0.0561944954097271
1738005702071417300,0.662417236328125,-0.004434332717210054,0.004379017744213343,0.043421175330877304
1738005702081485600,0.672485595703125,-0.004361689556390047,0.002976394724100828,0.028713718056678772
1738005702091554300,0.68255419921875,-0.004344645421952009,-0.015000741928815842,0.011797584593296051
1738005702101623300,0.692623291015625,-0.0021976048592478037,-0.037654388695955276,-0.007945493794977665
1738005702111692500,0.702692626953125,-0.0005312650464475155,-0.04117482155561447,-0.018086545169353485
1738005702121760300,0.71276025390625,0.00485020549967885,-0.03846373036503792,-0.01611027866601944
1738005702131829500,0.72282958984375,0.009538967162370682,-0.025584951043128967,-0.00702517107129097
1738005702141898500,0.7328984375,0.012413417920470238,-0.016898104920983315,0.006804724223911762
1738005702151967200,0.74296728515625,0.012654168531298637,-0.019872324541211128,0.022991416975855827
1738005702162035500,0.753035400390625,0.015128184109926224,-0.02688968926668167,0.04231250286102295
1738005702172104400,0.7631044921875,0.017839547246694565,-0.03879695013165474,0.05722486972808838
1738005702182173400,0.77317333984375,0.01407584547996521,-0.047059010714292526,0.0555875264108181
1738005702192242400,0.783242431640625,0.011504830792546272,-0.040906842797994614,0.035343240946531296
1738005702202310400,0.793310302734375,0.009002171456813812,-0.03687211871147156,-0.0014049196615815163
1738005702212379400,0.80337939453125,0.001456103753298521,-0.024350736290216446,-0.03329813852906227
1738005702222448400,0.813448486328125,-0.004590542986989021,-0.02532045543193817,-0.05030520260334015
1738005702232517400,0.823517333984375,-0.007929880172014236,-0.030230261385440826,-0.04334582760930061
1738005702242585300,0.83358544921875,-0.008632129058241844,-0.0314192958176136,-0.03102601133286953
1738005702252654300,0.843654296875,-0.008880069479346275,-0.02743414044380188,-0.018564550206065178
1738005702262723300,0.853723388671875,-0.01136813871562481,-0.01796943135559559,-0.011594939976930618
1738005702272792300,0.863792236328125,-0.011845377273857594,-0.031903889030218124,-0.0024421866983175278
1738005702282860500,0.873860595703125,-0.006418366450816393,-0.035230718553066254,-0.004057195037603378
1738005702292929500,0.883929443359375,-0.007116381078958511,-0.026692889630794525,-0.016735438257455826
1738005702302998300,0.893998291015625,-0.006341420579701662,-0.01627242937684059,-0.035069722682237625
1738005702313067500,0.904067626953125,-0.008580872789025307,-0.0032503698021173477,-0.050303272902965546
1738005702323135500,0.914135498046875,-0.005132512655109167,0.004568248521536589,-0.06531159579753876
1738005702333204500,0.92420458984375,-0.0009316424839198589,0.0072074406780302525,-0.046718474477529526
1738005702343273500,0.9342734375,0.0021751425229012966,0.030755212530493736,-0.018639136105775833
1738005702353342200,0.94434228515625,-0.004774642642587423,0.051324136555194855,-0.012935441918671131
1738005702363410400,0.954410400390625,-0.006560133770108223,0.031146740540862083,-0.01014784350991249
1738005702373479400,0.9644794921875,-0.011747971177101135,0.016287367790937424,-0.010923890396952629
1738005702383548400,0.97454833984375,-0.02161065675318241,-0.004460813011974096,-0.018690399825572968
1738005702393617400,0.984617431640625,-0.026634976267814636,-0.009969561360776424,-0.03645474836230278
1738005702403685400,0.994685302734375,-0.022590719163417816,-0.005727100186049938,-0.039648428559303284
1738005702413754400,1.00475439453125,-0.006002953741699457,0.032708439975976944,-0.02578853815793991
1738005702423823400,1.0148232421875,0.005707455798983574,0.0776037648320198,-0.011147412471473217
1738005702433892600,1.024892578125,0.011369602754712105,0.11453621089458466,0.0021191248670220375
1738005702443960300,1.034960205078125,0.009446350857615471,0.10785746574401855,-0.0008827075362205505
1738005702454029300,1.045029296875,0.00451843673363328,0.05750800296664238,-0.01917809247970581
1738005702464098600,1.0550986328125,-0.006222850177437067,-0.006223090924322605,-0.04169676452875137
1738005702474167300,1.065167236328125,-0.02241486869752407,-0.04167162999510765,-0.0661400556564331
1738005702484235300,1.0752353515625,-0.02644835039973259,-0.0505954846739769,-0.07941142469644547
1738005702494304500,1.085304443359375,-0.027023060247302055,-0.05338301882147789,-0.08715589344501495
1738005702504373200,1.095373291015625,-0.019579442217946053,-0.039845675230026245,-0.08574068546295166
1738005702514442500,1.1054423828125,-0.0034127221442759037,-0.018118008971214294,-0.07520655542612076
1738005702524510500,1.115510498046875,0.00487784156575799,0.008607473224401474,-0.05225440487265587
1738005702534579500,1.125579345703125,0.0165342316031456,0.021622341126203537,-0.024653665721416473
1738005702544648400,1.1356484375,0.019413745030760765,0.02206484042108059,-0.008426394313573837
1738005702554718000,1.145718017578125,0.01631994917988777,0.007905611768364906,0.0029567545279860497
1738005702564786000,1.155785888671875,0.012513164430856705,-0.01109168492257595,0.015906140208244324
1738005702574855000,1.16585498046875,0.0030805147252976894,-0.03176979720592499,0.008072985336184502
1738005702584924000,1.175923828125,-0.0008539566770195961,-0.04553205519914627,-0.008826200850307941
1738005702594993000,1.185992919921875,-0.0060740187764167786,-0.04559091106057167,-0.01386942993849516
1738005702605060900,1.196060791015625,-0.016470490023493767,-0.01979023404419422,-0.012100674211978912
1738005702615129900,1.2061298828125,-0.020556043833494186,0.010639842599630356,-0.01606052741408348
1738005702625198800,1.21619873046875,-0.02217649668455124,0.039331138134002686,-0.027112998068332672
1738005702635268000,1.22626806640625,-0.020525868982076645,0.06432250887155533,-0.03487797826528549
1738005702645335800,1.236335693359375,-0.019000450149178505,0.07574106007814407,-0.025507427752017975
1738005702655404800,1.24640478515625,-0.017924267798662186,0.06710256636142731,0.0012685274705290794
1738005702665474000,1.25647412109375,-0.016704335808753967,0.04837295413017273,0.02462625876069069
1738005702675542800,1.266542724609375,-0.014467280358076096,0.02676539309322834,0.03293372318148613
1738005702685611000,1.276611083984375,-0.019245460629463196,0.004602472763508558,0.02359025925397873
1738005702695680000,1.286679931640625,-0.025147557258605957,-0.01691054180264473,-0.0036770477890968323
1738005702705748700,1.296748779296875,-0.025817731395363808,-0.024759016931056976,-0.0265435129404068
1738005702715818000,1.30681787109375,-0.02540307678282261,-0.01876983232796192,-0.039514970034360886
1738005702725886000,1.316885986328125,-0.02600179798901081,-0.004700865130871534,-0.03963734209537506
1738005702735955000,1.326954833984375,-0.0255165696144104,0.01643611118197441,-0.03318929672241211
1738005702746024000,1.33702392578125,-0.021703194826841354,0.019996020942926407,-0.032748982310295105
1738005702756092700,1.3470927734375,-0.02739543467760086,0.030718175694346428,-0.011609875597059727
1738005702766161000,1.357160888671875,-0.03508780896663666,0.03966807946562767,-0.004310964606702328
1738005702776230000,1.36722998046875,-0.03701726719737053,0.04609082639217377,-0.003367672674357891
1738005702786299000,1.377298828125,-0.042132917791604996,0.039668068289756775,-0.013906402513384819
1738005702796368000,1.387367919921875,-0.0448453463613987,0.03393428400158882,-0.03158099949359894
1738005702806437000,1.39743701171875,-0.04787702485918999,0.025804121047258377,-0.042079031467437744
1738005702816504800,1.4075048828125,-0.04342661798000336,0.014037476852536201,-0.04151737317442894
1738005702826573800,1.41757373046875,-0.03749391809105873,0.009658746421337128,-0.03265039995312691
1738005702836643000,1.42764306640625,-0.03185068070888519,0.012220175005495548,-0.013241278938949108
1738005702846711800,1.4377119140625,-0.020435035228729248,0.011533316224813461,0.0009995289146900177
1738005702856779800,1.44777978515625,-0.018304239958524704,0.012445716187357903,0.011323804967105389
1738005702866849000,1.45784912109375,-0.017762329429388046,0.01008673943579197,0.023203682154417038
1738005702876917800,1.467917724609375,-0.015781736001372337,-0.010525593534111977,0.027654623612761497
1738005702886987000,1.477987060546875,-0.021532127633690834,-0.01811733841896057,0.018440892919898033
1738005702897055000,1.488054931640625,-0.02306690625846386,-0.019891804084181786,0.0013785529881715775
1738005702907123700,1.498123779296875,-0.020760849118232727,-0.024851445108652115,-0.015894688665866852
1738005702917193000,1.50819287109375,-0.016462774947285652,-0.021375220268964767,-0.017304832115769386
1738005702927262000,1.518261962890625,-0.012935226783156395,-0.013341481797397137,-0.0118943490087986
1738005702937331000,1.5283310546875,-0.0044160401448607445,0.008655962534248829,0.0016563478857278824
1738005702947399000,1.53839892578125,0.0013914103619754314,0.006299447268247604,0.019902095198631287
1738005702957468000,1.548468017578125,0.0004915283061563969,-0.005215262062847614,0.018069040030241013
1738005702967537000,1.558536865234375,-0.007567872758954763,-0.010967284440994263,0.0033306078985333443
1738005702977606000,1.56860595703125,-0.013148261234164238,-0.018139444291591644,-0.010116491466760635
1738005702987674000,1.578674072265625,-0.008821675553917885,-0.007161613553762436,-0.019541572779417038
1738005702997742800,1.588742919921875,-0.006035476922988892,0.014039545319974422,-0.025623701512813568
1738005703007811800,1.598811767578125,-0.006717778742313385,0.033575162291526794,-0.01876233145594597
1738005703017880800,1.608880859375,-0.0023818863555788994,0.04252045601606369,-0.019178584218025208
1738005703027949800,1.61894970703125,-0.0037085816729813814,0.03905049338936806,-0.019825473427772522
1738005703038018000,1.62901806640625,-0.008922518230974674,0.023623865097761154,-0.022190093994140625
1738005703048086800,1.639086669921875,-0.014927221462130547,0.006714773830026388,-0.019987722858786583
1738005703058156000,1.649156005859375,-0.017327794805169106,-0.007701450027525425,-0.018840698525309563
1738005703068225000,1.65922509765625,-0.022006560117006302,-0.010642251931130886,-0.022786471992731094
1738005703078292700,1.669292724609375,-0.021286441013216972,-0.010966358706355095,-0.022987540811300278
1738005703088362000,1.679362060546875,-0.018874570727348328,-0.015255519188940525,-0.029225539416074753
1738005703098431000,1.689430908203125,-0.01653764769434929,-0.0082410192117095,-0.04075436294078827
1738005703108500000,1.6995,-0.011371387168765068,-0.004105635918676853,-0.045158520340919495
1738005703118569000,1.70956884765625,-0.0015493822284042835,0.006308921612799168,-0.039439380168914795
1738005703128637000,1.719636962890625,0.0030130622908473015,0.01715555042028427,-0.03320871666073799
1738005703138706000,1.729705810546875,-0.0028645338024944067,0.014520086348056793,-0.018612995743751526
1738005703148775000,1.73977490234375,-0.00669486727565527,-0.00522655202075839,0.005156157538294792
1738005703158844000,1.749843994140625,-0.012157809920608997,-0.03255830705165863,0.01620294898748398
1738005703168912000,1.759911865234375,-0.021241160109639168,-0.052138589322566986,0.02054191567003727
1738005703178980900,1.76998095703125,-0.023572757840156555,-0.06934979557991028,0.014913591556251049
1738005703189049900,1.7800498046875,-0.02660423144698143,-0.06857477873563766,0.014620236121118069
1738005703199118800,1.790118896484375,-0.021923724561929703,-0.05543554574251175,0.011418317444622517
1738005703209188000,1.80018798828125,-0.011967064812779427,-0.03439249098300934,0.010353733785450459
1738005703219255800,1.810255859375,-0.003722717287018895,-0.013197190128266811,0.0031512146815657616
1738005703229324800,1.82032470703125,-0.001162427943199873,0.007575283292680979,-0.0054513029754161835
1738005703239394000,1.83039404296875,0.0035005011595785618,0.020606396719813347,-0.012996304780244827
1738005703249462800,1.840462890625,0.0035092378966510296,0.01246569026261568,-0.016420122236013412
1738005703259532000,1.850531982421875,0.0019616750068962574,-0.0012205615639686584,-0.0076572587713599205
1738005703269600000,1.86060009765625,-0.0071540698409080505,-0.020354822278022766,0.012148579582571983
1738005703279668700,1.870668701171875,-0.010355455800890923,-0.03453748673200607,0.03083305060863495
1738005703289738000,1.880738037109375,-0.012290089391171932,-0.04965321719646454,0.037462249398231506
1738005703299806700,1.890806640625,-0.017979400232434273,-0.03526096045970917,0.03132659196853638
1738005703309876000,1.9008759765625,-0.01760033704340458,-0.02377190999686718,0.016241924837231636
1738005703319944000,1.91094384765625,-0.01242980919778347,-0.00998632237315178,0.0016920119524002075
1738005703330012700,1.9210126953125,-0.005444904323667288,-0.0014772270806133747,0.0001666909083724022
1738005703340082000,1.93108203125,-0.0014043564442545176,0.011207940988242626,0.010917872190475464
1738005703350151000,1.94115087890625,0.0008947225287556648,0.02392403781414032,0.019711609929800034
1738005703360219000,1.951218994140625,-0.00008132588118314743,0.020577775314450264,0.0296795554459095
1738005703370287900,1.961287841796875,-0.00013463525101542473,0.008929156698286533,0.025011878460645676
1738005703380356900,1.97135693359375,-0.0074058640748262405,-0.0029674505349248648,0.01643676683306694
1738005703390425900,1.98142578125,-0.01218237355351448,-0.024116024374961853,0.010541718453168869
1738005703400494800,1.991494873046875,-0.012065727263689041,-0.042948298156261444,0.00645456463098526
1738005703410563000,2.00156298828125,-0.013635093346238136,-0.034972961992025375,0.003333468921482563
1738005703420631800,2.0116318359375,-0.013842287473380566,-0.02663700096309185,0.009946895763278008
1738005703430701000,2.021701171875,-0.013594534248113632,-0.0273103266954422,0.014484738931059837
1738005703440769800,2.031769775390625,-0.011690374463796616,-0.027595017105340958,0.009048428386449814
1738005703450838800,2.0418388671875,-0.010500960052013397,-0.02930241823196411,-0.006751354783773422
1738005703460907000,2.051906982421875,-0.01304294727742672,-0.0227997787296772,-0.022101281210780144
1738005703470976000,2.06197607421875,-0.011292793788015842,-0.028402455151081085,-0.03243672102689743
1738005703481045000,2.072044921875,-0.008755067363381386,-0.03319428116083145,-0.0346711128950119
1738005703491114000,2.082114013671875,-0.005290357396006584,-0.02665775641798973,-0.03497965633869171
1738005703501182700,2.0921826171875,0.0004982892423868179,-0.026794642210006714,-0.01908857375383377
1738005703511251000,2.1022509765625,0.004226543474942446,-0.030056308954954147,-0.009700920432806015
1738005703521320000,2.11231982421875,0.0013873474672436714,-0.025091111660003662,-0.009334735572338104
1738005703531389000,2.122388916015625,-0.0040384517051279545,-0.027770111337304115,-0.015140392817556858
1738005703541458000,2.1324580078125,-0.017011774703860283,-0.03680115565657616,-0.014841585420072079
1738005703551527000,2.14252685546875,-0.023291680961847305,-0.04987257719039917,-0.008933350443840027
1738005703561595100,2.15259521484375,-0.028710413724184036,-0.05191894993185997,-0.0036690812557935715
1738005703571664400,2.162664306640625,-0.029979649931192398,-0.03422946855425835,0.0028060460463166237
1738005703581733000,2.172733154296875,-0.02884940430521965,-0.011557979509234428,0.0015045590698719025
1738005703591802400,2.18280224609375,-0.026827121153473854,0.010178601369261742,-0.01297897007316351
1738005703601871400,2.192871337890625,-0.03125915303826332,0.00407943082973361,-0.023409239947795868
1738005703611939000,2.20293896484375,-0.036027513444423676,-0.02583322674036026,-0.039150528609752655
1738005703622008300,2.21300830078125,-0.049441855400800705,-0.06700649112462997,-0.04911181330680847
1738005703632077300,2.223077392578125,-0.057450875639915466,-0.0989648699760437,-0.04512251541018486
1738005703642146300,2.233146240234375,-0.05880216136574745,-0.09927006810903549,-0.0242297500371933
1738005703652215300,2.24321533203125,-0.05220635607838631,-0.08220954239368439,-0.002307787537574768
1738005703662283300,2.253283203125,-0.05005079135298729,-0.05147267132997513,0.014351350255310535
1738005703672352300,2.263352294921875,-0.04516790434718132,-0.019445478916168213,0.011997287161648273
1738005703682421200,2.273421142578125,-0.04166185110807419,-0.00027258414775133133,-0.0004766928032040596
1738005703692490200,2.283490234375,-0.0423881933093071,0.0037531466223299503,-0.005403921939432621
1738005703702559200,2.293559326171875,-0.04425773024559021,-0.010006342083215714,-0.010284963063895702
1738005703712627200,2.303627197265625,-0.0479707233607769,-0.01795906201004982,-0.011189897544682026
1738005703722696200,2.3136962890625,-0.049735069274902344,-0.039476603269577026,-0.009279345162212849
1738005703732765200,2.32376513671875,-0.04770414158701897,-0.05060754716396332,-0.00800379179418087
1738005703742834400,2.33383447265625,-0.04669533669948578,-0.0497145913541317,0.00351917278021574
1738005703752903200,2.343903076171875,-0.04722949117422104,-0.0434916615486145,0.02318110689520836
1738005703762971100,2.35397119140625,-0.04831738770008087,-0.03497833386063576,0.04236838221549988
1738005703773040400,2.364040283203125,-0.049900420010089874,-0.040616732090711594,0.044693101197481155
1738005703783109000,2.374109130859375,-0.04781303554773331,-0.05425132066011429,0.041012078523635864
1738005703793178400,2.384178466796875,-0.04434537887573242,-0.050136953592300415,0.026470202952623367
1738005703803247000,2.3942470703125,-0.04537522420287132,-0.04401114955544472,0.0012127822265028954
1738005703813316400,2.40431640625,-0.03967156261205673,-0.04056552052497864,-0.024414675310254097
1738005703823384300,2.41438427734375,-0.035283204168081284,-0.024893617257475853,-0.021874019876122475
1738005703833453000,2.424453125,-0.03429337218403816,0.001083451323211193,-0.0006189513951539993
1738005703843522300,2.434522216796875,-0.03439217433333397,0.004836644046008587,0.025598004460334778
1738005703853591300,2.44459130859375,-0.03750023990869522,-0.017801398411393166,0.04363489896059036
1738005703863660300,2.454660400390625,-0.0457318052649498,-0.03251669555902481,0.05199269950389862
1738005703873728300,2.464728271484375,-0.04992251098155975,-0.03968385234475136,0.04944847151637077
1738005703883797200,2.47479736328125,-0.05711890757083893,-0.03638659045100212,0.03358748182654381
1738005703893866200,2.4848662109375,-0.061200447380542755,-0.029355322942137718,0.016794484108686447
1738005703903935200,2.494935302734375,-0.06014557182788849,-0.00478712935000658,-0.003838888369500637
1738005703914004200,2.505004150390625,-0.05018536373972893,0.020396538078784943,-0.02602534554898739
1738005703924072200,2.515072265625,-0.04205979034304619,0.049345631152391434,-0.043102070689201355
1738005703934141200,2.52514111328125,-0.03470870107412338,0.06776967644691467,-0.05189238861203194
1738005703944210200,2.535210205078125,-0.030073203146457672,0.06251632422208786,-0.05439895763993263
1738005703954279200,2.545279052734375,-0.02708294242620468,0.04284268990159035,-0.04979473352432251
1738005703964348400,2.555348388671875,-0.014418546110391617,0.024957165122032166,-0.04325320944190025
1738005703974417200,2.565417236328125,-0.011103177443146706,0.01608670875430107,-0.051874928176403046
1738005703984485400,2.5754853515625,-0.019933952018618584,0.006682022474706173,-0.061847932636737823
1738005703994554400,2.585554443359375,-0.03310035541653633,-0.027958247810602188,-0.07906074076890945
1738005704004623000,2.595623046875,-0.04237721115350723,-0.07656253129243851,-0.07829161733388901
1738005704014692400,2.6056923828125,-0.05843005329370499,-0.11338888108730316,-0.06688098609447479
1738005704024761000,2.615760986328125,-0.06835592538118362,-0.1102287694811821,-0.029165560379624367
1738005704034829300,2.625829345703125,-0.06080585718154907,-0.0806216150522232,0.00965240877121687
1738005704044898300,2.635898193359375,-0.062382981181144714,-0.05186958983540535,0.03964626044034958
1738005704054967000,2.645967041015625,-0.06417950987815857,-0.03677724301815033,0.04876391217112541
1738005704065036300,2.656036376953125,-0.06403463333845139,-0.024338681250810623,0.038072384893894196
1738005704075105300,2.666105224609375,-0.06210225448012352,-0.017087941989302635,0.00707699079066515
1738005704085174300,2.67617431640625,-0.05531332641839981,-0.032002974301576614,-0.044680479913949966
1738005704095242200,2.6862421875,-0.045909758657217026,-0.05173216760158539,-0.10616233944892883
1738005704105311200,2.696311279296875,-0.03954586759209633,-0.06497021019458771,-0.1591390073299408
1738005704115380200,2.706380126953125,-0.03226465731859207,-0.06994565576314926,-0.19923818111419678
1738005704125449200,2.71644921875,-0.018508367240428925,-0.07866138219833374,-0.2065078169107437
1738005704135518200,2.726518310546875,-0.0038786842487752438,-0.08921723067760468,-0.17525964975357056
1738005704145587200,2.736587158203125,0.011662723496556282,-0.08073266595602036,-0.12459035217761993
1738005704155655400,2.746655517578125,0.029792919754981995,-0.027960970997810364,-0.05602451413869858
1738005704165724200,2.75672412109375,0.040143296122550964,0.02710840478539467,0.0045900968834757805
1738005704175793200,2.766793212890625,0.04022664949297905,0.07276803255081177,0.04717068001627922
1738005704185862400,2.7768623046875,0.031956735998392105,0.0808110460639,0.07631152123212814
1738005704195931100,2.78693115234375,0.009299308992922306,0.08272083848714828,0.08564621210098267
1738005704205999400,2.796999267578125,-0.01288082730025053,0.06359481811523438,0.0821090042591095
1738005704216068400,2.807068359375,-0.034488994628190994,0.048081714659929276,0.06952016055583954
1738005704226137000,2.81713720703125,-0.06349427998065948,0.04028237983584404,0.05887363851070404
1738005704236206300,2.827206298828125,-0.0783119797706604,0.021840140223503113,0.04994186386466026
1738005704246275000,2.837275146484375,-0.08807006478309631,0.028073269873857498,0.053565893322229385
1738005704256344300,2.84734423828125,-0.09073556214570999,0.02310160920023918,0.0659216120839119
1738005704266412300,2.857412353515625,-0.0850723534822464,0.024638518691062927,0.0909033939242363
1738005704276481300,2.867481201171875,-0.074966199696064,0.02558019943535328,0.11938014626502991
1738005704286550300,2.87755029296875,-0.05917631462216377,0.03677213564515114,0.13601931929588318
1738005704296619300,2.887619384765625,-0.04647420346736908,0.043991826474666595,0.13691595196723938
1738005704306688300,2.897688232421875,-0.026475993916392326,0.04738922044634819,0.13353560864925385
1738005704316757200,2.90775732421875,0.0013848431408405304,0.05590713396668434,0.12670259177684784
1738005704326825500,2.917825439453125,0.03459366038441658,0.07558123767375946,0.12562747299671173
1738005704336894200,2.927894287109375,0.07014810293912888,0.10125794261693954,0.1239778995513916
1738005704346963200,2.937963134765625,0.10245677828788757,0.13469897210597992,0.12704771757125854
1738005704357032200,2.9480322265625,0.13076260685920715,0.15549039840698242,0.12370818108320236
1738005704367101200,2.95810107421875,0.15837186574935913,0.1600974053144455,0.09988541156053543
1738005704377170400,2.96817041015625,0.18314075469970703,0.17436832189559937,0.06082657724618912
1738005704387238100,2.978238037109375,0.20371472835540771,0.19798816740512848,0.007468016818165779
1738005704397307100,2.98830712890625,0.21904055774211884,0.2128189206123352,-0.03518087416887283
1738005704407376400,2.99837646484375,0.23157446086406708,0.208051860332489,-0.05825929716229439
1738005704417445000,3.008445068359375,0.23506265878677368,0.18152093887329102,-0.06812037527561188
1738005704427514400,3.018514404296875,0.2402172088623047,0.14638930559158325,-0.06770225614309311
1738005704437583000,3.0285830078125,0.2416360080242157,0.11070943623781204,-0.06040947139263153
1738005704447651300,3.0386513671875,0.24428239464759827,0.09121989458799362,-0.043766580522060394
1738005704457720300,3.04872021484375,0.2475639134645462,0.08294679969549179,-0.028603531420230865
1738005704467789000,3.0587890625,0.2507421672344208,0.08427944779396057,-0.007499844767153263
1738005704477858300,3.0688583984375,0.25219234824180603,0.08820033073425293,0.004227829165756702
1738005704487927300,3.07892724609375,0.259925901889801,0.09848519414663315,0.00024001114070415497
1738005704497996300,3.088996337890625,0.2717435359954834,0.10713155567646027,-0.020293455570936203
1738005704508064300,3.099064208984375,0.284479022026062,0.1267012655735016,-0.045520514249801636
1738005704518133200,3.10913330078125,0.3041704595088959,0.14941558241844177,-0.07771268486976624
1738005704528202200,3.1192021484375,0.3254978656768799,0.17137041687965393,-0.11978236585855484
1738005704538271200,3.129271240234375,0.3446866273880005,0.20231109857559204,-0.14961321651935577
1738005704548340200,3.13934033203125,0.36163660883903503,0.2121882289648056,-0.16048823297023773
1738005704558409200,3.1494091796875,0.3749580681324005,0.1957186609506607,-0.15753713250160217
1738005704568477200,3.159477294921875,0.3819030523300171,0.17980201542377472,-0.1443246603012085
1738005704578546000,3.1695458984375,0.38607823848724365,0.15540064871311188,-0.13016903400421143
1738005704588615200,3.179615234375,0.38464412093162537,0.15300780534744263,-0.11471496522426605
1738005704598684200,3.18968408203125,0.3867679536342621,0.1270393431186676,-0.12424769252538681
1738005704608753200,3.199753173828125,0.3760239779949188,0.12457672506570816,-0.15873028337955475
1738005704618822100,3.209822265625,0.36883315443992615,0.15106722712516785,-0.1778835952281952
1738005704628890000,3.21989013671875,0.37620851397514343,0.15421134233474731,-0.16823789477348328
1738005704638959000,3.229958984375,0.3894112706184387,0.18300315737724304,-0.13150769472122192
1738005704649028000,3.240028076171875,0.4010538160800934,0.23467327654361725,-0.061098773032426834
1738005704659097000,3.25009716796875,0.4279419779777527,0.27193909883499146,0.0395938977599144
1738005704669166000,3.260166015625,0.42812785506248474,0.287773460149765,0.1074453815817833
1738005704679235300,3.2702353515625,0.4098600447177887,0.2766048014163971,0.05640872195363045
1738005704689303000,3.280302978515625,0.42982950806617737,0.22210665047168732,-0.18874616920948029
1738005704699372000,3.2903720703125,0.4858384132385254,0.11560527235269547,-0.6503696441650391
1738005704709441300,3.300441162109375,0.4996460974216461,-0.05736251547932625,-1.2177784442901611
1738005704719510000,3.310510009765625,0.47551682591438293,-0.3216509222984314,-1.681787371635437
1738005704729579300,3.320579345703125,0.42710641026496887,-0.5679203867912292,-1.8910801410675049
1738005704739648000,3.33064794921875,0.32940804958343506,-0.776186466217041,-1.7675752639770508
1738005704749716000,3.340716064453125,0.25349918007850647,-0.9294833540916443,-1.3860526084899902
1738005704759785200,3.35078515625,0.1925504356622696,-0.9008022546768188,-0.8513712286949158
1738005704769854000,3.36085400390625,0.1126319095492363,-0.7219326496124268,-0.3571271002292633
1738005704779923200,3.370923095703125,0.013749800622463226,-0.45354804396629333,0.029457878321409225
1738005704789992200,3.3809921875,-0.09844224900007248,-0.1564476490020752,0.27995747327804565
1738005704800061200,3.391061279296875,-0.21243514120578766,0.06242506206035614,0.42255276441574097
1738005704810129200,3.401129150390625,-0.3214535117149353,0.17264291644096375,0.5046092867851257
1738005704820198100,3.4111982421875,-0.4218887686729431,0.2234717160463333,0.5659986734390259
1738005704830267100,3.42126708984375,-0.4958929717540741,0.24048744142055511,0.6205346584320068
1738005704840336100,3.431336181640625,-0.5385401248931885,0.2743086516857147,0.6696527004241943
1738005704850405000,3.441405029296875,-0.5444342494010925,0.2903938591480255,0.6920469403266907
1738005704860474000,3.45147412109375,-0.5126928687095642,0.30043113231658936,0.6858257055282593
1738005704870542000,3.4615419921875,-0.4624089300632477,0.3016449809074402,0.6400699615478516
1738005704880611000,3.471611083984375,-0.35625362396240234,0.2787238657474518,0.549588680267334
1738005704890680000,3.48168017578125,-0.2094404548406601,0.27547189593315125,0.4257408082485199
1738005704900749300,3.491749267578125,-0.05165543034672737,0.3086399734020233,0.29040369391441345
1738005704910818000,3.501818115234375,0.10756165534257889,0.3203563094139099,0.18681789934635162
1738005704920887300,3.51188720703125,0.2874634563922882,0.3556267321109772,0.12779384851455688
1738005704930956000,3.5219560546875,0.4571203887462616,0.4519681930541992,0.09432989358901978
1738005704941024000,3.53202392578125,0.5702676177024841,0.5558850765228271,0.07910457253456116
1738005704951093200,3.54209326171875,0.6564853191375732,0.6209887266159058,0.08987226337194443
1738005704961162000,3.552161865234375,0.7108691334724426,0.6547231078147888,0.10212495177984238
1738005704971231200,3.562231201171875,0.709943413734436,0.6140505075454712,0.12413384765386581
1738005704981300200,3.57230029296875,0.6535431146621704,0.5118834972381592,0.1441960632801056
1738005704991369200,3.582369140625,0.559343159198761,0.3578054904937744,0.1556684374809265
1738005705001437200,3.592437255859375,0.4437355399131775,0.14925312995910645,0.1738823652267456
1738005705011506200,3.602506103515625,0.3167469799518585,-0.06788770854473114,0.1894325613975525
1738005705021575200,3.6125751953125,0.19630193710327148,-0.2455606311559677,0.20626041293144226
1738005705031644200,3.62264404296875,0.09749865531921387,-0.3457687497138977,0.22744879126548767
1738005705041713200,3.632713134765625,0.02454322762787342,-0.35187673568725586,0.2602411210536957
1738005705051782100,3.6427822265625,-0.030448386445641518,-0.27192676067352295,0.2977812886238098
1738005705061851100,3.65285107421875,-0.06289075314998627,-0.15810325741767883,0.3238595128059387
1738005705071919000,3.662919189453125,-0.06633555144071579,-0.05079970508813858,0.3395468592643738
1738005705081988000,3.672988037109375,-0.0655195340514183,0.03596288710832596,0.3381701111793518
1738005705092057300,3.683057373046875,-0.056541748344898224,0.1031336635351181,0.31196725368499756
1738005705102126000,3.6931259765625,-0.03445599973201752,0.14707806706428528,0.2772448658943176
1738005705112195300,3.7031953125,-0.011987976729869843,0.15592481195926666,0.26020994782447815
1738005705122264000,3.71326416015625,0.01265121903270483,0.1317783147096634,0.24605131149291992
1738005705132332000,3.72333203125,0.0383179672062397,0.13213278353214264,0.24196895956993103
1738005705142401300,3.7334013671875,0.061436984688043594,0.13869307935237885,0.24251237511634827
1738005705152470000,3.743469970703125,0.08237209171056747,0.1260388046503067,0.23666353523731232
1738005705162539300,3.753539306640625,0.10883976519107819,0.09670078009366989,0.21628114581108093
1738005705172608300,3.763608154296875,0.12788137793540955,0.0766996368765831,0.18781062960624695
1738005705182677000,3.773677001953125,0.12752839922904968,0.038194961845874786,0.1491793394088745
1738005705192745200,3.7837451171875,0.1239326074719429,-0.021190866827964783,0.10055852681398392
1738005705202814200,3.793814208984375,0.11698231101036072,-0.08154454082250595,0.03277277201414108
1738005705212883200,3.80388330078125,0.09760674834251404,-0.1286361664533615,-0.04336700215935707
1738005705222952200,3.8139521484375,0.08159033954143524,-0.1564721167087555,-0.11090867221355438
1738005705233021200,3.824021240234375,0.06706146895885468,-0.17684875428676605,-0.1686049848794937
1738005705243090200,3.834090087890625,0.05612453445792198,-0.1748986691236496,-0.1975991278886795
1738005705253159200,3.8441591796875,0.04243481904268265,-0.17585687339305878,-0.19504275918006897
1738005705263227100,3.85422705078125,0.02776160277426243,-0.17021684348583221,-0.18666844069957733
1738005705273296100,3.864296142578125,0.01061963476240635,-0.1576397866010666,-0.18437786400318146
1738005705283365400,3.874365478515625,-0.009394812397658825,-0.16414692997932434,-0.19069737195968628
1738005705293434000,3.88443408203125,-0.03142821043729782,-0.17696020007133484,-0.21577715873718262
1738005705303503000,3.894503173828125,-0.05524831265211105,-0.19048510491847992,-0.24764424562454224
1738005705313572000,3.904572021484375,-0.07788145542144775,-0.2006690353155136,-0.26937246322631836
1738005705323640000,3.91464013671875,-0.10360558331012726,-0.19364215433597565,-0.2792794406414032
1738005705333709300,3.924709228515625,-0.13003453612327576,-0.162270650267601,-0.2588562071323395
1738005705343778000,3.934778076171875,-0.15109433233737946,-0.11440373957157135,-0.23155175149440765
1738005705353847300,3.944847412109375,-0.17884127795696259,-0.07130313664674759,-0.18323908746242523
1738005705363916000,3.954916015625,-0.20561720430850983,-0.028153840452432632,-0.14940910041332245
1738005705373985000,3.964985107421875,-0.22818616032600403,-0.005941745825111866,-0.12838558852672577
1738005705384053200,3.97505322265625,-0.2476578801870346,0.02174076810479164,-0.12653513252735138
1738005705394122200,3.985122314453125,-0.2499503344297409,0.039029475301504135,-0.13016316294670105
1738005705404191200,3.995191162109375,-0.2474420964717865,0.05437186360359192,-0.1562063992023468
1738005705414260200,4.00526025390625,-0.23687785863876343,0.08113716542720795,-0.18536321818828583
1738005705424329000,4.015328857421875,-0.2231193482875824,0.0960446447134018,-0.19154387712478638
1738005705434398200,4.025398193359375,-0.1943012923002243,0.10084925591945648,-0.17507541179656982
1738005705444466200,4.035466064453125,-0.1509600281715393,0.09986002743244171,-0.14432740211486816
1738005705454535200,4.04553515625,-0.12733566761016846,0.09277655184268951,-0.10625724494457245
1738005705464604200,4.055604248046875,-0.10103914886713028,0.06869203597307205,-0.07710260897874832
1738005705474673200,4.065673095703125,-0.07905901968479156,0.04941873252391815,-0.05855821818113327
1738005705484742100,4.0757421875,-0.06882427632808685,0.014715161174535751,-0.06261952221393585
1738005705494811100,4.08581103515625,-0.06747058779001236,-0.02405513823032379,-0.09106394648551941
1738005705504880000,4.095880126953125,-0.07313746958971024,-0.04787082225084305,-0.13270656764507294
1738005705514948000,4.105947998046875,-0.08971857279539108,-0.08172199130058289,-0.1644120216369629
1738005705525017300,4.116017333984375,-0.10560216754674911,-0.12840747833251953,-0.17368052899837494
1738005705535086000,4.126086181640625,-0.11951905488967896,-0.177499920129776,-0.136541947722435
1738005705545155000,4.136155029296875,-0.11840983480215073,-0.22296755015850067,-0.05776703730225563
1738005705555224000,4.14622412109375,-0.09839138388633728,-0.258637398481369,0.06625424325466156
1738005705565293000,4.15629296875,-0.0889415293931961,-0.27399760484695435,0.19264286756515503
1738005705575361300,4.166361328125,-0.1375892162322998,-0.2712430953979492,0.27621155977249146
1738005705585430300,4.17643017578125,-0.15641343593597412,-0.2364918738603592,0.26488396525382996
1738005705595499300,4.186499267578125,-0.17481695115566254,-0.2201203554868698,0.11371893435716629
1738005705605568300,4.196568359375,-0.2450459748506546,-0.23997299373149872,-0.15088722109794617
1738005705615637200,4.20663720703125,-0.362488716840744,-0.2994288504123688,-0.475629597902298
1738005705625706200,4.216706298828125,-0.44323357939720154,-0.3712088465690613,-0.7818001508712769
1738005705635775000,4.22677490234375,-0.4440375864505768,-0.39464572072029114,-0.9888648986816406
1738005705645843200,4.23684326171875,-0.38137903809547424,-0.32271236181259155,-1.0455174446105957
1738005705655912200,4.246912109375,-0.2854357361793518,-0.17362621426582336,-0.9423267841339111
1738005705665981200,4.256981201171875,-0.18007785081863403,0.03336526080965996,-0.7457436919212341
1738005705676050200,4.26705029296875,-0.09405054152011871,0.21182262897491455,-0.5060378909111023
1738005705686119200,4.277119140625,-0.04479578509926796,0.29832756519317627,-0.264961302280426
1738005705696188200,4.287188232421875,-0.04426049068570137,0.23086729645729065,-0.032883062958717346
1738005705706256100,4.297256103515625,-0.08376536518335342,0.05188245698809624,0.1734936386346817
1738005705716325400,4.307325439453125,-0.15878260135650635,-0.15644118189811707,0.33505722880363464
1738005705726394000,4.31739404296875,-0.2547730803489685,-0.3422171473503113,0.44427236914634705
1738005705736463400,4.32746337890625,-0.3493337035179138,-0.48288851976394653,0.5219679474830627
1738005705746532000,4.337531982421875,-0.4514537453651428,-0.5349522233009338,0.5979341268539429
1738005705756601000,4.34760107421875,-0.5328570008277893,-0.5114090442657471,0.6735905408859253
1738005705766669300,4.35766943359375,-0.5864412188529968,-0.4424343705177307,0.7287958860397339
1738005705776738000,4.367738037109375,-0.6169906258583069,-0.3378879725933075,0.7443642020225525
1738005705786807300,4.377807373046875,-0.6266967058181763,-0.19285845756530762,0.7071564793586731
1738005705796876300,4.387876220703125,-0.6292999386787415,-0.0003550546243786812,0.6053645610809326
1738005705806945000,4.397945068359375,-0.6187568306922913,0.15290537476539612,0.4652552604675293
1738005705817014300,4.40801416015625,-0.5918967127799988,0.25211745500564575,0.3059487044811249
1738005705827083000,4.4180830078125,-0.5657206773757935,0.29918262362480164,0.17839550971984863
1738005705837151200,4.428151123046875,-0.5264307856559753,0.28646737337112427,0.10871975123882294
1738005705847220200,4.43822021484375,-0.4678392708301544,0.25793203711509705,0.08690973371267319
1738005705857289000,4.4482890625,-0.3969126343727112,0.22351226210594177,0.10975272953510284
1738005705867358200,4.458358154296875,-0.3292176425457001,0.19593295454978943,0.14668194949626923
1738005705877427200,4.46842724609375,-0.27032530307769775,0.20453442633152008,0.18776653707027435
1738005705887496200,4.47849609375,-0.211192786693573,0.22228021919727325,0.2242640256881714
1738005705897564200,4.488564208984375,-0.15966728329658508,0.22878791391849518,0.2595149278640747
1738005705907633400,4.49863330078125,-0.11704884469509125,0.21222691237926483,0.3039010167121887
1738005705917702100,4.5087021484375,-0.08846940100193024,0.17014896869659424,0.3518562912940979
1738005705927771100,4.518771240234375,-0.07208926230669022,0.12117122858762741,0.38383302092552185
1738005705937840000,4.528840087890625,-0.07721025496721268,0.07554993778467178,0.39677760004997253
1738005705947909000,4.5389091796875,-0.09986336529254913,0.04109236225485802,0.3683805763721466
1738005705957977300,4.548977294921875,-0.11856035143136978,0.020267240703105927,0.30584821105003357
1738005705968046000,4.559046142578125,-0.13830016553401947,-0.008130623959004879,0.2194918394088745
1738005705978115000,4.569114990234375,-0.15794230997562408,-0.05429758504033089,0.12600289285182953
1738005705988184300,4.579184326171875,-0.1756362020969391,-0.09180042147636414,0.03432828187942505
1738005705998253000,4.589253173828125,-0.18889367580413818,-0.11806265264749527,-0.032839033752679825
1738005706008322300,4.599322265625,-0.19955649971961975,-0.11155834794044495,-0.06367859244346619
1738005706018391000,4.60939111328125,-0.20122817158699036,-0.0863880142569542,-0.061265505850315094
1738005706028459000,4.619458984375,-0.18501247465610504,-0.057487353682518005,-0.03673471510410309
1738005706038528300,4.6295283203125,-0.17471589148044586,-0.04492335766553879,0.009657284244894981
1738005706048597000,4.639596923828125,-0.16360853612422943,-0.034566428512334824,0.05967182293534279
1738005706058666200,4.649666259765625,-0.14623433351516724,-0.026188921183347702,0.09612037986516953
1738005706068735200,4.6597353515625,-0.12349172681570053,-0.019740361720323563,0.11959420889616013
1738005706078804200,4.66980419921875,-0.10146525502204895,-0.0022439269814640284,0.11735288798809052
1738005706088872200,4.6798720703125,-0.07387837022542953,0.018109813332557678,0.09878000617027283
1738005706098941200,4.689941162109375,-0.04765954613685608,0.05031568557024002,0.07647603005170822
1738005706109010200,4.70001025390625,-0.018131956458091736,0.10191813856363297,0.04236745461821556
1738005706119079200,4.7100791015625,0.007943052798509598,0.13815362751483917,0.01666874997317791
1738005706129148200,4.720148193359375,0.03887801989912987,0.16479510068893433,-0.002858542837202549
1738005706139217200,4.730217041015625,0.06710778921842575,0.19704730808734894,-0.015290445648133755
1738005706149285000,4.74028515625,0.09303373843431473,0.23770415782928467,-0.02815159037709236
1738005706159354000,4.75035400390625,0.10958927869796753,0.2514186501502991,-0.034731462597846985
1738005706169423000,4.760423095703125,0.1218065470457077,0.25170379877090454,-0.0412173755466938
1738005706179492400,4.770492431640625,0.13139791786670685,0.22593505680561066,-0.05043511092662811
1738005706189561000,4.78056103515625,0.13894762098789215,0.18037648499011993,-0.07948267459869385
1738005706199630300,4.79063037109375,0.14358018338680267,0.13439860939979553,-0.10197733342647552
1738005706209699000,4.800698974609375,0.1452782154083252,0.10516616702079773,-0.1119965985417366
1738005706219767000,4.81076708984375,0.14715521037578583,0.0873863697052002,-0.102577805519104
1738005706229836300,4.820836181640625,0.15653188526630402,0.09115427732467651,-0.07864536345005035
1738005706239905000,4.830905029296875,0.16210241615772247,0.10593961179256439,-0.03165361285209656
1738005706249974300,4.840974365234375,0.16823796927928925,0.13123120367527008,0.02294180728495121
1738005706260043300,4.851043212890625,0.17255336046218872,0.1530291885137558,0.07441937923431396
1738005706270112300,4.8611123046875,0.17848066985607147,0.1672222912311554,0.10098443180322647
1738005706280180200,4.87118017578125,0.17145764827728271,0.1992816925048828,0.11180618405342102
1738005706290249200,4.881249267578125,0.15813855826854706,0.22737306356430054,0.10570000112056732
1738005706300318200,4.891318115234375,0.14332632720470428,0.23257902264595032,0.09777949750423431
1738005706310387200,4.90138720703125,0.12864747643470764,0.21905791759490967,0.102535679936409
1738005706320456200,4.911456298828125,0.11963453143835068,0.22817125916481018,0.12429343909025192
1738005706330525200,4.921525146484375,0.117513008415699,0.25177228450775146,0.16530480980873108
1738005706340594200,4.93159423828125,0.12512512505054474,0.29477858543395996,0.2182716280221939
1738005706350662100,4.941662109375,0.134270578622818,0.37878572940826416,0.2876359224319458
1738005706360731100,4.951731201171875,0.16236665844917297,0.44313061237335205,0.3378695249557495
1738005706370800400,4.96180029296875,0.17550154030323029,0.4325198829174042,0.36936700344085693
1738005706380869000,4.971869140625,0.17988483607769012,0.3870498836040497,0.3532674014568329
1738005706390938400,4.9819384765625,0.23030425608158112,0.3434947431087494,0.19926364719867706
1738005706401007000,4.992007080078125,0.2977786362171173,0.2824380397796631,-0.07601559162139893
1738005706411075000,5.002074951171875,0.3555290997028351,0.2545029819011688,-0.4504987299442291
1738005706421144300,5.012144287109375,0.41427284479141235,0.2444697916507721,-0.830696702003479
1738005706431213000,5.022213134765625,0.5302500128746033,0.15840688347816467,-1.000819444656372
1738005706441282300,5.0322822265625,0.4514470398426056,0.08803284913301468,-1.0015473365783691
1738005706451351000,5.04235107421875,0.38154950737953186,-0.154272198677063,-0.8287922143936157
1738005706461420300,5.052420166015625,0.35161930322647095,-0.39998528361320496,-0.6093615889549255
1738005706471488300,5.06248828125,0.3257099986076355,-0.5301692485809326,-0.4323166012763977
1738005706481557200,5.07255712890625,0.2604052722454071,-0.5357858538627625,-0.4027073085308075
1738005706491626200,5.082626220703125,0.17142115533351898,-0.5017189979553223,-0.5333672165870667
1738005706501695200,5.0926953125,0.07427676767110825,-0.4952200651168823,-0.6475241780281067
1738005706511764200,5.10276416015625,-0.028688279911875725,-0.4398435950279236,-0.5772262811660767
1738005706521833200,5.112833251953125,-0.11783120781183243,-0.32016831636428833,-0.2811530828475952
1738005706531902000,5.12290185546875,-0.19105851650238037,-0.16664406657218933,0.14712916314601898
1738005706541970200,5.13297021484375,-0.22548386454582214,-0.04746227338910103,0.5957509279251099
1738005706552039200,5.1430390625,-0.22567306458950043,0.036752328276634216,0.951231837272644
1738005706562108200,5.153108154296875,-0.22526134550571442,0.13684217631816864,1.1335704326629639
1738005706572177200,5.16317724609375,-0.1810695230960846,0.2937033176422119,1.1244324445724487
1738005706582246100,5.17324609375,-0.11216901987791061,0.40894973278045654,0.9541323781013489
1738005706592315000,5.18331494140625,-0.03834807127714157,0.44609978795051575,0.664927065372467
1738005706602383000,5.193383056640625,0.053996507078409195,0.4571194052696228,0.3333245813846588
1738005706612452000,5.2034521484375,0.16620931029319763,0.45435428619384766,0.020121822133660316
1738005706622521000,5.21352099609375,0.25493118166923523,0.41837364435195923,-0.2185211181640625
1738005706632590000,5.223590087890625,0.3567894995212555,0.34752386808395386,-0.3281031847000122
1738005706642659000,5.2336591796875,0.47096213698387146,0.2835334241390228,-0.2922450304031372
1738005706652728000,5.24372802734375,0.5822660326957703,0.2652931809425354,-0.1543598622083664
1738005706662796000,5.253796142578125,0.6453784108161926,0.3007504940032959,0.0014401208609342575
1738005706672865300,5.263865234375,0.6456443667411804,0.348014771938324,0.13088048994541168
1738005706682934000,5.27393408203125,0.5929246544837952,0.3624674677848816,0.21888838708400726
1738005706693003300,5.284003173828125,0.4942391514778137,0.27477356791496277,0.24542361497879028
1738005706703072000,5.294072021484375,0.3558213412761688,0.10799309611320496,0.2131628692150116
1738005706713141000,5.30414111328125,0.17600858211517334,-0.0932280421257019,0.14216776192188263
1738005706723209200,5.314209228515625,0.00525043485686183,-0.2882409393787384,0.06779179722070694
1738005706733278000,5.32427783203125,-0.12619347870349884,-0.42288142442703247,0.03916843980550766
1738005706743347200,5.33434716796875,-0.22033941745758057,-0.4489620327949524,0.07776829600334167
1738005706753416000,5.344416015625,-0.28586310148239136,-0.39177563786506653,0.16448873281478882
1738005706763485000,5.35448486328125,-0.3391430974006653,-0.2966725528240204,0.26506516337394714
1738005706773554200,5.36455419921875,-0.3709825575351715,-0.18023191392421722,0.35167714953422546
1738005706783623000,5.374622802734375,-0.37717175483703613,-0.08366410434246063,0.4123479425907135
1738005706793691100,5.384691162109375,-0.3718216121196747,-0.031732067465782166,0.43249356746673584
1738005706803760000,5.394760009765625,-0.352713942527771,-0.012165555730462074,0.4093610644340515
1738005706813829000,5.4048291015625,-0.3372167646884918,0.008180728182196617,0.3612348139286041
1738005706823898000,5.414898193359375,-0.31492024660110474,0.0166903268545866,0.30278536677360535
1738005706833966800,5.424966796875,-0.28316056728363037,0.011897275224328041,0.24429228901863098
1738005706844036000,5.4350361328125,-0.2526721656322479,0.0038710408844053745,0.17841340601444244
1738005706854104000,5.44510400390625,-0.21748681366443634,0.027042198926210403,0.12480711936950684
1738005706864173000,5.455173095703125,-0.1979815512895584,0.05131691321730614,0.089755117893219
1738005706874242000,5.465241943359375,-0.18558908998966217,0.061463091522455215,0.0749073177576065
1738005706884311000,5.47531103515625,-0.18314804136753082,0.039020102471113205,0.07681787014007568
1738005706894380000,5.485380126953125,-0.18849621713161469,-0.0054030148312449455,0.06224255636334419
1738005706904449000,5.495448974609375,-0.20957593619823456,-0.06022178754210472,0.040903445333242416
1738005706914517200,5.505517333984375,-0.23824912309646606,-0.09913723170757294,0.027012398466467857
1738005706924586000,5.5155859375,-0.27439168095588684,-0.13723509013652802,0.030723247677087784
1738005706934655000,5.525655029296875,-0.30911785364151,-0.17399641871452332,0.059995584189891815
1738005706944724000,5.535723876953125,-0.34142494201660156,-0.20555220544338226,0.11536882817745209
1738005706954793000,5.54579296875,-0.3613245189189911,-0.23602738976478577,0.19409038126468658
1738005706964862200,5.5558623046875,-0.36997392773628235,-0.25896865129470825,0.27105411887168884
1738005706974931000,5.565930908203125,-0.3714785575866699,-0.2585710883140564,0.32727956771850586
1738005706984999200,5.575999267578125,-0.36547791957855225,-0.2020939737558365,0.3329819142818451
1738005706995068200,5.586068115234375,-0.35198861360549927,-0.08864746242761612,0.2854975163936615
1738005707005137000,5.596136962890625,-0.34164249897003174,0.023295052349567413,0.18809854984283447
1738005707015206100,5.6062060546875,-0.3447636067867279,0.09795882552862167,0.07259546965360641
1738005707025275000,5.61627490234375,-0.34850776195526123,0.11689736694097519,-0.036964576691389084
1738005707035343000,5.626343017578125,-0.3609643280506134,0.09822531789541245,-0.11110414564609528
1738005707045412000,5.636412109375,-0.3645082116127014,0.04680873453617096,-0.1407856047153473
1738005707055480800,5.646480712890625,-0.3617449998855591,0.008449174463748932,-0.12924541532993317
1738005707065550000,5.656550048828125,-0.36353811621665955,0.01102817989885807,-0.11649499833583832
1738005707075619000,5.666619140625,-0.36879369616508484,0.039446040987968445,-0.12277178466320038
1738005707085688000,5.67668798828125,-0.38184237480163574,0.057076431810855865,-0.15420614182949066
1738005707095757000,5.686757080078125,-0.40545833110809326,0.047666825354099274,-0.2040015310049057
1738005707105825000,5.696824951171875,-0.4342542886734009,0.024843532592058182,-0.24091985821723938
1738005707115894000,5.70689404296875,-0.4661209285259247,-0.006821429822593927,-0.2530766725540161
1738005707125963000,5.716962890625,-0.4913248121738434,-0.039219051599502563,-0.2361011654138565
1738005707136032000,5.727031982421875,-0.516559898853302,-0.07159610092639923,-0.1938697099685669
1738005707146101000,5.73710107421875,-0.5335705876350403,-0.08537209779024124,-0.14074602723121643
1738005707156170200,5.747170166015625,-0.5437663197517395,-0.07803389430046082,-0.08773824572563171
1738005707166238000,5.757238037109375,-0.5514642000198364,-0.055002082139253616,-0.03588835895061493
1738005707176307000,5.767306884765625,-0.5585298538208008,-0.043143853545188904,0.008704699575901031
1738005707186376200,5.777376220703125,-0.571146547794342,-0.024874035269021988,0.05039675161242485
1738005707196445000,5.78744482421875,-0.5728170275688171,-0.0010412270203232765,0.09146953374147415
1738005707206514200,5.79751416015625,-0.5686353445053101,-0.005168328061699867,0.12437981367111206
1738005707216583000,5.8075830078125,-0.5822128653526306,-0.011754963546991348,0.1501726359128952
1738005707226651000,5.81765087890625,-0.6136085987091064,-0.03713595122098923,0.1643659472465515
1738005707236720000,5.82772021484375,-0.6664409637451172,-0.06191101297736168,0.1608823835849762
1738005707246788900,5.837788818359375,-0.7193332314491272,-0.08424481004476547,0.13903087377548218
1738005707256858000,5.847858154296875,-0.7950735688209534,-0.12589450180530548,0.12082858383655548
1738005707266927000,5.857927001953125,-0.9001840353012085,-0.18098491430282593,0.09404437243938446
1738005707276996000,5.86799609375,-1.0191642045974731,-0.26979172229766846,0.05475582182407379
1738005707287064000,5.87806396484375,-1.150388240814209,-0.3821534216403961,-0.0015804218128323555
1738005707297133000,5.888133056640625,-1.3059147596359253,-0.5017242431640625,-0.06723817437887192
1738005707307202000,5.8982021484375,-1.483242154121399,-0.620345950126648,-0.11898339539766312
1738005707317271000,5.90827099609375,-1.662252426147461,-0.7347880601882935,-0.15624254941940308
1738005707327340000,5.918340087890625,-1.8237651586532593,-0.8027474284172058,-0.18085548281669617
1738005707337409000,5.928408935546875,-1.9547747373580933,-0.8062620759010315,-0.16557806730270386
1738005707347477000,5.93847705078125,-2.0675647258758545,-0.8001837134361267,-0.11585099250078201
1738005707357546000,5.9485458984375,-2.164396047592163,-0.7226279973983765,-0.05023493245244026
1738005707367615000,5.958614990234375,-2.262120008468628,-0.6034278273582458,0.002010693773627281
1738005707377684200,5.968684326171875,-2.342074155807495,-0.5001518130302429,0.006659437902271748
1738005707387753000,5.9787529296875,-2.413520336151123,-0.4050373136997223,-0.038930151611566544
1738005707397822200,5.988822265625,-2.4887096881866455,-0.3159742057323456,-0.1092928871512413
1738005707407890200,5.99889013671875,-2.5650618076324463,-0.3070925772190094,-0.17190539836883545
1738005707417959000,6.008958984375,-2.649024486541748,-0.3276117444038391,-0.19399431347846985
1738005707428028200,6.019028076171875,-2.7212984561920166,-0.3805710971355438,-0.1814311146736145
1738005707438097000,6.029096923828125,-2.789716958999634,-0.43887078762054443,-0.12340234220027924
1738005707448166100,6.039166259765625,-2.844306707382202,-0.4566473960876465,-0.056718915700912476
1738005707458235100,6.049235107421875,-2.900798797607422,-0.44793200492858887,0.007490584161132574
1738005707468302800,6.059302734375,-2.9580607414245605,-0.4195815920829773,0.05273449420928955
1738005707478372000,6.0693720703125,-3.008957624435425,-0.38625267148017883,0.07207933068275452
1738005707488441000,6.079441162109375,-3.0531527996063232,-0.3590964078903198,0.06762652844190598
1738005707498510000,6.089510009765625,-3.0909645557403564,-0.34007498621940613,0.05640098452568054
1738005707508579000,6.0995791015625,-3.113241195678711,-0.32494422793388367,0.044507306069135666
1738005707518648000,6.10964794921875,-3.118868827819824,-0.28159046173095703,0.04703559726476669
1738005707528716000,6.119716064453125,-3.0932888984680176,-0.20265647768974304,0.07685234397649765
1738005707538785000,6.129784912109375,-3.04628586769104,-0.08325307071208954,0.1377415657043457
1738005707548854000,6.13985400390625,-2.9943594932556152,0.04585324972867966,0.21398094296455383
1738005707558926800,6.1499267578125,-2.9384756088256836,0.16079236567020416,0.2711596190929413
1738005707568995800,6.159995849609375,-2.888927698135376,0.2082054167985916,0.31136536598205566
1738005707579064800,6.17006494140625,-2.85227108001709,0.17793726921081543,0.31752365827560425
1738005707589132800,6.1801328125,-2.7933528423309326,0.06017734482884407,0.2925274968147278
1738005707599201800,6.190201904296875,-2.7288782596588135,-0.07535679638385773,0.2524138391017914
1738005707609270800,6.200270751953125,-2.682077169418335,-0.18608278036117554,0.19225355982780457
1738005707619339800,6.21033984375,-2.637927532196045,-0.28664377331733704,0.10500336438417435
1738005707629408800,6.22040869140625,-2.5911338329315186,-0.38126933574676514,0.026088306680321693
1738005707639476700,6.230476806640625,-2.541006088256836,-0.4303179383277893,-0.02373846061527729
1738005707649545700,6.240545654296875,-2.488107919692993,-0.4343595504760742,-0.038868144154548645
1738005707659614700,6.25061474609375,-2.434530019760132,-0.3800720274448395,-0.016078997403383255
1738005707669683700,6.26068359375,-2.37921142578125,-0.31794607639312744,0.03839942440390587
1738005707679752700,6.270752685546875,-2.33027982711792,-0.2922545373439789,0.09271156787872314
1738005707689821700,6.28082177734375,-2.292653799057007,-0.28802329301834106,0.13033297657966614
1738005707699889700,6.2908896484375,-2.2578227519989014,-0.31363770365715027,0.1365058571100235
1738005707709959000,6.300958984375,-2.2334537506103516,-0.36597469449043274,0.11016586422920227
1738005707720027600,6.311027587890625,-2.2095634937286377,-0.42584773898124695,0.062499336898326874
1738005707730097000,6.321096923828125,-2.193943500518799,-0.4599551260471344,-0.0062176743522286415
1738005707740165600,6.33116552734375,-2.181427240371704,-0.47182637453079224,-0.06861772388219833
1738005707750235000,6.34123486328125,-2.165179967880249,-0.461717814207077,-0.0953364148736
1738005707760302800,6.351302734375,-2.143425226211548,-0.4472081661224365,-0.06971898674964905
1738005707770371600,6.36137158203125,-2.1190872192382812,-0.43394243717193604,-0.0021620430052280426
1738005707780440800,6.37144091796875,-2.0718812942504883,-0.4129631519317627,0.09154796600341797
1738005707790509800,6.381509765625,-2.002523899078369,-0.36218199133872986,0.17888100445270538
1738005707800578800,6.391578857421875,-1.9091705083847046,-0.2925390899181366,0.2454683929681778
1738005707810647800,6.401647705078125,-1.8184640407562256,-0.19660642743110657,0.25619667768478394
1738005707820715800,6.4117158203125,-1.7300297021865845,-0.09945525974035263,0.20878943800926208
1738005707830784800,6.42178466796875,-1.6476918458938599,-0.0440220944583416,0.09955615550279617
1738005707840853800,6.431853759765625,-1.560939908027649,-0.036090187728405,-0.03703209012746811
1738005707850922800,6.4419228515625,-1.4815593957901,-0.06672213226556778,-0.16624146699905396
1738005707860991700,6.45199169921875,-1.4192537069320679,-0.12480322271585464,-0.26619234681129456
1738005707871060700,6.462060791015625,-1.3670176267623901,-0.19375166296958923,-0.3179735243320465
1738005707881128700,6.472128662109375,-1.3276749849319458,-0.27306491136550903,-0.2943452298641205
1738005707891197700,6.48219775390625,-1.2983953952789307,-0.3435630202293396,-0.20204776525497437
1738005707901266700,6.4922666015625,-1.262454628944397,-0.36917123198509216,-0.05971866473555565
1738005707911335700,6.502335693359375,-1.2136019468307495,-0.36650779843330383,0.09484800696372986
1738005707921405000,6.512405029296875,-1.1687504053115845,-0.31919798254966736,0.2290356308221817
1738005707931473700,6.5224736328125,-1.1267821788787842,-0.24750779569149017,0.31651541590690613
1738005707941541600,6.532541748046875,-1.0929919481277466,-0.1818431168794632,0.330495685338974
1738005707951611000,6.54261083984375,-1.0676908493041992,-0.13575977087020874,0.2878028154373169
1738005707961679600,6.5526796875,-1.0483309030532837,-0.09725884348154068,0.20435214042663574
1738005707971748900,6.562748779296875,-1.033827304840088,-0.07388267666101456,0.10430090874433517
1738005707981817600,6.572817626953125,-1.0202226638793945,-0.05983170121908188,0.010411565192043781
1738005707991886800,6.582886962890625,-1.0012798309326172,-0.03276040405035019,-0.050304513424634933
1738005708001954800,6.592954833984375,-0.9620708227157593,-0.018217014148831367,-0.08033961057662964
1738005708012023800,6.60302392578125,-0.9118736982345581,-0.0065630218014121056,-0.07303988188505173
1738005708022092800,6.6130927734375,-0.8509266972541809,0.015206413343548775,-0.03567418083548546
1738005708032161800,6.623161865234375,-0.7850955128669739,0.046857550740242004,0.01691153272986412
1738005708042230800,6.633230712890625,-0.7246478199958801,0.08338093757629395,0.06055258587002754
1738005708052299800,6.6432998046875,-0.672343373298645,0.09571563452482224,0.08428161591291428
1738005708062367700,6.65336767578125,-0.6194207668304443,0.08241400122642517,0.094414621591568
1738005708072436700,6.663436767578125,-0.5740812420845032,0.0353546068072319,0.08445706218481064
1738005708082505700,6.673505615234375,-0.5387246608734131,-0.021821223199367523,0.07037336379289627
1738005708092574700,6.68357470703125,-0.49979567527770996,-0.061365704983472824,0.06225498393177986
1738005708102643700,6.693643798828125,-0.46580806374549866,-0.07551835477352142,0.07044641673564911
1738005708112713000,6.703712890625,-0.43668800592422485,-0.0669885128736496,0.08277206122875214
1738005708122780700,6.71378076171875,-0.39489832520484924,-0.04971781373023987,0.09708963334560394
1738005708132849700,6.723849609375,-0.3396417498588562,-0.01656678132712841,0.0857941061258316
1738005708142919000,6.7339189453125,-0.27029845118522644,0.07434536516666412,0.07032708823680878
1738005708152987600,6.743987548828125,-0.19830255210399628,0.18238554894924164,0.06461034715175629
1738005708163057000,6.754056884765625,-0.1293274611234665,0.24163022637367249,0.058222852647304535
1738005708173125600,6.764125732421875,-0.0773974135518074,0.25022879242897034,0.05788462981581688
1738005708183193600,6.774193603515625,-0.026354221627116203,0.21885381639003754,0.04730033129453659
1738005708193262800,6.784262939453125,0.013638999313116074,0.14584271609783173,0.02732289396226406
1738005708203331600,6.79433154296875,0.035452719777822495,0.0520874448120594,-0.01413663662970066
1738005708213400800,6.80440087890625,0.04054148867726326,-0.03403625637292862,-0.05406807363033295
1738005708223469800,6.8144697265625,0.040304917842149734,-0.11234910786151886,-0.06675402820110321
1738005708233538800,6.824538818359375,0.03276177868247032,-0.173773854970932,-0.04738432168960571
1738005708243606800,6.834606689453125,0.0353931300342083,-0.20619690418243408,0.008238326758146286
1738005708253675800,6.84467578125,0.03721686452627182,-0.20627813041210175,0.0896487608551979
1738005708263744800,6.854744873046875,0.037893179804086685,-0.16487915813922882,0.1590549647808075
1738005708273813800,6.864813720703125,0.04791225865483284,-0.12226086854934692,0.19463320076465607
1738005708283882800,6.8748828125,0.06223317235708237,-0.08127351850271225,0.19746719300746918
1738005708293951700,6.88495166015625,0.07797511667013168,-0.0320468544960022,0.16232945024967194
1738005708304021000,6.89502099609375,0.09396491199731827,0.0022664451971650124,0.09873637557029724
1738005708314088700,6.905088623046875,0.10989513993263245,0.037278227508068085,0.020578719675540924
1738005708324157700,6.91515771484375,0.12423127889633179,0.07036103308200836,-0.05859886482357979
1738005708334227000,6.92522705078125,0.13450175523757935,0.09140639752149582,-0.11145009100437164
1738005708344295700,6.935295654296875,0.13784775137901306,0.11523556709289551,-0.14222398400306702
1738005708354365000,6.945364990234375,0.14577971398830414,0.1271345615386963,-0.13058437407016754
1738005708364433700,6.95543359375,0.14682048559188843,0.13493362069129944,-0.10987198352813721
1738005708374501600,6.965501708984375,0.14938804507255554,0.1261979192495346,-0.08867428451776505
1738005708384571000,6.97557080078125,0.15204694867134094,0.11035050451755524,-0.07302874326705933
1738005708394639600,6.9856396484375,0.14288300275802612,0.11185972392559052,-0.07318241149187088
1738005708404708900,6.995708984375,0.14190444350242615,0.12386509031057358,-0.08014694601297379
1738005708414777900,7.00577783203125,0.14553698897361755,0.14375463128089905,-0.08673800528049469
1738005708424846800,7.015846923828125,0.1540144383907318,0.16818401217460632,-0.08174522966146469
1738005708434914800,7.025914794921875,0.16409637033939362,0.1823355257511139,-0.06951838731765747
1738005708444983800,7.03598388671875,0.17875395715236664,0.1951441913843155,-0.05488113313913345
1738005708455052800,7.046052734375,0.19410228729248047,0.20666103065013885,-0.03765740990638733
1738005708465121800,7.056121826171875,0.21266824007034302,0.2109401971101761,-0.021904543042182922
1738005708475190800,7.066190673828125,0.23403584957122803,0.2051803171634674,-0.005535425618290901
1738005708485259800,7.076259765625,0.25318723917007446,0.19614361226558685,0.0033477945253252983
1738005708495327700,7.08632763671875,0.27146077156066895,0.19089478254318237,-0.0073069799691438675
1738005708505396700,7.096396728515625,0.2805226743221283,0.179795041680336,-0.019348321482539177
1738005708515465700,7.1064658203125,0.2913433909416199,0.1675998866558075,-0.02483789436519146
1738005708525535000,7.116534912109375,0.305087685585022,0.15059350430965424,-0.03513466566801071
1738005708535603700,7.126603759765625,0.3112289309501648,0.13425900042057037,-0.03397432714700699
1738005708545672700,7.136672607421875,0.3189470171928406,0.12486524134874344,-0.020492002367973328
1738005708555741000,7.146740966796875,0.3330838680267334,0.1328829526901245,0.010291474871337414
1738005708565806600,7.156806640625,0.33895912766456604,0.1055455431342125,0.03529711067676544
1738005708575875600,7.16687548828125,0.34635019302368164,0.1436455249786377,0.06435885280370712
1738005708585944300,7.1769443359375,0.3600541949272156,0.17610955238342285,0.04998479783535004
1738005708596013600,7.187013671875,0.3668268918991089,0.21213333308696747,0.004019169136881828
1738005708606082600,7.19708251953125,0.37996822595596313,0.22026826441287994,-0.06751185655593872
1738005708616150500,7.207150634765625,0.37826088070869446,0.23376169800758362,-0.15036360919475555
1738005708626219500,7.217219482421875,0.3879811763763428,0.22787445783615112,-0.21358299255371094
1738005708636288800,7.227288818359375,0.3951943516731262,0.20938359200954437,-0.23286055028438568
1738005708646357500,7.237357421875,0.40084201097488403,0.18810182809829712,-0.22540202736854553
1738005708656426500,7.247426513671875,0.4017584025859833,0.16949698328971863,-0.1995890736579895
1738005708666495500,7.25749560546875,0.4005694091320038,0.14980921149253845,-0.1496191918849945
1738005708676563500,7.2675634765625,0.4129200875759125,0.17727093398571014,-0.06366594135761261
1738005708686632700,7.2776328125,0.445688396692276,0.19753389060497284,0.04864946007728577
1738005708696701400,7.287701416015625,0.47752541303634644,0.19468271732330322,0.1712547391653061
1738005708706770400,7.2977705078125,0.5250922441482544,0.17381329834461212,0.26481613516807556
1738005708716839400,7.30783935546875,0.5799149870872498,0.16713303327560425,0.30731192231178284
1738005708726908400,7.317908447265625,0.6244723200798035,0.20733529329299927,0.27795785665512085
1738005708736976600,7.3279765625,0.6723796725273132,0.28794413805007935,0.1640685796737671
1738005708747045600,7.338045654296875,0.7399370074272156,0.3421558737754822,-0.027321983128786087
1738005708757114400,7.3481142578125,0.7862011790275574,0.3731617033481598,-0.24992044270038605
1738005708767183600,7.35818359375,0.7573915719985962,0.37089937925338745,-0.42957693338394165
1738005708777252400,7.36825244140625,0.6901894211769104,0.322325736284256,-0.538773775100708
1738005708787321600,7.378321533203125,0.6425498127937317,0.21362441778182983,-0.5711013078689575
1738005708797390300,7.388390380859375,0.5924424529075623,0.0926082581281662,-0.5144926309585571
1738005708807458600,7.39845849609375,0.5267853140830994,0.002690950408577919,-0.3661545217037201
1738005708817527600,7.408527587890625,0.4522205591201782,-0.06581354141235352,-0.1554233729839325
1738005708827596500,7.418596435546875,0.3911011517047882,-0.10835660248994827,0.06430140137672424
1738005708837665500,7.42866552734375,0.3401604890823364,-0.10021931678056717,0.23435808718204498
1738005708847734500,7.438734619140625,0.29785850644111633,-0.019855989143252373,0.33180028200149536
1738005708857803500,7.448803466796875,0.2502198815345764,0.07825726270675659,0.34959232807159424
1738005708867871500,7.45887158203125,0.21370601654052734,0.13275252282619476,0.30961278080940247
1738005708877940500,7.4689404296875,0.17384356260299683,0.13322657346725464,0.2291450947523117
1738005708888009500,7.479009521484375,0.1317150592803955,0.12338931858539581,0.13534729182720184
1738005708898078500,7.489078369140625,0.11497202515602112,0.11429675668478012,0.04151134565472603
1738005708908147500,7.4991474609375,0.11648735404014587,0.08540867269039154,-0.03146691992878914
1738005708918216400,7.509216552734375,0.11536802351474762,0.042890504002571106,-0.07613931596279144
1738005708928284400,7.519284423828125,0.12225286662578583,0.004436797928065062,-0.0927472710609436
1738005708938353700,7.529353759765625,0.13850374519824982,-0.029715046286582947,-0.08112896233797073
1738005708948422400,7.53942236328125,0.15338952839374542,-0.05469181016087532,-0.04314540699124336
1738005708958491600,7.54949169921875,0.15575867891311646,-0.07109874486923218,0.015101655386388302
1738005708968560400,7.559560302734375,0.14907680451869965,-0.06306502223014832,0.09666972607374191
1738005708978629600,7.569629638671875,0.14401227235794067,-0.07013305276632309,0.18093693256378174
1738005708988697600,7.579697509765625,0.13521385192871094,-0.08617422729730606,0.2578376233577728
1738005708998766300,7.589766357421875,0.11466223746538162,-0.09785459190607071,0.3028474748134613
1738005709008835600,7.599835693359375,0.0773492157459259,-0.11660271137952805,0.3018359839916229
1738005709018904300,7.609904296875,0.04341762140393257,-0.1609717756509781,0.24955414235591888
1738005709028973600,7.6199736328125,0.004556681495159864,-0.18940837681293488,0.16322457790374756
1738005709039042600,7.63004248046875,-0.030549906194210052,-0.21337203681468964,0.07271438091993332
1738005709049110500,7.640110595703125,-0.0532379224896431,-0.20881161093711853,-0.0013789506629109383
1738005709059179500,7.650179443359375,-0.07294610887765884,-0.1911119818687439,-0.03795480355620384
1738005709069248500,7.66024853515625,-0.07648152112960815,-0.16910646855831146,-0.038643646985292435
1738005709079317500,7.6703173828125,-0.0672941505908966,-0.14406582713127136,0.001604970544576645
1738005709089386500,7.680386474609375,-0.058708373457193375,-0.111020028591156,0.060162484645843506
1738005709099455500,7.69045556640625,-0.04850447177886963,-0.09414330869913101,0.11968173831701279
1738005709109523500,7.7005234375,-0.0386505089700222,-0.050602756440639496,0.1559678316116333
1738005709119592400,7.710592529296875,-0.03773331642150879,-0.015528391115367413,0.1858290582895279
1738005709129661400,7.720661376953125,-0.0439252033829689,-0.004905250854790211,0.19084081053733826
1738005709139730400,7.73073046875,-0.046289291232824326,-0.011889390647411346,0.18603594601154327
1738005709149799700,7.740799560546875,-0.04367866739630699,-0.04759993776679039,0.18120013177394867
1738005709159868400,7.750868408203125,-0.04509786516427994,-0.07027808576822281,0.18290454149246216
1738005709169937700,7.760937744140625,-0.04973943531513214,-0.04428166523575783,0.20596659183502197
1738005709180005600,7.771005615234375,-0.049814000725746155,-0.022245340049266815,0.24760857224464417
1738005709190074400,7.781074462890625,-0.0443924218416214,-0.02102048695087433,0.2917669713497162
1738005709200143600,7.7911435546875,-0.04691976308822632,-0.020258022472262383,0.3027908504009247
1738005709210212400,7.80121240234375,-0.059244055300951004,-0.029880043119192123,0.27049943804740906
1738005709220281600,7.811281494140625,-0.057022448629140854,-0.05694308504462242,0.20322878658771515
1738005709230350600,7.8213505859375,-0.04033862426877022,-0.020006559789180756,0.1013292446732521
1738005709240418600,7.83141845703125,-0.022189976647496223,0.017415113747119904,-0.040744006633758545
1738005709250487600,7.841487548828125,-0.012406129390001297,0.00153339933604002,-0.2642402648925781
1738005709260556500,7.851556640625,-0.043554991483688354,-0.08758848905563354,-0.5895299315452576
1738005709270625500,7.86162548828125,-0.08571041375398636,-0.18282552063465118,-0.9070153832435608
1738005709280694500,7.871694580078125,-0.1162044107913971,-0.31102874875068665,-1.1330714225769043
1738005709290763500,7.881763427734375,-0.1127854436635971,-0.41318896412849426,-1.2221258878707886
1738005709300831500,7.89183154296875,-0.07321885973215103,-0.45950213074684143,-1.1522411108016968
1738005709310900500,7.901900390625,-0.02497394196689129,-0.46917009353637695,-0.9325565099716187
1738005709320969500,7.911969482421875,0.011266620829701424,-0.447426438331604,-0.623123824596405
1738005709331038500,7.92203857421875,0.027946775779128075,-0.417319118976593,-0.3242497742176056
1738005709341107700,7.932107666015625,0.01799134910106659,-0.3922978937625885,-0.08485821634531021
1738005709351176400,7.942176513671875,-0.008487137965857983,-0.38060715794563293,0.08356817066669464
1738005709361244400,7.952244384765625,-0.04693838953971863,-0.3774201571941376,0.20462988317012787
1738005709371313700,7.962313720703125,-0.07950086146593094,-0.39345264434814453,0.2748020589351654
1738005709381382400,7.97238232421875,-0.11519654095172882,-0.3517875075340271,0.29680347442626953
1738005709391451600,7.98245166015625,-0.14611102640628815,-0.2525373697280884,0.2996993362903595
1738005709401520400,7.992520263671875,-0.18799243867397308,-0.1347566843032837,0.2997105121612549
1738005709411589600,8.002589599609376,-0.23184001445770264,-0.01913662813603878,0.2968849241733551
1738005709421657600,8.01265771484375,-0.27219250798225403,0.08058997243642807,0.2991483509540558
1738005709431726300,8.022726318359375,-0.30585721135139465,0.130697563290596,0.31143614649772644
1738005709441795600,8.032795654296875,-0.3415065407752991,0.1344377100467682,0.32981806993484497
1738005709451864600,8.042864501953124,-0.3870278596878052,0.13060827553272247,0.3265278935432434
1738005709461933600,8.05293359375,-0.40094447135925293,0.12102674692869186,0.3249760866165161
1738005709472002600,8.06300244140625,-0.414992094039917,0.138154536485672,0.3363299071788788
1738005709482071600,8.073071533203125,-0.4027775228023529,0.10757879167795181,0.35420212149620056
1738005709492139500,8.083139404296874,-0.3813376724720001,0.12284369766712189,0.3405490219593048
1738005709502208500,8.09320849609375,-0.34564945101737976,0.15324580669403076,0.3220616281032562
1738005709512277500,8.103277587890625,-0.3032325506210327,0.18925181031227112,0.30221402645111084
1738005709522346500,8.113346435546875,-0.2548879086971283,0.23446190357208252,0.30295222997665405
1738005709532415700,8.123415771484375,-0.2112659364938736,0.28400182723999023,0.31660404801368713
1738005709542484500,8.133484375,-0.17366422712802887,0.30765682458877563,0.34628817439079285
1738005709552552400,8.143552490234375,-0.14825531840324402,0.3067415654659271,0.39100730419158936
1738005709562621000,8.153620849609375,-0.12541604042053223,0.2885785400867462,0.4460018575191498
1738005709572690000,8.16368994140625,-0.10375384986400604,0.24633033573627472,0.5037860870361328
1738005709582759000,8.173759033203124,-0.08772934228181839,0.18514369428157806,0.5448943972587585
1738005709592828200,8.183828125,-0.07797986268997192,0.12829221785068512,0.5541092157363892
1738005709602897000,8.19389697265625,-0.08455148339271545,0.0722167044878006,0.5164372324943542
1738005709612964900,8.20396484375,-0.10055713355541229,0.04784269630908966,0.4436700940132141
1738005709623034000,8.2140341796875,-0.11528201401233673,0.037284061312675476,0.321588933467865
1738005709633102800,8.224102783203126,-0.13591830432415009,0.002040585968643427,0.15605349838733673
1738005709643172000,8.234172119140625,-0.1657678186893463,-0.03923628106713295,-0.02048346772789955
1738005709653240800,8.24424072265625,-0.2068171352148056,-0.07578165084123611,-0.1802154779434204
1738005709663310000,8.25431005859375,-0.25784623622894287,-0.09956607967615128,-0.28788307309150696
1738005709673379000,8.264379150390624,-0.29372063279151917,-0.10247263312339783,-0.3436802327632904
1738005709683446800,8.27444677734375,-0.31200268864631653,-0.16043153405189514,-0.3380947709083557
1738005709693516000,8.28451611328125,-0.33804938197135925,-0.17850887775421143,-0.21914345026016235
1738005709703585000,8.2945849609375,-0.3370829224586487,-0.18706375360488892,-0.019918225705623627
1738005709713654000,8.304654052734374,-0.3110334277153015,-0.1514808088541031,0.19820448756217957
1738005709723723000,8.314722900390626,-0.27313798666000366,-0.057841937988996506,0.35419464111328125
1738005709733791700,8.324791748046875,-0.22926482558250427,0.05615018308162689,0.4035809636116028
1738005709743860000,8.33485986328125,-0.19611752033233643,0.1675824373960495,0.3535305857658386
1738005709753929000,8.344928955078124,-0.17175014317035675,0.223125621676445,0.23512011766433716
1738005709763998000,8.354998046875,-0.14234139025211334,0.23911337554454803,0.09484130889177322
1738005709774067000,8.36506689453125,-0.11364913731813431,0.23672568798065186,-0.026034818962216377
1738005709784136000,8.375135986328125,-0.09150522202253342,0.2170446664094925,-0.09087160229682922
1738005709794205000,8.385204833984375,-0.060461245477199554,0.17920507490634918,-0.10493011772632599
1738005709804273000,8.39527294921875,-0.027253491804003716,0.14372645318508148,-0.08593858778476715
1738005709814342100,8.405342041015626,-0.002731510903686285,0.09791623055934906,-0.056438177824020386
1738005709824411000,8.415410888671875,0.017758317291736603,0.08332423865795135,-0.04539138823747635
1738005709834480000,8.425480224609375,0.03933527320623398,0.07314324378967285,-0.05764874815940857
1738005709844548900,8.435548828125,0.06145016476511955,0.07124254107475281,-0.08050639182329178
1738005709854617900,8.445617919921874,0.08287551254034042,0.09570957720279694,-0.10890230536460876
1738005709864686800,8.455686767578126,0.11217480897903442,0.11297377943992615,-0.11971475183963776
1738005709874754800,8.4657548828125,0.14471963047981262,0.13459791243076324,-0.11575290560722351
1738005709884824000,8.475823974609375,0.17884723842144012,0.15487602353096008,-0.10579907894134521
1738005709894893000,8.48589306640625,0.21674548089504242,0.18652944266796112,-0.09225839376449585
1738005709904961800,8.4959619140625,0.25593867897987366,0.20860731601715088,-0.07637396454811096
1738005709915031000,8.506031005859375,0.2893940508365631,0.1992431879043579,-0.06524902582168579
1738005709925099800,8.516099853515625,0.3098604381084442,0.1736781746149063,-0.0680227130651474
1738005709935168000,8.52616796875,0.32373926043510437,0.1266470104455948,-0.08813410252332687
1738005709945237000,8.536237060546876,0.3368888795375824,0.07189081609249115,-0.12437492609024048
1738005709955306000,8.546305908203125,0.3549802899360657,0.027854073792696,-0.15268144011497498
1738005709965375000,8.556375,0.3695831894874573,0.02659466490149498,-0.1677088588476181
1738005709975444000,8.56644384765625,0.37806257605552673,0.06288516521453857,-0.1700899600982666
1738005709985513000,8.576512939453124,0.3941558003425598,0.11809409409761429,-0.1555376499891281
1738005709995581000,8.586580810546875,0.4063444435596466,0.16578209400177002,-0.13172776997089386
1738005710005650000,8.59664990234375,0.40798014402389526,0.20486611127853394,-0.10770765691995621
1738005710015719000,8.606718994140625,0.4099385142326355,0.2053554803133011,-0.08524562418460846
1738005710025788000,8.616787841796874,0.4073065221309662,0.1837974488735199,-0.08696016669273376
1738005710035857000,8.62685693359375,0.38929083943367004,0.1269465982913971,-0.1051616370677948
1738005710045926000,8.63692578125,0.37157174944877625,0.08493629097938538,-0.12599501013755798
1738005710055995000,8.646994873046875,0.3595335781574249,0.05675619840621948,-0.1311432272195816
1738005710066062800,8.657062744140624,0.3563297986984253,0.061581581830978394,-0.10810848325490952
1738005710076132000,8.667132080078124,0.35733991861343384,0.1053982824087143,-0.07786143571138382
1738005710086200800,8.677200927734376,0.3687361180782318,0.17262151837348938,-0.03955000266432762
1738005710096269800,8.687269775390625,0.37203991413116455,0.25339755415916443,-0.003227061592042446
1738005710106339000,8.697339111328125,0.370622843503952,0.3024580180644989,0.02970532327890396
1738005710116407800,8.70740771484375,0.3562396764755249,0.3335820138454437,0.05683538317680359
1738005710126476000,8.71747607421875,0.3426458537578583,0.3553890287876129,0.06683049350976944
1738005710136545000,8.727544921875,0.34577298164367676,0.3768616020679474,0.07128925621509552
1738005710146613800,8.73761376953125,0.3607657551765442,0.38132745027542114,0.059705305844545364
1738005710156683000,8.74768310546875,0.35487836599349976,0.3658544421195984,0.0418885201215744
1738005710166751700,8.757751708984374,0.34300732612609863,0.27894163131713867,-0.026798397302627563
1738005710176821000,8.767821044921876,0.3378943204879761,0.07476397603750229,-0.21239876747131348
1738005710186889000,8.777888916015625,0.3435482382774353,-0.13330000638961792,-0.5668843984603882
1738005710196958000,8.7879580078125,0.34694501757621765,-0.1997426301240921,-0.9793347120285034
1738005710207027000,8.79802685546875,0.33153918385505676,-0.18747743964195251,-1.3258309364318848
1738005710217096000,8.808095947265626,0.3115653693675995,-0.2281736433506012,-1.4890620708465576
1738005710227165000,8.8181650390625,0.23479361832141876,-0.39461374282836914,-1.41066575050354
1738005710237234000,8.82823388671875,0.15644411742687225,-0.5936859846115112,-1.13606595993042
1738005710247303000,8.838302978515625,0.09206699579954147,-0.68366938829422,-0.7694658637046814
1738005710257371000,8.848370849609376,0.018719196319580078,-0.6048687696456909,-0.4015674293041229
1738005710267439900,8.85843994140625,-0.08405565470457077,-0.39050963521003723,-0.09018079191446304
1738005710277508900,8.8685087890625,-0.19507750868797302,-0.09711343050003052,0.18386276066303253
1738005710287577900,8.878577880859375,-0.3151208460330963,0.12535372376441956,0.4294312298297882
1738005710297647000,8.888647216796874,-0.43937405943870544,0.21748657524585724,0.6627079248428345
1738005710307715800,8.8987158203125,-0.558483898639679,0.22586274147033691,0.8794522285461426
1738005710317783800,8.90878369140625,-0.6573391556739807,0.17685849964618683,1.0410994291305542
1738005710327853000,8.91885302734375,-0.7114948034286499,0.18079625070095062,1.1098816394805908
1738005710337921800,8.928921875,-0.7326672077178955,0.2007392793893814,1.0507529973983765
1738005710347991000,8.938990966796876,-0.7079429030418396,0.22690856456756592,0.8881375193595886
1738005710358059800,8.949059814453125,-0.6414687037467957,0.26569095253944397,0.6484521627426147
1738005710368129000,8.95912890625,-0.5399444699287415,0.30693933367729187,0.3756081461906433
1738005710378197000,8.969197021484375,-0.38984090089797974,0.2425834685564041,0.1353471875190735
1738005710388265700,8.979265625,-0.18784388899803162,0.22158443927764893,-0.08362191170454025
1738005710398335000,8.9893349609375,0.015635306015610695,0.2608664929866791,-0.2612447142601013
1738005710408404000,8.999404052734375,0.2116657942533493,0.2787903845310211,-0.3993072509765625
1738005710418473000,9.009472900390625,0.37211886048316956,0.2941029965877533,-0.4741312265396118
1738005710428542000,9.0195419921875,0.47685033082962036,0.2868272662162781,-0.47724658250808716
1738005710438611000,9.02961083984375,0.5421445369720459,0.2685948312282562,-0.41484102606773376
1738005710448679000,9.039678955078125,0.5560640692710876,0.18462803959846497,-0.32401445508003235
1738005710458748000,9.049747802734375,0.4950411915779114,0.06748595088720322,-0.2266007363796234
1738005710468817000,9.05981689453125,0.3860451877117157,-0.09018942713737488,-0.12840598821640015
1738005710478886000,9.069885986328124,0.24890798330307007,-0.2862333357334137,-0.051106665283441544
1738005710488955100,9.079955078125,0.10801184177398682,-0.4857238233089447,0.00762242591008544
1738005710499024000,9.09002392578125,-0.021832197904586792,-0.6216858625411987,0.06232472136616707
1738005710509091800,9.100091796875,-0.11997341364622116,-0.6754627823829651,0.11372373253107071
1738005710519161000,9.1101611328125,-0.19634509086608887,-0.6515519618988037,0.14874869585037231
1738005710529229800,9.120229736328126,-0.2531700134277344,-0.5778816938400269,0.16159898042678833
1738005710539299000,9.130299072265625,-0.28177160024642944,-0.5206112265586853,0.15898211300373077
1738005710549367800,9.140367919921875,-0.26434147357940674,-0.423953115940094,0.1472165435552597
1738005710559437000,9.15043701171875,-0.22102010250091553,-0.29501086473464966,0.11556753516197205
1738005710569509000,9.160509033203125,-0.1475118100643158,-0.15852703154087067,0.07647418975830078
1738005710579577900,9.170577880859375,-0.052571915090084076,-0.031275395303964615,0.03676768019795418
1738005710589647000,9.180647216796874,0.04384863004088402,0.08952345699071884,0.007113914005458355
1738005710599715800,9.1907158203125,0.13211621344089508,0.18409384787082672,-0.020823124796152115
1738005710609785000,9.20078515625,0.20539255440235138,0.24664351344108582,-0.03470911458134651
1738005710619854000,9.21085400390625,0.25747576355934143,0.2640014886856079,-0.01681916043162346
1738005710629921800,9.220921875,0.29077112674713135,0.24185089766979218,0.028088927268981934
1738005710639991000,9.230990966796876,0.3123822510242462,0.2037571668624878,0.0801297277212143
1738005710650060000,9.24106005859375,0.31175267696380615,0.17285917699337006,0.1300184577703476
1738005710660129000,9.25112890625,0.3031442165374756,0.16012907028198242,0.15422900021076202
1738005710670198000,9.261197998046875,0.2726054787635803,0.12438810616731644,0.155256986618042
1738005710680267000,9.27126708984375,0.23252813518047333,0.0987333431839943,0.13665463030338287
1738005710690335000,9.2813349609375,0.18904909491539001,0.06320144981145859,0.09906544536352158
1738005710700404000,9.291404052734375,0.1439478099346161,0.030073462054133415,0.05005728825926781
1738005710710473000,9.301472900390625,0.10451997071504593,-0.006807856727391481,-0.005828347988426685
1738005710720542000,9.3115419921875,0.0723460242152214,-0.05216838791966438,-0.06355638056993484
1738005710730611200,9.321611083984376,0.049534451216459274,-0.09648072719573975,-0.10414855182170868
1738005710740680000,9.331679931640625,0.042970649898052216,-0.13054531812667847,-0.11936717480421066
1738005710750748000,9.341747802734375,0.044822078198194504,-0.15369725227355957,-0.12143325060606003
1738005710760817200,9.351817138671874,0.053194042295217514,-0.14613524079322815,-0.11522334814071655
1738005710770886000,9.361885986328126,0.05401003360748291,-0.13863392174243927,-0.10214696079492569
1738005710780955100,9.371955078125,0.06341192126274109,-0.14247621595859528,-0.09041514247655869
1738005710791023900,9.38202392578125,0.07330317050218582,-0.11092627793550491,-0.08725263923406601
1738005710801093000,9.392093017578125,0.08568363636732101,-0.0759703665971756,-0.06659481674432755
1738005710811161000,9.4021611328125,0.09515037387609482,-0.05413378030061722,-0.02900722250342369
1738005710821229800,9.412229736328126,0.09098255634307861,-0.02639804594218731,0.01957099325954914
1738005710831299000,9.422299072265625,0.0890701413154602,-0.004814722575247288,0.06179328262805939
1738005710841368000,9.4323681640625,0.08542162925004959,-0.0012306589633226395,0.08588016778230667
1738005710851437000,9.44243701171875,0.07154016196727753,0.0015502138994634151,0.07529517263174057
1738005710861506000,9.452506103515624,0.04773533344268799,0.005535814445465803,0.05087362974882126
1738005710871575000,9.462574951171876,0.017383817583322525,-0.014915399253368378,0.02452990412712097
1738005710881643000,9.47264306640625,-0.010827895253896713,-0.04159623384475708,0.006495287641882896
1738005710891712000,9.4827119140625,-0.038511719554662704,-0.057044968008995056,-0.005963245406746864
1738005710901781000,9.492781005859374,-0.06972488015890121,-0.06210539862513542,-0.01769031584262848
1738005710911850000,9.50285009765625,-0.09889741241931915,-0.059721603989601135,-0.01979687437415123
1738005710921919200,9.512919189453125,-0.12271484732627869,-0.053883977234363556,0.0020835837349295616
1738005710931988000,9.522988037109375,-0.14469550549983978,-0.04197165369987488,0.04700658470392227
1738005710942056000,9.533055908203124,-0.16534246504306793,-0.020904984325170517,0.09584203362464905
1738005710952125200,9.543125244140626,-0.19164757430553436,0.007695499807596207,0.13230577111244202
1738005710962194000,9.55319384765625,-0.21114426851272583,0.02728409133851528,0.15614214539527893
1738005710972263200,9.56326318359375,-0.22520044445991516,0.037349242717027664,0.1554553210735321
1738005710982332000,9.573331787109375,-0.243504136800766,0.024795429781079292,0.15191635489463806
1738005710992401200,9.583401123046874,-0.2558601498603821,0.06428398191928864,0.12668290734291077
1738005711002469000,9.59346923828125,-0.2594212293624878,0.09856677055358887,0.0929841548204422
1738005711012537900,9.603537841796875,-0.26429855823516846,0.09869753569364548,0.06055750325322151
1738005711022607000,9.613607177734375,-0.28166478872299194,0.1023349016904831,0.03839341551065445
1738005711032676000,9.623676025390624,-0.32524368166923523,0.07622820138931274,0.036021336913108826
1738005711042745000,9.6337451171875,-0.37201225757598877,0.0013598166406154633,0.05998632684350014
1738005711052814000,9.64381396484375,-0.40976443886756897,-0.11865446716547012,0.12462817132472992
1738005711062882000,9.653882080078125,-0.43563559651374817,-0.2871706485748291,0.20067264139652252
1738005711072951000,9.663950927734374,-0.452129602432251,-0.3840399384498596,0.2589993178844452
1738005711083020000,9.67402001953125,-0.443744421005249,-0.3431374430656433,0.2933199405670166
1738005711093089000,9.684089111328126,-0.4238356947898865,-0.2608073949813843,0.2619841396808624
1738005711103158000,9.694157958984375,-0.3999941051006317,-0.15333041548728943,0.1458645612001419
1738005711113227000,9.70422705078125,-0.33159589767456055,-0.025825979188084602,-0.07671978324651718
1738005711123295000,9.714294921875,-0.24464748799800873,0.15376117825508118,-0.4194485545158386
1738005711133364000,9.724364013671876,-0.21124930679798126,0.3911702632904053,-0.8127012848854065
1738005711143433200,9.73443310546875,-0.2267274111509323,0.5220897793769836,-1.148675799369812
1738005711153502000,9.744501953125,-0.2320265769958496,0.4853655695915222,-1.3446491956710815
1738005711163571200,9.7545712890625,-0.19611363112926483,0.3724159002304077,-1.3726661205291748
1738005711173639200,9.76463916015625,-0.1369491070508957,0.2312885969877243,-1.2657450437545776
1738005711183708000,9.7747080078125,-0.0860152542591095,0.1014561653137207,-1.0702182054519653
1738005711193777200,9.784777099609375,-0.020965948700904846,-0.00728070130571723,-0.8339073657989502
1738005711203846000,9.794845947265625,0.039065297693014145,-0.07311734557151794,-0.5679617524147034
1738005711213915100,9.8049150390625,0.07205680757761002,-0.09476485103368759,-0.27654507756233215
1738005711223984000,9.814984130859376,0.08466743677854538,-0.08562144637107849,0.003497776575386524
1738005711234051800,9.8250517578125,0.07619965076446533,-0.06658224016427994,0.2227073609828949
1738005711244121000,9.83512109375,0.05255508050322533,-0.0426391176879406,0.36505067348480225
1738005711254190000,9.845190185546874,-0.0004559410735964775,-0.04995029419660568,0.42186257243156433
1738005711264259000,9.855259033203126,-0.0786137804389,-0.08672170341014862,0.38135358691215515
1738005711274328000,9.865328125,-0.18659564852714539,-0.15180030465126038,0.2541538178920746
1738005711284397000,9.87539697265625,-0.30105850100517273,-0.223141148686409,0.1037774309515953
1738005711294465000,9.885465087890625,-0.40315452218055725,-0.29693174362182617,-0.01450953260064125
1738005711304534000,9.895533935546876,-0.4823874533176422,-0.34740111231803894,-0.06857988238334656
1738005711314603000,9.90560302734375,-0.5373108983039856,-0.33431780338287354,-0.040044110268354416
1738005711324672000,9.915672119140625,-0.5666484832763672,-0.2751685678958893,0.06402857601642609
1738005711334741000,9.925740966796875,-0.569648027420044,-0.19336289167404175,0.20284850895404816
1738005711344810000,9.93581005859375,-0.5515739321708679,-0.07605650275945663,0.3419961929321289
1738005711354878000,9.9458779296875,-0.5166857242584229,0.04719485342502594,0.42803066968917847
1738005711364947200,9.955947265625,-0.48383912444114685,0.12572592496871948,0.43843701481819153
1738005711375016000,9.966015869140625,-0.4517672061920166,0.15251173079013824,0.399171382188797
1738005711385085200,9.976085205078125,-0.4122545123100281,0.1565004140138626,0.3317475914955139
1738005711395154000,9.98615380859375,-0.3680894374847412,0.13357432186603546,0.26782241463661194
1738005711405223200,9.99622314453125,-0.3180278241634369,0.10529524832963943,0.224978506565094
1738005711415291100,10.006291015625,-0.27201583981513977,0.08869283646345139,0.21270079910755157
1738005711425360000,10.01635986328125,-0.22104375064373016,0.08358382433652878,0.22898124158382416
1738005711435429000,10.02642919921875,-0.17340032756328583,0.07002993673086166,0.26355093717575073
1738005711445498000,10.036498046875,-0.13780388236045837,0.05923312157392502,0.2858622670173645
1738005711455567000,10.046567138671875,-0.10514766722917557,0.05334540829062462,0.28148189187049866
1738005711465635000,10.056635009765625,-0.0784355103969574,0.04086596518754959,0.2518557012081146
1738005711475704000,10.0667041015625,-0.061273835599422455,0.0169699527323246,0.20010408759117126
1738005711485773000,10.07677294921875,-0.04458656162023544,-0.009757697582244873,0.1403624564409256
1738005711495842000,10.086842041015625,-0.02879561111330986,-0.025349974632263184,0.09385993331670761
1738005711505911000,10.0969111328125,-0.010252413339912891,-0.039665140211582184,0.058177266269922256
1738005711515980000,10.10697998046875,0.011430511251091957,-0.034922581166028976,0.027370352298021317
1738005711526048000,10.117048095703124,0.03654814884066582,-0.0009904727339744568,0.0009142700582742691
1738005711536117000,10.127116943359376,0.057966891676187515,0.05312043055891991,-0.0010868282988667488
1738005711546186000,10.13718603515625,0.07869291305541992,0.10714692622423172,0.010556947439908981
1738005711556255000,10.1472548828125,0.0985230803489685,0.15818533301353455,0.034466542303562164
1738005711566319900,10.15731982421875,0.1303514540195465,0.19611234962940216,0.05473802983760834
1738005711576389000,10.16738916015625,0.14976909756660461,0.18994925916194916,0.06462527811527252
1738005711586457000,10.17745703125,0.16831743717193604,0.16887570917606354,0.06750322878360748
1738005711596525800,10.18752587890625,0.18614783883094788,0.1398746818304062,0.0751451700925827
1738005711606595000,10.197594970703125,0.2015272080898285,0.10015188157558441,0.07426648586988449
1738005711616663800,10.207663818359375,0.21084268391132355,0.07237191498279572,0.06482398509979248
1738005711626733000,10.217733154296875,0.21708303689956665,0.05417025089263916,0.07021797448396683
1738005711636802000,10.227802001953124,0.22821584343910217,0.062259603291749954,0.07631981372833252
1738005711646870000,10.2378701171875,0.2427707016468048,0.08342839777469635,0.09693557024002075
1738005711656939000,10.24793896484375,0.25572219491004944,0.09706298261880875,0.10505954921245575
1738005711667008000,10.258008056640625,0.2681773006916046,0.10590890794992447,0.1099158450961113
1738005711677077000,10.268076904296874,0.2865262031555176,0.1135852038860321,0.09845040738582611
1738005711687146000,10.27814599609375,0.30816367268562317,0.13263016939163208,0.08711253851652145
1738005711697214200,10.288214111328125,0.3189510703086853,0.127723827958107,0.083130843937397
1738005711707283000,10.298282958984375,0.31691670417785645,0.10590004175901413,0.08951983600854874
1738005711717352000,10.30835205078125,0.31470945477485657,0.06123776733875275,0.10222498327493668
1738005711727421000,10.3184208984375,0.31822964549064636,0.009355338290333748,0.11882691085338593
1738005711737490000,10.328489990234376,0.3280484676361084,-0.03164828568696976,0.12025809288024902
1738005711747559200,10.33855908203125,0.33323124051094055,-0.04837346449494362,0.10529450327157974
1738005711757627100,10.348627197265625,0.3386017680168152,-0.03195081278681755,0.07331046462059021
1738005711767696100,10.358696044921874,0.34845253825187683,0.0010364409536123276,0.05078908056020737
1738005711777765000,10.36876513671875,0.3552830219268799,0.02939537912607193,0.03127423673868179
1738005711787833900,10.378833740234375,0.3520897924900055,0.0596335306763649,0.02943567745387554
1738005711797903000,10.388903076171875,0.3513694107532501,0.06385117769241333,0.048232801258563995
1738005711807971000,10.39897119140625,0.35119855403900146,0.046949826180934906,0.08380957692861557
1738005711818040000,10.4090400390625,0.3611750304698944,0.017770903185009956,0.13457660377025604
1738005711828109000,10.419109130859376,0.3653298020362854,-0.03256785869598389,0.18888996541500092
1738005711838177800,10.429177734375,0.3668499290943146,-0.08873552083969116,0.22054216265678406
1738005711848247000,10.4392470703125,0.3727611303329468,-0.14083261787891388,0.19804003834724426
1738005711858316000,10.44931591796875,0.3862873315811157,-0.16160660982131958,0.12949025630950928
1738005711868384000,10.459384033203126,0.38664302229881287,-0.17133447527885437,0.01836610585451126
1738005711878453000,10.469452880859375,0.38635459542274475,-0.16309918463230133,-0.1041446328163147
1738005711888522000,10.47952197265625,0.3840770423412323,-0.14757002890110016,-0.20607700943946838
1738005711898591000,10.489591064453125,0.3758838474750519,-0.11542700976133347,-0.27220678329467773
1738005711908660000,10.499659912109376,0.3872092068195343,-0.06992609053850174,-0.26756152510643005
1738005711918729000,10.50972900390625,0.3886023163795471,0.009155940264463425,-0.20927344262599945
1738005711928797000,10.519796875,0.3833377957344055,0.07606358081102371,-0.11787383258342743
1738005711938866200,10.5298662109375,0.3709748685359955,0.12791399657726288,-0.04614877328276634
1738005711948935000,10.539934814453124,0.3562729060649872,0.17458826303482056,-0.001648392528295517
1738005711959004000,10.55000390625,0.330806702375412,0.1851399689912796,0.009986957535147667
1738005711969073200,10.5600732421875,0.28965121507644653,0.1699109971523285,-0.013190123252570629
1738005711979141000,10.57014111328125,0.23842157423496246,0.10812965035438538,-0.08265388756990433
1738005711989210000,10.580210205078124,0.18846388161182404,0.031019950285553932,-0.15508787333965302
1738005711999279000,10.590279052734376,0.16078191995620728,-0.047080978751182556,-0.21725909411907196
1738005712009347800,10.600347900390625,0.13563834130764008,-0.08597415685653687,-0.24925358593463898
1738005712019417000,10.6104169921875,0.1262696087360382,-0.09500333666801453,-0.2312878966331482
1738005712029485800,10.62048583984375,0.13795216381549835,-0.08599606156349182,-0.17631956934928894
1738005712039554000,10.630553955078126,0.14895634353160858,-0.04541907459497452,-0.094658263027668
1738005712049623000,10.640623046875,0.15927864611148834,0.008791007101535797,-0.01592068001627922
1738005712059692000,10.650692138671875,0.16269360482692719,0.04362701624631882,0.02089858613908291
1738005712069761000,10.660760986328125,0.16639001667499542,0.055360957980155945,0.0335400253534317
1738005712079830000,10.670830078125,0.16148899495601654,0.07163393497467041,0.032960787415504456
1738005712089899000,10.68089892578125,0.16466139256954193,0.07689711451530457,0.01722712814807892
1738005712099967000,10.690967041015625,0.16814613342285156,0.06569027155637741,-0.004536490887403488
1738005712110036200,10.7010361328125,0.16236406564712524,0.04732334613800049,-0.04128678888082504
1738005712120105000,10.71110498046875,0.1586819738149643,0.030434640124440193,-0.10358691960573196
1738005712130174000,10.721174072265624,0.15184681117534637,-0.003233946394175291,-0.18213781714439392
1738005712140243000,10.731242919921876,0.14599744975566864,-0.048582520335912704,-0.25333502888679504
1738005712150311000,10.741310791015625,0.13545531034469604,-0.1060255840420723,-0.30988797545433044
1738005712160380200,10.751380126953125,0.132430762052536,-0.14366748929023743,-0.3590579032897949
1738005712170449000,10.761448974609374,0.13352228701114655,-0.14873912930488586,-0.3978719711303711
1738005712180518000,10.771517822265626,0.13308551907539368,-0.1505652517080307,-0.41017764806747437
1738005712190587100,10.781587158203125,0.11297813802957535,-0.19470423460006714,-0.3896141052246094
1738005712200656000,10.79165576171875,0.08406472951173782,-0.18604470789432526,-0.32841813564300537
1738005712210724000,10.80172412109375,0.05873334780335426,-0.1785530149936676,-0.24143418669700623
1738005712220793000,10.81179296875,0.044055867940187454,-0.16836188733577728,-0.13137319684028625
1738005712230862000,10.821862060546875,0.022248592227697372,-0.11874507367610931,-0.018790893256664276
1738005712240931000,10.83193115234375,0.0029220315627753735,-0.050348177552223206,0.06895759701728821
1738005712250999800,10.841999755859375,-0.01105407439172268,0.013314764946699142,0.11917195469141006
1738005712261068000,10.852068115234376,-0.014165711589157581,0.0679846704006195,0.1490401029586792
1738005712271137000,10.862136962890625,-0.018939238041639328,0.11089546233415604,0.14907677471637726
1738005712281206000,10.8722060546875,-0.027332723140716553,0.15428873896598816,0.12157591432332993
1738005712291275000,10.88227490234375,-0.022209420800209045,0.158753901720047,0.058482322841882706
1738005712301344000,10.892343994140624,-0.025892306119203568,0.09877446293830872,-0.008542252704501152
1738005712311413000,10.9024130859375,-0.02299986593425274,0.039449095726013184,-0.0672440156340599
1738005712321481000,10.91248095703125,-0.016650091856718063,-0.010658013634383678,-0.1144791767001152
1738005712331550200,10.92255029296875,-0.007347258739173412,-0.04961992800235748,-0.142191082239151
1738005712341619000,10.932618896484374,-0.006797316018491983,-0.07648482918739319,-0.17729607224464417
1738005712351688000,10.94268798828125,-0.001091962680220604,-0.07263955473899841,-0.18310880661010742
1738005712361757000,10.9527568359375,0.0065377275459468365,-0.0785837322473526,-0.18116682767868042
1738005712371825000,10.962824951171875,0.010821151547133923,-0.06740192323923111,-0.17138707637786865
1738005712381894100,10.97289404296875,0.004290015436708927,-0.04768681153655052,-0.1431567668914795
1738005712391963000,10.982962890625,-0.0020949908066540956,-0.0435124896466732,-0.09677869826555252
1738005712402032000,10.9930322265625,-0.007243147119879723,-0.04512503370642662,-0.029600992798805237
1738005712412101000,11.00310107421875,-0.019740458577871323,-0.04456189274787903,0.02685316652059555
1738005712422169900,11.013169921875,-0.03146662190556526,-0.03258752077817917,0.05847553908824921
1738005712432238000,11.023238037109374,-0.039157770574092865,-0.007509661838412285,0.0721888393163681
1738005712442307000,11.03330712890625,-0.05075796693563461,0.009954283945262432,0.06093219295144081
1738005712452376000,11.0433759765625,-0.0531330481171608,0.01950659044086933,0.04816625267267227
1738005712462445000,11.053445068359375,-0.05285048857331276,0.04595710709691048,0.03760548681020737
1738005712472513800,11.063513671875,-0.05372696369886398,0.053011856973171234,0.016823116689920425
1738005712482582000,11.07358203125,-0.049970842897892,0.05050928145647049,-0.005991386249661446
1738005712492651000,11.083651123046875,-0.042464662343263626,0.05097978934645653,-0.024395974352955818
1738005712502720000,11.093719970703125,-0.03278966620564461,0.04730702564120293,-0.0378984659910202
1738005712512789000,11.1037890625,-0.026412062346935272,0.04389753192663193,-0.03949935734272003
1738005712522858200,11.113858154296874,-0.024575013667345047,0.032454729080200195,-0.02679847553372383
1738005712532927000,11.123927001953126,-0.01090825255960226,0.020524878054857254,-0.014394760131835938
1738005712542995000,11.133994873046875,-0.010325819253921509,0.008599242195487022,-0.001338612288236618
1738005712553064200,11.144064208984375,-0.018944496288895607,0.010257219895720482,-0.0008625984191894531
1738005712563133400,11.154133544921875,-0.026438364759087563,-0.001542181707918644,-0.015841282904148102
1738005712573202400,11.164202392578124,-0.030188769102096558,-0.004914134740829468,-0.03895854949951172
1738005712583271400,11.174271484375,-0.03529831022024155,-0.0071416026912629604,-0.04781648516654968
1738005712593339400,11.18433935546875,-0.04145444184541702,0.0011570458300411701,-0.0445098876953125
1738005712603408400,11.194408447265625,-0.044950902462005615,0.020655913278460503,-0.03011550009250641
1738005712613477400,11.204477294921874,-0.04866921156644821,0.03610756993293762,-0.01060145441442728
1738005712623546400,11.21454638671875,-0.05257473886013031,0.034744832664728165,0.005476581864058971
1738005712633615600,11.22461572265625,-0.04986713081598282,0.03948049992322922,0.016355203464627266
1738005712643684400,11.234684326171875,-0.05334575101733208,0.046136535704135895,0.017554691061377525
1738005712653752300,11.24475244140625,-0.043824683874845505,0.04581135883927345,0.027441512793302536
1738005712663821600,11.254821533203126,-0.03352810814976692,0.04376498609781265,0.0210853461176157
1738005712673890300,11.264890380859375,-0.030339378863573074,0.041069213300943375,0.02045820653438568
1738005712683959600,11.27495947265625,-0.023644190281629562,0.026308909058570862,0.022121082991361618
1738005712694028300,11.2850283203125,-0.017606349661946297,0.00744475144892931,0.02619963511824608
1738005712704096300,11.29509619140625,-0.012190279550850391,-0.007888131774961948,0.032254330813884735
1738005712714165500,11.30516552734375,-0.011960089206695557,-0.021786199882626534,0.023786023259162903
1738005712724234200,11.315234130859375,-0.013096194714307785,-0.0547979474067688,-0.002434130758047104
1738005712734303500,11.325303466796875,-0.013761873356997967,-0.07875557988882065,-0.02622191235423088
1738005712744372500,11.33537255859375,-0.016901740804314613,-0.07997824251651764,-0.03890175744891167
1738005712754441500,11.34544140625,-0.015809249132871628,-0.061933524906635284,-0.03569196164608002
1738005712764509400,11.355509521484375,-0.012435290962457657,-0.03988148644566536,-0.029410362243652344
1738005712774578400,11.365578369140625,-0.013527408242225647,-0.0049304780550301075,-0.018046867102384567
1738005712784647400,11.3756474609375,-0.013869624584913254,0.002893888857215643,-0.02259048819541931
1738005712794716400,11.38571630859375,-0.014742686413228512,-0.016420606523752213,-0.0306631438434124
1738005712804785400,11.395785400390626,-0.017963778227567673,-0.02933347597718239,-0.0400577075779438
1738005712814853400,11.405853271484375,-0.018162278458476067,-0.02645157277584076,-0.038783129304647446
1738005712824922400,11.41592236328125,-0.011335263960063457,-0.0182716716080904,-0.02166539430618286
1738005712834991400,11.425991455078124,-0.005852851551026106,0.011717351153492928,-0.0027389833703637123
1738005712845060400,11.436060302734376,-0.008198830299079418,0.04981599748134613,0.009438320994377136
1738005712855129600,11.446129638671875,-0.006607776507735252,0.0618952251970768,0.014847979880869389
1738005712865197300,11.456197265625,-0.009967620484530926,0.03819495812058449,0.010151761583983898
1738005712875266300,11.466266357421874,-0.024606691673398018,0.01847311481833458,-0.005695926025509834
1738005712885335600,11.47633544921875,-0.02974099852144718,-0.0024132581893354654,-0.019801359623670578
1738005712895404300,11.486404296875,-0.028024792671203613,-0.023802490904927254,-0.021750211715698242
1738005712905473500,11.4964736328125,-0.03621161729097366,-0.04488540440797806,-0.01836692914366722
1738005712915542300,11.506542236328125,-0.036929480731487274,-0.028885532170534134,-0.011820477433502674
1738005712925610200,11.5166103515625,-0.02938501164317131,-0.021505380049347878,-0.005770840682089329
1738005712935679500,11.526679443359376,-0.013570861890912056,-0.01863585039973259,0.005098876543343067
1738005712945748200,11.536748291015625,-0.012476835399866104,-0.024856194853782654,0.02260170504450798
1738005712955817500,11.5468173828125,-0.002024272456765175,-0.03343868628144264,0.027602504938840866
1738005712965886500,11.556886474609374,0.020662665367126465,-0.05840315669775009,0.03612089157104492
1738005712975954200,11.5669541015625,0.022586405277252197,-0.08052564412355423,0.05125214159488678
1738005712986023400,11.5770234375,0.015374032780528069,-0.04622972384095192,0.057116422802209854
1738005712996092400,11.587092529296875,0.014109657146036625,-0.009339979849755764,0.051370397210121155
1738005713006161400,11.597161376953125,0.004191512241959572,0.003921763505786657,0.034391410648822784
1738005713016230400,11.60723046875,-0.002120867371559143,-0.0019727181643247604,0.013347752392292023
1738005713026299400,11.61729931640625,-0.005638637114316225,-0.011615226045250893,-0.005739656277000904
1738005713036367400,11.627367431640625,-0.007796234916895628,-0.028456613421440125,-0.02775663137435913
1738005713046436400,11.637436279296875,-0.010998154059052467,-0.030449457466602325,-0.035736262798309326
1738005713056505300,11.64750537109375,-0.012460337951779366,-0.019437972456216812,-0.03628135100007057
1738005713066574300,11.65757421875,-0.0004247142933309078,-0.016701042652130127,-0.026303552091121674
1738005713076643600,11.6676435546875,0.005785229150205851,-0.004122653976082802,-0.00888231210410595
1738005713086711300,11.677711181640625,0.011588523164391518,0.029784714803099632,0.005917672999203205
1738005713096780300,11.6877802734375,0.01697150245308876,0.06631720811128616,0.02648121863603592
1738005713106849500,11.697849609375,0.017837829887866974,0.07392159849405289,0.028684720396995544
1738005713116918300,11.707918212890625,0.01202838122844696,0.06020103022456169,0.01703113503754139
1738005713126987500,11.717987548828125,0.00557048199698329,0.027684900909662247,0.0017709555104374886
1738005713137055500,11.728055419921875,-0.005352768115699291,-0.020660489797592163,-0.02222408726811409
1738005713147124200,11.738124267578126,-0.018480820581316948,-0.054081030189991,-0.04895583540201187
1738005713157193500,11.748193359375,-0.025941744446754456,-0.07795485854148865,-0.05903667211532593
1738005713167262200,11.75826220703125,-0.029862184077501297,-0.057791270315647125,-0.04965702444314957
1738005713177331500,11.76833154296875,-0.02403755486011505,-0.025189686566591263,-0.03136444091796875
1738005713187400400,11.778400390625,-0.020554140210151672,0.0034661940298974514,-0.007895335555076599
1738005713197468200,11.78846826171875,-0.01577799767255783,0.02252507209777832,0.026877418160438538
1738005713207537400,11.798537353515625,-0.011075654067099094,0.033017393201589584,0.05626407265663147
1738005713217606400,11.8086064453125,-0.01137350220233202,0.032237205654382706,0.07832831144332886
1738005713227675400,11.81867529296875,-0.01357007771730423,0.012034731917083263,0.08371110260486603
1738005713237744400,11.828744384765624,-0.012241974472999573,0.004385082982480526,0.06483015418052673
1738005713247812600,11.8388125,-0.008330856449902058,0.0029022349044680595,0.015366465784609318
1738005713257881300,11.84888134765625,-0.009689901024103165,-0.009174642153084278,-0.03132293373346329
1738005713267950300,11.858950439453125,-0.0180831179022789,-0.03278915584087372,-0.06189921870827675
1738005713278019300,11.869019287109374,-0.022987600415945053,-0.04247215390205383,-0.07318559288978577
1738005713288088300,11.87908837890625,-0.02116519957780838,-0.040140554308891296,-0.06597961485385895
1738005713298156500,11.889156494140625,-0.01604393497109413,-0.03515590354800224,-0.043836694210767746
1738005713308225300,11.899225341796875,-0.010310681536793709,-0.0349484421312809,-0.03020130842924118
1738005713318294300,11.909294189453124,-0.00866036769002676,-0.033370740711688995,-0.01841224916279316
1738005713328363500,11.919363525390626,-0.011300358921289444,-0.03224395588040352,-0.008477859199047089
1738005713338432300,11.929432373046875,-0.011525806039571762,-0.030508773401379585,0.0034934524446725845
1738005713348500500,11.93950048828125,-0.007791788317263126,-0.027021097019314766,0.010649099946022034
1738005713358569500,11.949569580078125,-0.00826600007712841,-0.02231830731034279,0.010473670437932014
1738005713368638500,11.959638427734374,-0.0063629052601754665,-0.0168609581887722,0.005735907703638077
1738005713378707500,11.96970751953125,-0.0074822790920734406,0.0029074670746922493,0.006274444051086903
1738005713388776200,11.979776123046875,-0.007262301631271839,0.014551340602338314,0.006511998362839222
1738005713398845400,11.989845458984375,0.0013169771991670132,0.029867270961403847,-0.00015806220471858978
1738005713408913400,11.999913330078124,0.011263616383075714,0.06078949570655823,-0.004572784528136253
1738005713418982400,12.009982421875,0.02277912199497223,0.07808246463537216,0.009401453658938408
1738005713429051400,12.020051513671875,0.023297373205423355,0.07272125780582428,0.04082648828625679
1738005713439120400,12.030120361328125,0.014783406630158424,0.0444127656519413,0.06379258632659912
1738005713449189400,12.040189453125,0.010900784283876419,0.014531832188367844,0.07235784083604813
1738005713459257300,12.05025732421875,0.013286054134368896,0.0018497221171855927,0.0623072013258934
1738005713469326600,12.06032666015625,0.011422906070947647,-0.0024142651818692684,0.03894329071044922
1738005713479395300,12.070395263671875,0.01116911880671978,-0.01525658369064331,0.013747954741120338
1738005713489464300,12.08046435546875,0.017587604001164436,-0.02843869850039482,-0.00033084675669670105
1738005713499533300,12.090533203125,0.020493192598223686,-0.013139709830284119,-0.017197467386722565
1738005713509601300,12.100601318359375,0.028556978330016136,0.014116412028670311,-0.030314333736896515
1738005713519670500,12.11067041015625,0.028936447575688362,0.0340062640607357,-0.03313954174518585
1738005713529739300,12.1207392578125,0.04294946789741516,0.04159228131175041,-0.02029537968337536
1738005713539808500,12.13080859375,0.057889267802238464,0.03662814199924469,0.004570122808218002
1738005713549877500,12.14087744140625,0.054768308997154236,0.02187156490981579,0.031607069075107574
1738005713559945500,12.150945556640625,0.048438508063554764,0.024492915719747543,0.03271254524588585
1738005713570014000,12.161013916015625,0.042797934263944626,0.021498190239071846,0.024138763546943665
1738005713580083000,12.1710830078125,0.036997243762016296,-0.0018384899012744427,0.00904344953596592
1738005713590152000,12.18115185546875,0.034049391746520996,-0.030342569574713707,-0.005743484944105148
1738005713600221000,12.191220947265625,0.028631579130887985,-0.03549564629793167,-0.009795717895030975
1738005713610289000,12.201288818359375,0.023327626287937164,-0.02091537043452263,0.004266837611794472
1738005713620358000,12.21135791015625,0.02958853170275688,0.00036906683817505836,0.01860697567462921
1738005713630427000,12.221427001953124,0.03381230682134628,0.01962345466017723,0.0308748260140419
1738005713640496000,12.23149609375,0.03535414859652519,0.037298716604709625,0.03359084576368332
