Timestamp,Acc x (m/s^2),Acc y (m/s^2),Acc z (m/s^2),Gyro x (rad/s),Gyro y (rad/s),Gyro z (rad/s),Beccheggio/Pitch (rad/s),Rollio/Roll (rad/s),Imbardata/Yaw (rad/s),Mag x (microTesla),Mag y (microTesla),Mag z (microTesla),Altitudine (m),Pressione (milliBar)
0.02852880859375,0.1279357490341179,0.0836750665604602,0.0861018279165029,-0.0012109326198697,-0.0068151103332638,-0.0019640319515019,0.0064878502119069,-0.0025783440364104,-0.930943232706232,14.202434539794922,16.40130615234375,-33.856109619140625,-0.008850570799118513,1013.6500605003799
0.038597900390625,0.0335083383807912,0.0965583400011062,0.0733808780312538,0.0018144184723496,-0.0073842275887727,-0.0006700023077428,0.0064893225716324,-0.0026540191528749,-0.9309571229438022,14.134441375732422,16.35271453857422,-33.994720458984375,-0.009009114384203043,1013.6500811003646
0.048666748046875,-0.0434327711489982,0.0522473018799675,-0.0363064081341028,0.0009806444868445,-0.0048901787959039,-0.0018498131539672,0.0065027147032362,-0.0027275229722499,-0.9309701812041496,14.075557708740234,16.049972534179688,-33.997589111328125,-0.009167654125154382,1013.6501016998496
0.05873486328125,-0.0817982307047583,-0.0104325695200124,-0.1455436124444007,0.0010379021987318,-0.0009827888570725,0.0020312112756073,0.0065198382695125,-0.0027521032406577,-0.9309742806718998,13.879507064819336,15.352066040039062,-34.109893798828125,-0.009326182333706157,1013.6501222978363
0.0688037109375,-0.0907370682354085,-0.0538367767282295,-0.1789122135609388,-0.001262729987502,0.0024867006577551,0.0018897615373134,0.0065188895889266,-0.002740863584734,-0.9309491143042196,13.815641403198242,15.308929443359377,-34.438995361328125,-0.009484722074657498,1013.6501428973214
0.078872802734375,-0.0730054460147162,-0.0343390809833537,-0.152124744400382,-0.0028771385550498,0.0061794403009116,0.0033712782897055,0.0064929408985192,-0.0027026710346324,-0.930909218446925,13.614633560180664,15.405601501464844,-34.288543701171875,-0.009643265659742026,1013.650163497306
0.088940673828125,-0.0365621684268815,0.0079212534193648,-0.0274742823809385,0.0010828645899891,0.0027271173894405,0.0041745458729565,0.0064840578352669,-0.002634669845579,-0.93087878085984,13.84062957763672,15.33636474609375,-34.572296142578125,-0.009801790024160612,1013.6501840947932
0.099010009765625,0.0190424513742211,0.0439596126012736,0.0560258386045694,-0.0023744516074657,0.0031979642808437,0.0068363756872713,0.0064663205564322,-0.0025979747359235,-0.9308286461508573,13.791500091552734,15.790779113769531,-34.050323486328125,-0.009960337453378331,1013.6502046952772
0.10907861328125,0.0756491334904916,0.0581354648694163,0.0682978756785392,-0.001016404479742,-0.0010367827489972,0.0054312404245138,0.0064470113224036,-0.0025719089540454,-0.9307709220757971,14.101863861083984,15.883544921875,-34.054351806640625,-0.010118873350196482,1013.6502252942629
0.119146728515625,0.1042223900892771,0.0431655122146708,0.0466021766990423,0.0004933411255478,0.000629024580121,0.0053891632705926,0.0064158616473694,-0.0025864003677366,-0.930711957641606,14.02763557434082,15.801628112792969,-34.058258056640625,-0.010277401558748258,1013.6502458922496
0.1292158203125,0.0689379454140551,0.0362333976968191,-0.0392909769028425,0.0026665208861231,0.0008469321765005,0.0050225602462887,0.0064261456131564,-0.0026047217053402,-0.9306621795877092,14.078500747680664,15.84832000732422,-34.107269287109375,-0.010435945143832786,1013.6502664922342
0.139284912109375,-0.0093386208204436,0.005490847934666,-0.096454295104742,0.0028888946399092,-0.0019464576616883,0.0009977249428629,0.0064498480470407,-0.0026030806752904,-0.9306336282505882,13.96559715270996,15.606842041015623,-34.251373291015625,-0.010594488728917315,1013.6502870922187
0.1493525390625,-0.0448488758914638,-0.0433162001312011,0.0663508332639932,-0.0008262461051344,0.0066309194080531,-0.0038115293718874,0.0064625385763603,-0.0025983757608546,-0.9306454196358714,14.033750534057615,15.63201141357422,-33.884796142578125,-0.010753009249202713,1013.6503076892064
0.159421875,0.0003841678788419,-0.121611916307453,-0.0092161566346883,0.0008171899244189,0.0009069871157407,-0.0040517463348805,0.0064742023584864,-0.0025721901169662,-0.930692403135163,13.828189849853516,15.588790893554688,-33.768280029296875,-0.01091155667842043,1013.6503282896905
0.169490966796875,0.0802961829781997,-0.1792435461408458,0.0017068039178848,0.000652520917356,-0.0006860508583486,-0.0063685197383165,0.0064873042294765,-0.002572754424601,-0.9307423879770268,13.917074203491213,15.721145629882812,-33.735321044921875,-0.011070100263504959,1013.6503488896751
0.179558837890625,0.117807610387355,-0.1679642098986543,0.1167775366872549,0.0019063372164964,-0.0029151167254894,-0.0074883787892758,0.0064930680623424,-0.0025831590510346,-0.9308168711643598,13.95009994506836,15.821395874023438,-34.059112548828125,-0.011228624627923546,1013.6503694871623
0.1896279296875,0.0717816535405349,-0.0895269983259029,0.0171177235394716,0.0003367373719811,-0.0037382235750555,-0.0089671378955245,0.0064958321248804,-0.002604783521736,-0.9309028357814928,13.891534805297852,15.74970245361328,-34.200042724609375,-0.011387168213008074,1013.6503900871469
0.199697021484375,0.0037783038291614,0.0102338275109417,0.0350736514687538,0.0008501950651407,-0.0053784647025167,-0.0079079987481236,0.0064909935472025,-0.0026436392491682,-0.9309996369692568,13.90390396118164,15.39678955078125,-34.276336669921875,-0.011545711798092603,1013.6504106871315
0.209764892578125,-0.0341263127322192,0.063696720292326,0.0225040927529335,-0.0001378431916236,-0.0006929785013198,-0.0070583103224635,0.0064800439014775,-0.002684694709726,-0.9310733737493204,14.097013473510742,15.501197814941406,-33.838226318359375,-0.01170423616251119,1013.6504312846187
0.219833740234375,-0.0516201509915292,0.0883319433224387,-0.1211491759002208,0.0014051925390958,-0.0007536984048783,-0.0026699535083025,0.0064896969827671,-0.0026860985487777,-0.9311230306006604,14.008460998535156,15.787940979003906,-34.010894775390625,-0.01186277590346253,1013.6504518841039
0.229903076171875,-0.0478790693336399,0.1007061621292494,-0.1039414359897375,-0.0005675824359059,0.0014589838683605,-0.0001550456508994,0.00650029504891,-0.002686113001651,-0.9311467992848405,13.93866729736328,15.58477020263672,-34.108856201171875,-0.012021323332680247,1013.6504724845879
0.239970947265625,-0.0428263936205301,0.1216139256014488,-0.0373527023166418,-0.000294342637062,0.0022890912368893,0.0032032001763582,0.006511322671961,-0.0026672847634552,-0.9311446072709496,13.778291702270508,15.645751953125,-34.287506103515625,-0.012179847697098834,1013.6504930820751
0.250039794921875,-0.0227570126346545,0.1112634403077419,-0.0442366166114807,9.4118528068e-05,0.0016410159878432,0.003370095975697,0.0065239823849419,-0.0026538551111344,-0.9311150673421116,13.786693572998049,15.504478454589844,-34.037994384765625,-0.012338387438050174,1013.6505136815601
0.26010888671875,0.0172665893916739,0.0818087520987726,0.0325268895953893,0.0017572622746229,0.0011965343728661,0.0064899893477559,0.0065416805675877,-0.0026305122217149,-0.9310613990254925,13.824495315551758,15.659767150878906,-34.083953857421875,-0.012496931023134702,1013.6505342815448
0.270177001953125,0.0541281517570838,0.023048565760022,0.0676928955227136,-0.0011889599263668,-0.000908562913537,0.0083111748099327,0.0065312539784509,-0.0026204240550534,-0.9309922898336492,14.121198654174805,15.408103942871094,-33.900299072265625,-0.012655459231686478,1013.6505548795315
0.280245849609375,0.058282586289104,-0.0207968458770541,-0.0089209730803966,-0.0019519571214914,-0.0028697147499769,0.0066994302906095,0.0065158323443047,-0.002632071611477,-0.9309131663986993,14.028083801269531,15.517868041992188,-34.389007568359375,-0.012813998972637818,1013.6505754790165
0.29031494140625,0.0254679292608983,-0.0286086932383477,0.0343248789280653,-0.0011470941826701,-0.0010427152737975,0.0073771784082055,0.0064974440291358,-0.0026581002325756,-0.9308510503387548,13.878374099731444,15.611701965332031,-34.187347412109375,-0.012972542557722348,1013.6505960790012
0.3003828125,-0.0063716447906102,-0.0087847886132542,0.0026028759747743,-0.0026158271357417,-0.0014448524452745,0.0060567827895283,0.0064742407452389,-0.0026767481385641,-0.9307762936442264,14.01325798034668,15.443862915039062,-33.978118896484375,-0.013131066922140933,1013.6506166764883
0.310451904296875,-0.0260812000377452,0.0030350888130022,-0.0527630374163389,0.0011760285124182,0.0004576900973916,0.0041082515381276,0.0064588294306672,-0.0026963520426863,-0.9307281412214108,14.03639793395996,15.410362243652344,-34.161407470703125,-0.013289610507225462,1013.6506372764729
0.32052099609375,-0.0137104175803251,-0.016829604480206,-0.0433358683794736,0.000957116484642,0.0031011439859867,0.0034437919966876,0.0064626136328554,-0.0026913413674353,-0.9306869657880212,13.798389434814451,15.674079895019531,-34.280853271484375,-0.013448154092309992,1013.6506578764576
0.3305888671875,0.0201120898997294,-0.0523319251232314,-0.0397445658892393,0.0033657886087894,0.0027026124298572,-0.0001485953107476,0.0064739761437075,-0.0026765319414125,-0.9306706349080828,14.012969970703123,15.729568481445312,-34.027008056640625,-0.013606678456728577,1013.6506784739447
0.340657958984375,0.0471820589462295,-0.0884591133660636,0.0099333649933338,0.0014672214165329,0.0008005825802683,-0.0030032377690076,0.0064979149571081,-0.002675060110009,-0.9306752798516662,14.315055847167969,15.734504699707031,-34.251495361328125,-0.013765222041813106,1013.6506990739293
0.350726806640625,0.0460219656582921,-0.1007336529243737,0.0112806879490613,0.0001656720414757,0.0036421790719032,-0.0034117344766855,0.0064974804593904,-0.0026635745918268,-0.9307039567276104,14.12612533569336,15.534431457519531,-33.971893310546875,-0.013923761782764447,1013.6507196734144
0.360795166015625,0.0142785682905232,-0.1058393968318589,-0.0422895741969346,-0.0003733513876795,0.0025319075211882,-0.0041808555833995,0.0065108966452646,-0.0026309940302781,-0.9307404825190474,14.089044570922852,15.72418975830078,-33.861358642578125,-0.01408229383544941,1013.6507402719005
0.37086376953125,-0.0243350801729131,-0.0773993107592221,-0.0823918674826622,0.0017630271613597,0.0042188274674117,-0.0091567002236843,0.0065118095752378,-0.002599747116783,-0.9307970203564092,13.810491561889648,15.855339050292969,-34.148345947265625,-0.01424082973226756,1013.6507608708862
0.380932861328125,-0.0541255762075074,-0.0387481341638369,-0.0868804110735654,-0.0005446020513772,0.0048047224991023,-0.0082363123074173,0.0065163656817472,-0.0025526832372523,-0.9308733986990212,13.958593368530272,15.8272705078125,-34.004669189453125,-0.014399373317352089,1013.6507814708708
0.3910009765625,-0.0344372738109552,0.0032015770868631,0.0100870942503213,0.0002999501302838,0.0048744953237473,-0.0063143405131995,0.0065063251486166,-0.0025003938040495,-0.9309418452115428,13.968891143798828,15.761520385742188,-33.720794677734375,-0.014557901525903865,1013.6508020688575
0.40106982421875,0.022607788306137,0.0374528062568279,0.0480956301271915,-0.0004976661875844,0.0016494067385792,-0.0059175295755267,0.0065047162042844,-0.0024732542115088,-0.930997085869262,13.97713851928711,15.770111083984377,-34.229827880859375,-0.014716441266855207,1013.6508226683426
0.411138916015625,0.0924848069518804,0.0543299077071482,0.1288993516355752,0.0006041452288627,-0.0029195158276706,-0.004319398663938,0.0065167167544547,-0.0024728728499666,-0.9310326928181448,13.978578567504885,15.698356628417969,-34.034149169921875,-0.014874984851939735,1013.6508432683272
0.42120703125,0.1192069831907283,0.0803760706808418,0.0985217490285634,0.0002091992646455,-0.0042055565863847,-0.0014029708690941,0.0065176583155207,-0.0025122304738267,-0.9310639971689756,13.89249038696289,15.447731018066406,-34.129730224609375,-0.01503351306049151,1013.6508638663138
0.431275634765625,0.0741508212241344,0.0933002880532294,0.0711351449310779,0.0054632872343063,-0.0063608488999307,-0.0025526254903525,0.0065385648272586,-0.002571713354511,-0.9310945413584768,13.893739700317385,15.322395324707031,-33.985198974609375,-0.015192048957309662,1013.6508844652994
0.441344970703125,0.0227624171788454,0.074483829737897,0.016963994282484,-0.0022100796923041,-0.0043078181333839,0.0016341302543878,0.006557685738803,-0.0026263555415659,-0.9310937380658694,14.029748916625977,15.620033264160156,-33.640289306640625,-0.015350596386527377,1013.6509050657835
0.451412841796875,-0.0231406896064407,0.0228176293812459,-0.0351116453915834,0.0016917400062084,-0.0003815814852714,0.0012049502693116,0.0065687414533956,-0.0026605082823722,-0.9310894009030386,13.98774528503418,15.94268035888672,-33.684295654296875,-0.015509120750945966,1013.6509256632708
0.461481689453125,-0.0595722014079568,0.001988981860131,-0.1196580605596303,-0.0009703552350401,0.0017249789088964,0.0025474498979747,0.006581040884507,-0.0026686732376693,-0.93106704392992,13.918460845947266,15.455833435058594,-33.751861572265625,-0.015667660491897308,1013.6509462627558
0.471551025390625,-0.0765974289249628,0.0082393474917858,-0.0990063176751136,-0.0014454694464802,0.0015294137410819,0.0059873196296393,0.0065622726663245,-0.0026568252636749,-0.9310286911477929,14.075035095214844,15.538734436035156,-33.861053466796875,-0.015826207921115023,1013.6509668632399
0.481618896484375,-0.0578446332632563,0.0344344904821133,-0.0384013345867395,-0.0020103259012103,0.0040668733417987,0.0049915635026991,0.0065478862521035,-0.0026312114746484,-0.9309817730399216,14.077537536621094,15.33123779296875,-34.080963134765625,-0.016028352761186325,1013.6509868314379
0.49168798828125,-0.0135639377647428,0.0444973544734762,-0.0105664021998643,-0.004675829783082,0.0017622462473809,0.006981452461332,0.0065211561815898,-0.0025994654044403,-0.930925197418916,14.09469985961914,15.485610961914062,-33.707122802734375,-0.01623974864150118,1013.6510066689507
0.5017568359375,0.0446965211742324,0.0255287697697756,0.0482429296433925,-0.0011455435305833,0.001917774323374,0.0073843891732394,0.0064942470558746,-0.0025894502474695,-0.9308513450731642,13.881494522094728,15.650520324707031,-33.536468505859375,-0.01645113939619762,1013.6510265059825
0.511824951171875,0.077395648364257,0.0127671271145343,0.065151978868246,0.0009344229474663,-0.0006895079277455,0.0055001871660351,0.0064899181315203,-0.0025974174562786,-0.9307883644997538,13.669692993164062,15.66851806640625,-33.578948974609375,-0.016662514774038815,1013.6510463415714
0.521893798828125,0.0669419675575569,0.0016449907280504,-0.0093669632822275,-0.0005947640165686,0.0003712293691933,0.0042261304333806,0.0064849267572105,-0.0025995535868348,-0.9307440626310852,13.726421356201172,15.452621459960938,-34.180389404296875,-0.016873905528735255,1013.6510661786032
0.531962890625,0.0127465044516138,-0.0098846670133993,-0.0506669419199228,0.003230907022953,-0.0002178028225898,0.0052105477079749,0.0064841551693541,-0.0025968365747192,-0.930704310809396,13.816085815429688,15.24372100830078,-33.791900634765625,-0.01708530140905011,1013.651086016116
0.54203076171875,-0.0118955182120436,-0.0579240688747493,0.0160690912693738,0.0019680364057421,7.22152180969e-05,-0.0001032575964927,0.0065140893210342,-0.0026170091489655,-0.9306939781859948,13.647048950195312,15.560554504394531,-33.725372314453125,-0.017296671661272887,1013.6511058512239
0.552100341796875,-0.0037669033690239,-0.11338986701034,0.0441992072105407,0.0032617375254631,-0.0011443132534623,-0.0050849351100623,0.0065344216546487,-0.0026219234003404,-0.9307203960978208,13.663551330566406,15.625358581542969,-33.588165283203125,-0.01750807779282457,1013.6511256896987
0.562169189453125,0.0418373780166031,-0.1499552914068102,-0.0117658411175012,-0.0009649666026234,7.22184777259e-05,-0.0074785845354199,0.0065441894960184,-0.0026183349438567,-0.9307898248997494,13.988916397094728,15.777420043945312,-33.412384033203125,-0.017719468547521013,1013.6511455267305
0.572237548828125,0.0666490581587422,-0.1330009874012787,0.0226502232253551,0.0001408010721206,0.001191216520965,-0.0076576927676796,0.0065488044478399,-0.0026307229378625,-0.9308635291785622,13.855709075927734,15.695999145507812,-33.478424072265625,-0.01793084905098062,1013.6511653628004
0.58230615234375,0.0628676216575782,-0.0871634657986462,0.0082850132644176,0.0008441414684057,-0.0006266571581363,-0.0076651498675346,0.0065537415579552,-0.0026265930436088,-0.930936352028164,13.774887084960938,15.713409423828123,-33.436553955078125,-0.018142234680058645,1013.6511851993512
0.59237548828125,0.0176541114215156,-0.0217272311954991,0.0012526304095983,-0.0003799712285399,-0.001868377905339,-0.0071946457028388,0.0065430306673751,-0.0026242520550774,-0.93100664247068,13.887657165527344,15.771896362304688,-33.865570068359375,-0.018353635685991916,1013.651205037345
0.602443359375,-0.0165477233654819,0.0507168911420274,0.0525777439773082,-0.0015506977215409,-0.0043184859678149,-0.0062537505291402,0.0065450213596974,-0.002646157901309,-0.9310576438197484,13.939870834350586,15.574089050292969,-33.951446533203125,-0.018565005938214692,1013.6512248724529
0.61251220703125,-0.0164967786295339,0.0886554122562985,0.0070879124343395,0.0010619089007377,-0.0014875745400786,-0.002846407238394,0.0065379412172255,-0.0026666116093041,-0.93110731109585,13.695619583129885,15.745399475097656,-33.951812744140625,-0.018776396692911132,1013.6512447094847
0.62258154296875,-0.0245426630755653,0.1118638082205317,-0.040049101793766,0.0015018638223409,0.0020448425784707,-0.0005196034908294,0.0065546866618741,-0.0026701348463081,-0.9311307832844452,13.758840560913086,15.64032745361328,-33.538116455078125,-0.018987797698844403,1013.6512645474785
0.6326494140625,-0.0143774849206209,0.1256928472118452,-0.0196983876824378,0.0006836177781224,0.0034913858398795,-0.0001007383689284,0.0065610460964529,-0.002653837534904,-0.9311296470228688,13.70938491821289,15.652938842773438,-33.711395263671875,-0.01919916795106718,1013.6512843825864
0.642718505859375,0.0038573010492371,0.1186137391384691,-0.0285275908261537,0.0021659331396222,-0.0030061942525207,0.0034974585287272,0.0065716006659482,-0.0026516961985627,-0.9311072019779684,13.99685287475586,15.665657043457031,-33.860748291015625,-0.019410563831382035,1013.6513042200992
0.652787353515625,0.0159910164979053,0.090977434596233,-0.0015957447588443,0.0020285677164793,-0.0008115782402455,0.0046347244642674,0.0066068758525773,-0.0026835479121198,-0.931078992286996,14.074422836303713,15.459129333496094,-33.891632080078125,-0.019621954586078474,1013.651324057131
0.66285546875,0.0138604547595954,0.0437231643637409,0.0299772051125764,-0.000406626611948,0.0025517279282212,0.0055292802862823,0.0066100592018552,-0.0026799142970673,-0.9310321620903148,13.960813522338867,15.680519104003906,-33.829254150390625,-0.01983332996391967,1013.6513438927199
0.672924560546875,0.0059195810410194,0.0051547569812508,-0.025239070674777,0.001212521456182,0.0002324758097529,0.0056269220076501,0.0066139439749289,-0.0026788864682921,-0.9309734912935916,13.96096420288086,15.975975036621094,-33.752838134765625,-0.020044725844234522,1013.6513637302327
0.682993408203125,-0.0117283860507886,-0.0272269519897876,-0.0051870472490787,-9.72216948866e-05,0.0007315524853765,0.005724127870053,0.0066078265649396,-0.0026798313064379,-0.9309139490734564,13.873199462890623,15.828529357910156,-34.036529541015625,-0.020256116598930965,1013.6513835672645
0.693061279296875,0.000349578339362,-0.0528350980055518,0.0072322893410921,-0.0013619409874081,-0.002284359652549,0.0069960416294634,0.0066057754455932,-0.0026907382564715,-0.9308554642268956,13.90150260925293,15.664894104003906,-33.813201904296875,-0.020467486851153738,1013.6514034023724
0.703130615234375,0.0142859227632055,-0.048408509168378,-0.0147626848459243,0.0007033413276076,0.0017700367607176,0.0033682831563055,0.0065841390022197,-0.002692782488781,-0.9308106243281856,13.633010864257812,15.74640655517578,-33.387908935546875,-0.020678887857087012,1013.6514232403662
0.71319921875,0.0219753401880734,-0.0358688980662496,-0.0162578918397426,-0.0002205371856689,0.0007272744551301,0.001448527444154,0.006565826206605,-0.0026834267006123,-0.9307914787608615,13.741643905639648,15.733551025390623,-33.658294677734375,-0.020890273486165036,1013.6514430769171
0.723267333984375,0.0392832959198858,-0.0282834159398917,0.022049919244647,-0.0003888495266437,0.0004902528598904,0.0008767466060817,0.0065611319895609,-0.0026783277227969,-0.9307859179474056,13.852706909179688,16.082664489746094,-33.817779541015625,-0.02110164886400623,1013.6514629125058
0.73333642578125,0.0330000897478428,-0.0310967608941486,0.0211520936220884,0.0017122440040111,0.0016050566919147,-0.0014300504699349,0.0065641667890597,-0.0026784881617302,-0.9307871725004022,13.65736198425293,15.673744201660156,-33.567779541015625,-0.021313044744321084,1013.6514827500187
0.7434052734375,0.0203076056219637,-0.0492884886069921,-0.0434913512021303,-0.0011911336332559,0.0001954454928636,-0.0041062608361244,0.0065554407495309,-0.0026812120001646,-0.9308133779817032,13.905572891235352,15.732101440429688,-33.918487548828125,-0.021524435499017523,1013.6515025870506
0.753473388671875,-0.0023126882560085,-0.0553600362061755,0.0094803605288267,0.0009291199967265,0.0021529956720769,-0.0044068484567105,0.0065619256655114,-0.0026786609874445,-0.9308503498026516,13.752193450927734,15.676353454589844,-33.673736572265625,-0.021735810876858715,1013.6515224226393
0.76354248046875,-0.0127322681469959,-0.0465735625259112,-0.0713239455014467,9.9278986454e-05,0.0036379736848175,-0.0049615846946835,0.0065728869405551,-0.0026537567604976,-0.9308996202887369,13.76828384399414,15.719512939453123,-34.171966552734375,-0.02194720675717357,1013.6515422601523
0.773611083984375,0.0132200813466915,-0.033578713902994,0.0009504325926303,0.0016160523518919,0.0013847448863089,-0.0067342105321586,0.0065857375348378,-0.0026298715371963,-0.9309542364248024,13.640867233276367,15.870582580566406,-33.975128173828125,-0.022158592386251594,1013.6515620967031
0.783679443359375,0.0584240953853353,-0.0276379165440099,0.1691419301748275,0.0010144440457224,-0.004844388924539,-0.0083004152402281,0.0065964371958029,-0.0026465033649869,-0.9310170619011796,13.99553680419922,15.659660339355469,-33.640106201171875,-0.022369972889711202,1013.6515819327728
0.79374853515625,0.0947327594086062,-0.0215099443161627,0.0833989986985921,0.0003229361027479,-0.005119883455336,-0.0074053788557648,0.0065957062863224,-0.0026868479669718,-0.931069129534016,13.67363739013672,15.467933654785156,-33.849090576171875,-0.022581368770026058,1013.6516017702858
0.8038173828125,0.0834949333537369,0.0065383294272935,0.0359621247410774,0.0019583832472562,-0.0063515952788293,-0.0063166785985231,0.0066024406593671,-0.0027310950486738,-0.931123185821793,13.458616256713867,15.675704956054688,-34.525604248046875,-0.022792759524722497,1013.6516216073176
0.813885498046875,0.0272986267032218,0.0536617535214638,0.0624468115627765,-0.0023992173373699,-0.0065874163992702,-0.0023263155017048,0.0066011739559054,-0.0027837492672058,-0.9311613491568366,13.581878662109377,15.565216064453123,-34.574859619140625,-0.023004134902563693,1013.6516414429065
0.823954345703125,-0.0390414271551417,0.0717715705379378,-0.0203051214039325,0.0034240512177348,-0.0036384982522577,-0.0005803471431136,0.0066168069493254,-0.0028243682501215,-0.9311814248889516,13.659412384033203,15.55316162109375,-34.130157470703125,-0.02321552565726013,1013.6516612799383
0.8340234375,-0.081268215481285,0.0839633911157026,-0.0741764123231172,-0.0002031493932008,-0.000887066591531,0.0001062359660863,0.0066393250396173,-0.0028366715000299,-0.9311724991811996,13.491649627685549,15.5135498046875,-34.237335205078125,-0.023426921537574984,1013.6516811174511
0.84409130859375,-0.0895613115874584,0.0679906728928908,-0.0973702409058809,0.0004525203257799,0.001413105521351,0.003539849538356,0.0066432512996923,-0.0028302448527598,-0.9311539278570774,13.641733169555664,15.430076599121094,-34.253509521484375,-0.023638291789797764,1013.6517009525589
0.854160400390625,-0.0620681144434958,0.0658924448048928,-0.1196650748223066,-0.0007883002981543,0.0042026946321129,0.0053785215131938,0.0066429139484911,-0.0027956352371062,-0.9311080414393912,13.793859481811523,15.482955932617188,-34.192962646484375,-0.02384968767011262,1013.6517207900717
0.864229248046875,-0.0338660520775476,0.0549451398289296,-0.0325742358684539,-0.0016753999516367,0.0025808298960328,0.0064810696057975,0.0066252322921642,-0.0027570149264406,-0.9310482789284612,13.945989608764648,15.529251098632812,-33.812713623046875,-0.024061078424809056,1013.6517406271035
0.87429736328125,0.015070152493054,0.0447608733810251,0.0738192694485187,-0.0023656357079744,0.0010650344192981,0.0086137373000383,0.006624324031919,-0.0027269763749451,-0.9309684540769492,13.752912521362305,15.49560546875,-33.804351806640625,-0.02427245380265025,1013.6517604626924
0.884366455078125,0.0638617655277717,0.0286949421831173,0.0724742845803499,-0.0007621478289365,0.0023137908428907,0.0092398459091782,0.0066034853985125,-0.0027127114897858,-0.9308956135161892,13.33028793334961,15.783561706542969,-33.866729736328125,-0.024483849682965103,1013.6517803002052
0.894435302734375,0.0882133219114504,0.002217799347057,0.077114219340682,0.0011474676430225,-0.003961999900639,0.0057981945574283,0.0065891149894311,-0.0027086959391648,-0.9308258994845108,13.53081512451172,15.811019897460938,-33.881500244140625,-0.024695240437661546,1013.651800137237
0.904503173828125,0.0731136419298127,-0.0210458978678332,0.0394049586713314,-0.0012701507657766,-0.0032400169875472,0.0035821786150336,0.006581990272578,-0.0027406135107172,-0.9307790929236966,13.74742317199707,15.725746154785156,-33.720794677734375,-0.02490661068988432,1013.6518199723449
0.914572509765625,0.0327188342542038,-0.0386586566489422,-0.0201519766688346,0.000526463612914,-0.0021110409870743,0.0032462319359183,0.0065865261784742,-0.0027718812412448,-0.9307421122404248,13.977025985717772,15.576690673828123,-33.873992919921875,-0.025118011695817594,1013.6518398103387
0.92464111328125,-0.0221393853430985,-0.0384998995903879,-0.0731219348341226,-0.0008354764431715,0.0014022011309862,-0.0010694207157939,0.0065569380199396,-0.0027778744899864,-0.9307326584699812,13.93488311767578,15.55560302734375,-33.959564208984375,-0.025329397324895617,1013.6518596468895
0.934709228515625,-0.0474048028853954,-0.0452723117681918,-0.043943186622858,0.0019322941079735,0.0012846100144088,-0.0041948864236474,0.0065682484251244,-0.002764995407047,-0.9307514705639146,13.779125213623049,15.579315185546877,-34.187225341796875,-0.02554077270273681,1013.6518794824784
0.9447783203125,-0.0282237718742573,-0.0643664362474344,-0.0081803838461637,0.0018854225054383,0.0039317919872701,-0.0015394485089927,0.0065895740851137,-0.0027372735328035,-0.9307802885794224,13.859838485717772,15.694869995117188,-33.845306396484375,-0.025752168583051665,1013.6518993199912
0.954847412109375,0.0394547252303455,-0.0994775153834372,0.0064846858441829,0.0016263741999864,0.0028329826891422,-0.0046930667012929,0.0065950553677036,-0.0027110679899862,-0.9308282953475356,13.992439270019531,15.428062438964844,-33.486114501953125,-0.02596356446336652,1013.651919157504
0.964915283203125,0.1120592029284685,-0.1248856590148061,0.0527215363621711,0.0022436948493123,-0.0014642938040196,-0.0056398203596472,0.0066133998494658,-0.0026988940128355,-0.9308920424942284,13.932043075561523,15.391845703125,-33.516082763671875,-0.0261749347155893,1013.6519389926119
0.974984375,0.124781321857497,-0.0921692016640677,0.1035965680748224,0.0034483820199966,-0.0051820613443851,-0.0103258565068244,0.0066383927982671,-0.0027144513347843,-0.9309735896992424,13.677410125732422,15.375518798828123,-33.626556396484375,-0.026386330595904152,1013.6519588301247
0.985053466796875,0.064534029632993,-0.0372703623620094,0.0678325962543487,6.2463805079e-06,-0.0048321215435862,-0.0100206574425101,0.0066365415483949,-0.0027354883350541,-0.9310745652140524,13.792268753051758,15.310523986816406,-34.376434326171875,-0.026597726476219007,1013.6519786676375
0.995121337890625,-0.0081806167416041,-0.0490785767499357,0.0420937593638896,0.0002097431570291,-0.0031355563551187,-0.0083219753578305,0.0066378828987813,-0.0027669479817472,-0.9311725742206682,13.827774047851562,15.57183837890625,-34.254852294921875,-0.026809096728441784,1013.6519985027454
1.0051904296875,-0.0583522083260584,0.0189105389401083,-0.0557698180168867,5.76768070459e-05,-0.0007980996742844,-0.0066519072279334,0.0066433526974238,-0.0027930820959639,-0.931249210721682,13.737943649291992,15.426239013671877,-34.174346923828125,-0.027020492608756642,1013.6520183402582
1.015259521484375,-0.0826731138431467,0.1221985022900626,-0.1097907465398311,0.0018669972196221,0.0001921979710459,-0.0062203267589211,0.0066624891724031,-0.002800223322781,-0.9313142169783916,13.627046585083008,15.582687377929688,-34.180633544921875,-0.027231888489071494,1013.652038177771
1.025327392578125,-0.0607011369392275,0.1505222228408791,-0.106648356860876,-0.0011927084997296,0.0038796104490756,0.0001241220161318,0.0066667929084471,-0.0027824401562728,-0.9313518126164948,13.579132080078123,15.46979522705078,-34.278289794921875,-0.027443258741294274,1013.6520580128789
1.035396240234375,-0.023680986478622,0.1393831718522123,-0.0007031798332929,-0.0019963877275586,0.0016422858461737,0.0005211676470935,0.0066600770088717,-0.0027427467497484,-0.9313521542924312,13.738470077514648,15.63335418701172,-34.008026123046875,-0.027654649495990714,1013.6520778499108
1.045465576171875,0.0286651201503002,0.1171157373993657,0.0786053346812725,0.0024316506460309,0.0003908667713403,0.0058970241807401,0.0066629904945144,-0.002709469447562,-0.9313225344920052,13.956401824951172,15.450569152832031,-34.061248779296875,-0.027866050501923985,1013.6520976879046
1.055533203125,0.0660923375914338,0.0873099433309398,0.0977583634406328,6.27459958195e-05,-0.0035984870046377,0.003533081151545,0.0066754030908693,-0.0027112862040713,-0.9312807552594458,13.948204040527344,15.49993896484375,-33.542144775390625,-0.028077415628528342,1013.6521175225315
1.065602294921875,0.072680027152365,0.0623796646106988,0.0537637388914823,0.0004726061597466,-0.0015081716701388,0.005848167464137,0.0066814395049194,-0.0027421752339761,-0.9312462731053872,13.646127700805664,15.598770141601562,-33.565093994140625,-0.0282888115088432,1013.6521373600443
1.07567138671875,0.0237399638239759,0.0021195448706625,-0.0069902972787618,-0.0022152010351419,-0.002224619500339,0.0066787241958081,0.0066859097545881,-0.002771820306992,-0.931184762842154,13.619449615478516,15.7208251953125,-33.840545654296875,-0.028500207389158053,1013.6521571975571
1.085739501953125,-0.0380258272216771,-0.0576794007981428,-0.0173152919381856,1.86581164598e-05,0.0012204456143081,0.0049237017519772,0.0066763712565282,-0.0027906016358396,-0.9311215225021836,13.576370239257812,15.763671875,-33.672943115234375,-0.028711582766999248,1013.6521770331459
1.095808349609375,-0.0677977441366761,-0.0486424731878796,-0.0426034624516963,0.0009737974032759,0.000595134217292,0.005246712360531,0.0066670949419114,-0.0027912098321777,-0.9310716779790013,13.841419219970703,15.718254089355469,-33.657501220703125,-0.028922973521695684,1013.6521968701778
1.10587744140625,-0.0456033201211132,-0.0394697127369232,-0.0743248808830976,-0.0012129247188568,0.0039230203256011,0.0027468027547001,0.0066411520493885,-0.0027808508549819,-0.93102091333116,13.660491943359377,15.74712371826172,-34.182098388671875,-0.029134369402010543,1013.6522167076906
1.1159453125,-0.000620700598054,-0.0368265778169967,-0.0437964716285467,-0.0004228772595524,0.0013053375296294,0.0016100797802209,0.0066207593531153,-0.0027443868566263,-0.9309967724378044,13.899505615234377,15.62834930419922,-33.904266357421875,-0.029345739654233323,1013.6522365427985
1.126014404296875,0.0592906947525683,-0.0554371519964188,0.0280313317418098,0.0002040304243564,0.0014861659146845,-0.0020847897976636,0.0065998395672836,-0.0027348742224827,-0.9309884692967976,13.802328109741213,15.613357543945312,-33.753326416015625,-0.029557135534548175,1013.6522563803113
1.13608349609375,0.0826540986154228,-0.0718399367661448,0.0980611457794904,-0.0005576871335506,-0.0018035043030977,-0.0025693965144455,0.0066056875964011,-0.0027369078606778,-0.9310031875034648,13.86300277709961,15.832481384277344,-34.009185791015625,-0.029768531414863034,1013.6522762178241
1.1461513671875,0.0821303578691091,-0.0721323210085742,0.0950678091824054,0.0020258454605937,-0.0012253322638571,-0.0025507544633001,0.0066063902041265,-0.002759795244209,-0.9310269661420656,13.91897964477539,15.843589782714844,-33.825286865234375,-0.02997990166708581,1013.652296052932
1.156220458984375,0.0438585085806669,-0.0480647509317379,0.0016927753925323,0.001539047807455,-0.0024681037757545,-0.0062173698097467,0.006619193574082,-0.0027786622514669,-0.9310683259433988,13.67874526977539,15.6357421875,-33.557525634765625,-0.030191297547400662,1013.6523158904448
1.166289306640625,-0.0130963316694367,-0.0201663294211728,-0.0605570522934198,0.0023228162899613,0.0022084065712988,-0.004761419724673,0.0066259063959964,-0.0027844833854553,-0.9311227265488602,13.653982162475586,15.580810546875,-33.803985595703125,-0.0304026883020971,1013.6523357274766
1.1763583984375,-0.0675354262389475,0.010239992390247,-0.1163724630177021,0.0012208558619022,0.002522733528167,-0.0039235553704202,0.0066442132721892,-0.0027569221977343,-0.9311657071655376,13.841316223144531,15.613174438476562,-33.884490966796875,-0.030614084182411953,1013.6523555649894
1.18642626953125,-0.063830137413647,0.0407403171946294,-0.0584627103626728,-0.0014175372198224,0.0062154722400009,-0.00307027855888,0.0066568467899739,-0.0027227686146161,-0.9311963403956868,13.634286880493164,15.76171875,-33.689849853515625,-0.030825454434634733,1013.6523754000973
1.196495361328125,-0.0100557469806983,0.0257096655949018,0.0584048426955938,-0.0001801811158657,0.0032580960541963,-0.0035729366354644,0.0066652846069432,-0.0026825476000199,-0.9312273165881028,13.486017227172852,15.689956665039062,-33.768157958984375,-0.031036850314949592,1013.6523952376101
1.206564208984375,0.0665306468103081,-0.0006684647129382,0.0772591807693243,0.0016813687980175,-0.0009984346106648,-0.0034357837866991,0.0066762699452552,-0.0026644277127929,-0.9312623825038852,13.813508987426758,15.601593017578123,-34.039093017578125,-0.03124824106964603,1013.6524150746419
1.21663232421875,0.1074790994634386,0.0005080910860328,0.0798024355113506,0.003084909170866,-0.0050130127929151,-0.0040222695097327,0.0066894333283331,-0.0026590996256248,-0.9312999603460472,13.91689109802246,15.605545043945312,-34.259918212890625,-0.031459616447487224,1013.6524349102308
1.226701416015625,0.0976847502151504,0.0169863887773826,0.1074818850755691,0.000534932129085,-0.0035759708844125,0.0027544097974896,0.0067218044467388,-0.0026979533733919,-0.9313170669937704,13.74659538269043,15.752952575683594,-33.961456298828125,-0.031671012327802076,1013.6524547477436
1.236770263671875,0.029150316701224,0.0471284975615097,0.0485229156285524,0.0008546793833374,-0.005191842559725,0.0031295614317059,0.0067284277150995,-0.0027436886523713,-0.9312929928988832,13.885881423950195,15.594589233398438,-33.790618896484375,-0.03188240308249851,1013.6524745847755
1.246838134765625,-0.0276634391443338,0.0559395531271817,-0.015673369950056,-0.0005685137584805,-0.0014437097124755,0.0016906559467315,0.0067418958756206,-0.0027791567350022,-0.9312755200454732,13.731830596923828,15.587257385253906,-34.007293701171875,-0.0320937733347213,1013.6524944198833
1.256907470703125,-0.065731943313824,0.0561896371644223,-0.0782224728435277,0.0031148064881563,-0.0018516522832214,0.0021609622053802,0.0067521384684262,-0.0027882405912515,-0.9312582477779588,13.653371810913086,15.596549987792969,-33.790313720703125,-0.032305174340654566,1013.6525142578771
1.2669765625,-0.0648410314892418,0.0478849099859595,-0.1151835454940795,0.0023209182545542,0.0037180827930569,0.00414315238595,0.0067597842042809,-0.002787536186423,-0.9312164327822838,13.744163513183594,15.751571655273438,-33.879669189453125,-0.03251657022096942,1013.6525340953899
1.277044189453125,-0.0370440633424441,0.0204186602144269,-0.062958852738142,-0.0021004071459174,0.0033301976509392,0.0069532343186438,0.0067513643405182,-0.002753384722476,-0.9311638601166532,13.692773818969728,15.624549865722656,-33.803192138671875,-0.03272793534757378,1013.6525539300168
1.287113525390625,-0.0055265037699369,0.0150139242272125,0.0402922628998756,0.0009286720305681,0.0026545538567006,0.0045049902983009,0.0067495512877627,-0.0027171585217878,-0.931119788792256,13.848794937133787,15.738075256347656,-34.115753173828125,-0.03293933635350706,1013.6525737680106
1.297182373046875,0.0445188082534587,-0.0211341561065986,0.0904214446812868,0.0013333223760128,-9.85576771199e-05,0.0035429666750133,0.0067560997259989,-0.0026934057701387,-0.9310839619120233,13.747528076171877,15.476318359375,-33.925506591796875,-0.03315072710820349,1013.6525936050425
1.30725048828125,0.0895473926599603,-0.0393643572328845,0.0441828405976295,3.76943498849e-05,-2.6652123779e-05,0.0026678522117435,0.0067587092760285,-0.0026921484829306,-0.9310526170817626,13.844524383544922,15.316299438476562,-34.265716552734375,-0.03336210248604468,1013.6526134406313
1.3173193359375,0.0721640358876669,-0.0225222768635954,-0.0062432783037424,-0.0030647534877061,0.0004922072403132,0.0018860129639506,0.0067366207385977,-0.0026895587925805,-0.9310290632413426,13.780895233154297,15.234527587890623,-33.668914794921875,-0.033573493240741124,1013.6526332776632
1.327388427734375,0.0108768792214104,-0.0007166055704466,-0.0643020840406417,0.0021411944180727,-0.0002540103159844,0.0005230070091784,0.006732397061964,-0.002680851913146,-0.9310140243558211,13.731315612792969,15.334190368652344,-33.456329345703125,-0.03378488912105598,1013.652653115176
1.337456298828125,-0.0405097370088798,0.0403893757319543,0.0310153159886598,0.0022027064114809,-4.04268503189e-05,-0.0012352422345429,0.0067583920607448,-0.0026746406197573,-0.9310120848700002,13.731241226196287,15.195877075195312,-33.851165771484375,-0.033996259373278756,1013.6526729502839
1.347525390625,-0.0424379422922153,0.0324567013028543,0.0618389087975025,0.0027246857061982,0.0017723864875733,-0.0018576229922473,0.0067887183053789,-0.0026611243583589,-0.9310235529507188,13.653030395507812,15.317832946777344,-33.871063232421875,-0.03420765525359361,1013.6526927877967
1.357594482421875,0.0191933379368623,-0.0270081124741816,0.0112613987267017,-0.0002062544226646,0.0013038734905421,-0.0018893450032919,0.0067979929494106,-0.0026438853787253,-0.931054221463578,13.733816146850586,15.37786865234375,-33.775726318359375,-0.034419051133908474,1013.6527126253095
1.367662353515625,0.0689597462539095,-0.0879173346395604,-0.0457487747400999,-0.0010584658011794,0.0013017430901527,-0.0040342551656067,0.0067820481520734,-0.0026222102137764,-0.9310896197051513,13.619661331176758,15.552078247070312,-33.607818603515625,-0.03463042138613125,1013.6527324604174
1.377731201171875,0.0644931268004467,-0.1065774653154425,0.0184445882290601,0.0056783184409141,0.0007976698689162,-0.0051551489159464,0.0068018535710883,-0.0026092471438959,-0.9311255341685524,13.667032241821287,15.391319274902344,-34.094085693359375,-0.03484181214082768,1013.6527522974492
1.387800537109375,0.0163126610841485,-0.0947495370134711,0.0563005638927221,-0.0009702639654278,-0.0032774994615465,-0.0043218457140028,0.0068330398175365,-0.0026095371615422,-0.9311745960242138,13.560514450073242,15.105018615722656,-34.147857666015625,-0.03505321314676095,1013.652772135443
1.397868408203125,-0.0209020598171977,-0.0495902114999247,0.0711146866649389,-0.0013222694396972,-0.0015429127961397,-0.000402707606554,0.006829855651238,-0.0026293897301219,-0.9312040563508612,13.774368286132812,15.381004333496094,-34.105072021484375,-0.03526458339898374,1013.6527919705509
1.407937255859375,-0.0290019577390979,0.0387171134044881,0.0329576822280883,-0.0013803262263536,-0.0031634462065994,-0.0010935314930975,0.006816751860758,-0.002642663327315,-0.931217434183446,13.889398574829102,15.1575927734375,-33.964202880859375,-0.03547597415368017,1013.6528118075827
1.41800634765625,-0.0099640660922741,0.0951438518269918,-0.0545809004932641,0.000580633059144,0.0005052546039223,-0.0007042079232633,0.00681811417075,-0.0026613812891058,-0.9312322940886822,13.920368194580078,15.370628356933594,-33.997589111328125,-0.035687370033995025,1013.6528316450955
1.4280751953125,-0.0041905241921311,0.1031259366220794,-0.084059508433938,-0.0004635928198695,-4.81503084301e-05,0.0008441540412604,0.0068233443805939,-0.0026550257395256,-0.9312243457394608,13.847923278808594,15.330825805664062,-33.958160400390625,-0.03589876078869146,1013.6528514821273
1.438143310546875,0.0009907646030187,0.0895592931603081,0.0190390469908714,0.0019772890955209,-0.0012489659711718,0.0039487197063863,0.0068437413459745,-0.002649312761929,-0.9312045426872616,13.833528518676758,15.245826721191406,-33.787811279296875,-0.036110136166532664,1013.6528713177162
1.44821240234375,-0.0007864353866665,0.0893647387025877,0.0753004479169845,0.0024012643843889,-3.53632494807e-05,0.0038874675519764,0.0068849371650831,-0.0026511948070526,-0.9311601833767073,13.641315460205078,15.249595642089844,-33.811737060546875,-0.036321532046847516,1013.652891155229
1.458281494140625,0.0238019048779737,0.0489098736861022,0.0432756626248359,0.0016205944120883,-0.0032559905666857,0.0037674172781407,0.0069100818340103,-0.0026713265731105,-0.9311295964384048,13.704721450805664,15.394271850585938,-33.844085693359375,-0.03653292792716237,1013.6529109927418
1.468349365234375,0.0407902572835795,-0.0135400796818314,-0.0064051908671855,-0.0019379211589694,-0.0022578379139304,0.0051930076442658,0.0069201323023647,-0.0026946726564994,-0.9310828169953924,13.60399055480957,15.090339660644531,-33.834808349609375,-0.036744298179385154,1013.6529308278497
1.47841845703125,0.0370512945175403,-0.0640473329614382,-0.0159819975078105,0.0013528745621442,-0.0009910385124385,0.0038210065104067,0.0069120377626974,-0.0027101334299665,-0.9310372574735408,13.719575881958008,15.1854248046875,-34.138214111328125,-0.036955694059700006,1013.6529506653625
1.4884873046875,0.0038986125904484,-0.0615771571553545,-0.0105956282943487,0.0016546109691262,-0.0013633486814796,-0.0005465778522193,0.0069197848147946,-0.0027169518271066,-0.9310139369610876,13.625825881958008,15.023445129394531,-34.360260009765625,-0.03707991620650062,1013.6529648518213
1.498555419921875,-0.0414725632922025,-0.0384303460520925,-0.0085007018417119,-0.0007963124662637,0.0014827037230134,0.0021661175414919,0.0069149898261262,-0.0027290518079942,-0.9310007694889564,13.585628509521484,15.054702758789062,-34.206146240234375,-0.03718586762337589,1013.6529778534614
1.508624267578125,-0.0489315557949477,-0.0025437113997526,-0.0167296010047197,-0.001164361834526,0.0012222463265061,0.0013879421167075,0.0068970399920939,-0.0027161266675294,-0.9309852496046414,13.814416885375977,15.288314819335938,-33.878692626953125,-0.03729182674786411,1013.6529908560473
1.518693359375,-0.0049846200121566,0.0099443613113835,-0.0637134704977274,-0.0020179152488708,0.0019474914297461,-0.0012302703689783,0.0068734716705521,-0.0026961227100023,-0.9309845651771363,13.566854476928713,15.318161010742188,-33.781524658203125,-0.037397788441556654,1013.6530038589485
1.52876123046875,0.0390460211318684,0.0021762160944985,-0.0156780461251735,-0.0013345479965209,0.0015719858929514,0.0007258215919137,0.0068595393285256,-0.0026693962080438,-0.9309918756464278,13.573080062866213,15.14031982421875,-33.851409912109375,-0.0375037372892276,1013.6530168602733
1.53883056640625,0.0526667009023949,-0.0153729256987571,0.0332534503042697,0.0015441663563251,-0.0040970188565552,-0.0017344956286251,0.0068553029346946,-0.0026697685545522,-0.9309941531197296,13.651395797729492,14.972976684570312,-33.776702880859375,-0.037609701552124467,1013.6530298634898
1.548899169921875,0.0447042249900754,-0.0125140382694546,0.1023860232412815,-0.0019277976825833,-0.0027076476253569,-0.0005603078752756,0.0068569108892372,-0.0026817974933962,-0.931001577934596,13.801019668579102,14.9989013671875,-33.726165771484375,-0.03771565810740837,1013.6530428657605
1.55896728515625,0.0437022540064528,-0.004414656370785,0.0920598595380783,0.0008326983079314,-0.0043826419860124,-0.0016296554822474,0.0068588441132985,-0.0027016959311775,-0.9310092429005064,13.880172729492188,15.03009033203125,-33.956207275390625,-0.03782160952428364,1013.6530558674006
1.569036376953125,0.0364050667525851,0.0033564525547437,-0.009843348622322,0.0007381560280919,-0.0050407093949615,-0.0026192860677838,0.0068578192343662,-0.0027205294126622,-0.931025867311472,13.719377517700195,15.135833740234377,-33.724151611328125,-0.037927571217976186,1013.6530688703018
1.579105224609375,-0.0011597713442402,0.0081244204418035,-0.0634141952902078,-0.0018634516745805,-9.58167947828e-05,-0.0010936800390481,0.0068557357152163,-0.0027351975995255,-0.9310413973349936,13.571615219116213,15.215476989746094,-34.001434326171875,-0.038033530342464414,1013.6530818728878
1.589174560546875,-0.041600957178534,0.0245876712610712,-0.0689507866293191,-0.0010469257831573,0.0003673071041703,0.0014078272506594,0.0068560535496453,-0.0027312173665375,-0.931045721730088,13.589107513427734,15.21630859375,-33.972198486328125,-0.03813949460536127,1013.6530948761042
1.599242431640625,-0.0612731966395629,0.0486056209093658,-0.0542851324170827,-5.95366582274e-05,0.0014697220176458,0.0015719668008387,0.0068485376739077,-0.0027088487322345,-0.9310319696409318,13.62812042236328,15.196617126464844,-33.888031005859375,-0.03824544345303222,1013.6531078774291
1.6093115234375,-0.0198905835030018,0.0609336396540049,-0.0010135609567165,0.0009521981701254,0.0007354887202382,0.0005130940116941,0.0068544245817949,-0.002686756921466,-0.9310360113240264,13.549592971801758,15.058067321777344,-33.803558349609375,-0.03835140514672476,1013.6531208803303
1.61938037109375,0.0528888694528257,0.0275813640511827,0.0763484956651926,0.001284203492105,0.0012793010100722,-0.0001570540480315,0.0068714077172203,-0.0026619065775538,-0.9310255438271426,13.71412467956543,15.000450134277344,-33.448333740234375,-0.03845736427121299,1013.6531338829162
1.629448486328125,0.1003978085661306,-0.0258007094457978,0.0824830528974533,0.0026679821312427,-0.0036643247585743,-0.0012769130989909,0.0068753397625172,-0.0026694344226858,-0.9310366010794155,13.349201202392578,15.050201416015623,-33.690155029296875,-0.03856331568808826,1013.6531468845563
1.639517333984375,0.1047853212016634,-0.0693076144100865,0.0898135419160127,0.0011174976825714,-0.0008038869127631,-0.0018004863522946,0.0068944365706786,-0.0026895901367248,-0.931051998098328,13.553041458129885,15.20819854736328,-33.790557861328125,-0.03866927481257648,1013.6531598871422
1.64958642578125,0.0608995318884262,-0.0814762687413953,0.0751473031818866,0.0019209738820791,-0.0045245890505611,-0.002152822446078,0.006904800256078,-0.0027158293400647,-0.9310645978692716,13.552011489868164,15.24773406982422,-34.015899658203125,-0.038775236506269024,1013.6531728900435
1.659654296875,-0.0027184583285939,-0.0556486073565902,0.0049666824966669,-0.0012916224077343,-0.0019509750418365,-0.0002420302480459,0.0068987181003363,-0.0027593626631017,-0.9310780249583192,13.602838516235352,15.062232971191406,-33.940521240234375,-0.03888118535393998,1013.6531858913684
1.6697236328125,-0.0439733808317221,-0.0150898207413265,-0.0590787964344024,0.0002977531403303,-0.0029003920499235,-0.0040468885563313,0.0068994313422722,-0.0027792161564442,-0.9310922164205216,13.608013153076172,14.946571350097656,-34.251434326171875,-0.03898714961683684,1013.6531988945849
1.679792236328125,-0.0714708477254258,0.0154906109614064,-0.1005278281539678,4.7137029469e-05,0.0051085939630866,-0.001217198325321,0.0068897155616756,-0.0027828724169813,-0.931121186916522,13.57907485961914,14.887565612792969,-33.971099853515625,-0.039093106172120744,1013.6532118968555
1.6898603515625,-0.0549409568441566,0.037950891972077,-0.0949900677710771,0.0018514292314648,0.0022962959483265,-0.0018963043112307,0.0068912081418062,-0.002744207819078,-0.931140531146637,13.864980697631836,15.20014190673828,-33.941986083984375,-0.039199057588996014,1013.6532248984956
1.699929443359375,-0.0224767983206314,0.0637746854659402,-0.0212187291175127,0.0006052087992429,0.0033220839686691,-0.0012241748627275,0.0068999915097737,-0.0027129550556994,-0.9311480706549036,13.873619079589844,15.454742431640623,-34.114471435546875,-0.03930501928268856,1013.6532379013968
1.709998291015625,0.0223329922360368,0.068390061173751,0.0486620318382978,0.0015919096767902,-0.0006923647597432,0.0025774873793125,0.0069128645187655,-0.0026893859778229,-0.9311468514207156,14.034032821655272,15.208213806152344,-33.921295166015625,-0.03941097840717678,1013.6532509039828
1.720066162109375,0.0561672929018735,0.0707870849786559,0.0829278740555048,0.0020667286589741,-0.0020515145733952,0.0006711892783641,0.0069284124657861,-0.0026910389502827,-0.9311272130288688,14.029212951660156,15.38910675048828,-34.031829833984375,-0.039516927254847733,1013.6532639053077
1.730135498046875,0.0653385418157558,0.049587631383771,0.0606307020515203,-0.001713627949357,-0.0030954733956605,0.0012490949593484,0.0069334181291542,-0.0027107192676972,-0.9311160687115664,14.052412033081056,15.424644470214844,-34.055938720703125,-0.03962289151774459,1013.653276908524
1.740204345703125,0.0417531018332112,0.0199896074476651,-0.005958616143465,0.0010595116764307,-0.0002275104634463,0.0036226585507392,0.0069364998358554,-0.0027318222480941,-0.9310897253882155,13.958948135375977,15.086448669433594,-34.075347900390625,-0.03972885064223282,1013.65328991111
1.7502734375,-0.0155589497901499,0.0208820034098578,-0.0584819995850324,-0.001050510443747,-0.0020547052845358,0.002278828062117,0.0069359459362541,-0.0027469940826451,-0.9310587403910676,13.85400390625,15.29572296142578,-34.058685302734375,-0.03983481233592536,1013.6533029140112
1.760341552734375,-0.0679795624104095,0.0507069314370164,-0.0605780950814485,0.0017857439815998,-0.0005102739669382,0.0027733738534152,0.0069560020345483,-0.0027574150853271,-0.9310250301584392,14.073827743530272,15.289024353027344,-33.900726318359375,-0.03994076375280063,1013.6533159156513
1.77041015625,-0.0587263434346532,0.050852349523385,0.0130424369245767,-0.0009043151512742,0.0008751023560762,-0.0005395985208451,0.0069708309997819,-0.0027549360951584,-0.9310192322756164,13.972618103027344,15.338394165039062,-34.170745849609375,-0.04004672030808454,1013.6533289179221
1.7804794921875,0.0046446954171289,0.0033282722064526,-0.0029687866777181,-0.0006900997832417,0.0033684880472719,0.0018307059071958,0.0069770187565187,-0.0027472566804543,-0.9310251181499316,13.872652053833008,15.387046813964844,-34.173187255859375,-0.040152684570981395,1013.6533419211385
1.79054736328125,0.085097509712167,-0.0787397564495913,0.0015203414350748,0.0036330092698335,0.0002054516226053,-0.0010638837702572,0.0069854848203168,-0.002726672936382,-0.9310323720548694,13.91078758239746,15.304115295410156,-34.385040283203125,-0.04025863341865235,1013.6533549224633
1.800616455078125,0.1086672498020809,-0.1232245300027076,0.0700537794351577,-0.0007543349638581,0.0016363030299544,-0.002961088437587,0.0069964192451969,-0.0027192291699713,-0.9310509954550642,13.85432243347168,15.27179718017578,-34.442718505859375,-0.04036459511234489,1013.6533679253646
1.810685302734375,0.083714138195524,-0.1266714007872622,0.1094078847020864,0.0014118803665041,-0.0029789549298584,-0.004130482673645,0.0069958884853884,-0.0027381968132803,-0.931083005848135,13.72124481201172,15.261215209960938,-34.398162841796875,-0.040470554236833114,1013.6533809279505
1.82075341796875,0.0342665020876214,-0.1341762691251933,0.0666109455049037,-0.0004494683817028,-0.0030977330170571,-0.0058479267172515,0.0069935440817206,-0.0027618600639682,-0.9311296792786312,13.824581146240234,15.494712829589844,-34.286834716796875,-0.040576505653708385,1013.6533939295906
1.830822265625,-0.0281719868880929,-0.0578353174456395,-0.0367886386930942,-0.0022921096533536,-0.0024050448555499,-0.0023176404647529,0.0069809130777852,-0.0028035979517412,-0.931176294799114,13.958040237426758,15.512596130371094,-33.975250244140625,-0.040682464778196606,1013.6534069321766
1.840891357421875,-0.0518324877011124,0.0692498198082437,-0.110708445906639,0.0016300985589623,0.0030636223964393,-0.0061023500747978,0.0069700195560634,-0.0027865278393082,-0.9312125035645996,14.008325576782228,15.340316772460938,-34.309112548828125,-0.040788426471889155,1013.6534199350777
1.850959228515625,-0.0438507043001241,0.1163570005870889,-0.1024789622217416,0.0030245296657085,0.0036138310097157,-0.0023611413780599,0.0069823564015359,-0.0027612092566008,-0.9312512399445146,13.931282043457031,15.273696899414062,-33.997406005859375,-0.040894375319560104,1013.6534329364026
1.8610283203125,-0.0331405667976127,0.1015836756161414,-0.0293067585051059,0.000564225949347,0.0014580623246729,-0.0024684439413249,0.0070017753990786,-0.002739447647563,-0.9312762934916292,13.85965347290039,15.340896606445312,-34.256805419921875,-0.04100033701325265,1013.6534459393038
1.87109716796875,0.0107624293787521,0.0555644864368252,0.0613742138952016,0.000762365758419,0.0028314548544585,-0.0031321039423346,0.0070088316978337,-0.0026997048855434,-0.931310632200724,13.912994384765623,15.319686889648438,-34.320831298828125,-0.04110629613774087,1013.6534589418898
1.88116650390625,0.0653429622625466,0.0078839125170838,0.0745411539822816,0.0007603634148836,-0.0008583511225879,-0.0018668903503566,0.0070295795874272,-0.0026959124494763,-0.9313309980931604,13.899946212768556,15.423812866210938,-34.343170166015625,-0.04121226040063773,1013.6534719451063
1.891234130859375,0.0867978656229563,-0.0263337112108012,0.0598766688138246,0.0006698155775666,-0.0038956862408667,9.34624113142e-05,0.0070193562647333,-0.0027169564972299,-0.9313201961087813,13.849315643310549,15.18292236328125,-34.536895751953125,-0.041318206679104366,1013.6534849461158
1.90130322265625,0.0549102055128663,-0.0239058675759471,0.0233645089745521,-0.0003813337534666,-0.0022919306065887,-0.0005518211983144,0.0070227869152093,-0.0027307005257586,-0.9313120525073318,13.804319381713867,15.413864135742188,-34.387786865234375,-0.04142416837279691,1013.653497949017
1.91137255859375,-0.0069339434320456,-0.0050798148817848,-0.0134463415503501,-0.0007035760208964,-0.0020072385668754,0.0019041458144783,0.0070199029122673,-0.0027414917790783,-0.9312885990372288,13.878360748291016,15.289085388183594,-34.309173583984375,-0.041530132635693766,1013.6535109522335
1.9214404296875,-0.0625762603284558,0.0539879441353725,-0.0361918418437242,-0.0014101443812251,-0.0017322679050266,0.0049783797003328,0.0070159159461618,-0.0027590833013933,-0.9312452797082436,13.81987762451172,15.416236877441406,-34.618133544921875,-0.04163608148336472,1013.6535239535583
1.931509521484375,-0.0683286955084884,0.0644258565507829,-0.0599824672758579,-0.0022197449579834,0.001047539524734,0.0022987071424722,0.006996912248507,-0.0027523313725016,-0.9312159452065476,13.846296310424805,15.231895446777344,-34.531890869140625,-0.041742043177057264,1013.6535369564596
1.941578369140625,-0.0340525602261303,0.056893090992351,-0.0691097765833139,0.0008392352610826,-0.000135232694447,0.0015444755554199,0.0069917235387755,-0.0027380029495617,-0.9311879758178692,13.744514465332031,15.236289978027344,-34.338531494140625,-0.041848002301545485,1013.6535499590456
1.951646484375,0.0151667949676746,0.0153000750916777,-0.0245183551847934,0.002384134568274,0.0030549676157534,0.0023439568467438,0.0070076187383077,-0.0027215794341174,-0.931163729658861,13.660715103149414,15.191673278808594,-34.253204345703125,-0.041953953718420756,1013.6535629606856
1.96171533203125,0.0544066992704058,-0.0310374227891908,0.0598760842919349,0.0006873272359371,-0.0013592932373285,0.0022107032127678,0.0070279929262738,-0.0027098747543515,-0.9311560401416488,13.83729362487793,15.31988525390625,-34.357574462890625,-0.04205991284290898,1013.6535759632716
1.971784423828125,0.0672365209241863,-0.0545243160343961,0.0779816498249769,-0.0001427801325917,-0.0009196051396429,0.0002058753743767,0.0070438847466467,-0.0027058967818165,-0.9311462600169736,13.920614242553713,15.340843200683594,-34.536712646484375,-0.042165874536601526,1013.6535889661727
1.981852294921875,0.0599324952208669,-0.0585610927032306,0.0375789122879505,-0.0016075102612376,-0.001996065955609,0.000511712860316,0.0070442355875533,-0.0027240333258184,-0.9311479533983706,14.087949752807615,15.434661865234377,-34.291229248046875,-0.042271823384272475,1013.6536019674976
1.99192138671875,0.0128955210008658,-0.0395564640051918,-0.0245212777942419,0.0019129235297441,5.2996911108e-06,-0.0001173261553049,0.0070443022196643,-0.0027341157175459,-0.93115729582074,13.89881706237793,15.575775146484377,-34.121734619140625,-0.04237778507796502,1013.6536149703988
2.001990234375,-0.0528603192117763,0.0128421742452774,-0.0869201585620641,-0.0024713091552257,0.0043981899507343,-0.002178132534027,0.0070469003647203,-0.0027274944967857,-0.931172291311175,14.14057159423828,15.7952880859375,-34.247467041015625,-0.04248374420245324,1013.6536279729847
2.012059326171875,-0.0836763634684029,0.0589228386877104,-0.1089145482271909,-0.0008513089269399,0.0071814595721662,-0.0033158347941935,0.0070308540207446,-0.0026826650446839,-0.9311942154656484,13.905389785766602,15.52288055419922,-34.109832763671875,-0.04258970589614579,1013.653640975886
2.022127197265625,-0.0448220563831971,0.0892166263356339,-0.0421750079065561,0.0037613296881318,0.0033151553943753,-0.0015087542124092,0.0070376849365723,-0.0026316385013706,-0.9312064850852964,13.680608749389648,15.402244567871094,-33.877655029296875,-0.04269565474381674,1013.6536539772109
2.032196533203125,0.0198576128151617,0.0593715551361674,0.0212689980000257,0.0024358741939067,-0.0004795831628143,-0.0013018266763538,0.0070766115556253,-0.0026048149752108,-0.9312104484775384,13.818962097167969,15.59564971923828,-33.827423095703125,-0.0428016190067136,1013.6536669804273
2.042265380859375,0.0938306686028838,-0.0168461994219804,0.1083580833882093,0.0033438308164477,-0.0008583525195717,-0.0021731264423578,0.0070865459195581,-0.0025948664001574,-0.9312236906453452,13.929468154907228,15.64423370361328,-33.861114501953125,-0.04290757813120182,1013.6536799830133
2.052333251953125,0.1246347438605036,-0.0602351314292522,0.1146411091804504,0.0023179808631539,-0.0026461326051503,-0.0015944214537739,0.0071024149048384,-0.0026079571839465,-0.9312323521795336,13.867216110229492,15.652305603027344,-33.655975341796875,-0.04301352697887277,1013.6536929843381
2.062402587890625,0.093294260171242,-0.0739357765342341,0.0748357530146837,0.0019534593448042,-0.0050467043183743,0.0005845492705702,0.0071091463782449,-0.0026622417513467,-0.931230419338855,13.925724029541016,15.621429443359377,-33.665191650390625,-0.043119491241769635,1013.6537059875545
2.07247119140625,0.0066404723442276,-0.0426602980723138,0.0136316349893808,0.0015475936233997,-0.0033635867293924,0.001380568370223,0.0071245302222341,-0.0027066306244892,-0.9312256458061864,13.890405654907228,15.41845703125,-33.564117431640625,-0.04322544779705354,1013.6537189898253
2.082539306640625,-0.063867651845864,0.0249355302840936,-0.059840428456664,-0.0011843647807836,0.0005599013529717,-0.0005321004427969,0.0071204132571418,-0.002718951586204,-0.9312160557140936,13.520944595336914,15.302452087402344,-33.632476806640625,-0.04333139921392881,1013.6537319914654
2.0926083984375,-0.0874365836516022,0.0535793633344816,-0.1105658225655555,-0.0004527950659394,0.0019844258204102,-0.0002306303940713,0.0070963242963952,-0.0027112186800983,-0.931203020449356,13.616537094116213,15.394523620605469,-34.023284912109375,-0.043437360907621354,1013.6537449943665
2.10267724609375,-0.0606786693790927,0.0706733863379573,-0.1247796413570642,0.0001361072063446,0.0047913412563502,-0.0001960285007953,0.0070846688025529,-0.002677924467354,-0.9312123052485016,13.894943237304688,15.31523895263672,-33.577484130859375,-0.043543320032109575,1013.6537579969525
2.112746337890625,0.0010357271227519,0.0481064940145006,-0.025720132189989,0.0035761119797825,0.0040152962319552,-0.0017470533493906,0.007102822472734,-0.0026539022447879,-0.9312151957667992,13.656545639038086,15.535690307617188,-33.804595947265625,-0.04364928172580212,1013.6537709998537
2.122814453125,0.0540415466192876,-0.0007762222366174,0.0564309122741222,0.0014686901122331,0.0010918858461081,-0.0019047914538532,0.0071077969192504,-0.0026421217538001,-0.9312400608717948,13.950321197509766,15.46295928955078,-33.787872314453125,-0.04375523314267739,1013.6537840014938
2.13288330078125,0.0859732787665445,-0.0383125237921252,0.1101496429800987,0.0015661614015698,-0.0009305188432335,-0.0018304891418665,0.0071253742814759,-0.0026328713728984,-0.9312595834722744,13.93574333190918,15.46051025390625,-33.921600341796875,-0.043861192267165616,1013.6537970040798
2.142952392578125,0.0823833188500255,-0.0508269547872245,0.1064069493204355,0.0012154523283243,-0.0002573477104306,-0.0018885869067162,0.0071462553455031,-0.0026482675419606,-0.931272561380864,13.535627365112305,15.330818176269531,-33.959442138671875,-0.04396715396085815,1013.653810006981
2.153020263671875,0.0552486071543768,-0.0517884476299863,0.0110872112035751,-0.0010716700926423,-0.005786336492747,0.0012187897227704,0.0071397626922289,-0.0026889157220466,-0.9312904875962396,13.609691619873049,15.430389404296877,-33.914276123046875,-0.04407310280852911,1013.6538230083058
2.163089599609375,-0.0106958760817185,-0.0310914819308323,-0.064779053902626,-0.0034848768264055,-0.0013101613149046,-0.0003196587786078,0.0071292938375214,-0.0027240936384745,-0.9312831881867744,13.836416244506836,15.36174774169922,-34.208587646484375,-0.044179067071425965,1013.6538360115223
2.173158447265625,-0.0707167003232985,0.0082145098780514,-0.0751034640401601,-0.0001495340839028,0.0004168986342847,-0.0002115340903401,0.0071090689088044,-0.0027377065199595,-0.9312985099997234,13.895814895629885,15.343269348144531,-33.959442138671875,-0.04428502619591419,1013.6538490141082
2.183226318359375,-0.087352476431569,0.0490318332650698,-0.095602062189579,-0.0026395050808787,0.0037154210731387,0.001104153227061,0.0070903688557595,-0.0027350547353129,-0.9313069396894722,13.977495193481444,15.287857055664062,-33.783721923828125,-0.04439097504358515,1013.6538620154331
2.193295654296875,-0.0573438487008446,0.0578176402250537,-0.0520551814079284,-0.0019590677693486,0.0035686809569597,-2.74237245321e-05,0.0070707439489401,-0.0026975471911752,-0.9313007695837257,13.705421447753906,15.41803741455078,-33.799041748046875,-0.044496939306482006,1013.6538750186496
2.2033642578125,0.0200217789844842,0.0491667390905786,0.0033124855488538,0.0006464226171374,0.0009127212688326,0.0015513999387621,0.0070583478849818,-0.0026673330906453,-0.9312973916473132,13.836219787597656,15.399330139160156,-33.416778564453125,-0.04460289586176591,1013.6538880209202
2.21343359375,0.0816623293654061,0.0279120344773866,0.035932898646593,0.0003707855939865,0.0043966681696474,0.0001082327216863,0.0070729785900979,-0.0026510396733863,-0.9312876417140168,13.7952880859375,15.38166046142578,-33.643707275390625,-0.04470886012466277,1013.6539010241368
2.22350146484375,0.0916814729460515,-0.0086641533416928,0.0971346785843372,-0.000231728889048,-0.0020820749923586,0.0013566273264586,0.0070663900154132,-0.0026503695489403,-0.9312802552907072,13.609832763671877,15.286643981933594,-33.494537353515625,-0.044814808972333725,1013.6539140254615
2.2335703125,0.0667978829117491,-0.0343157457735389,0.1001268461376428,0.0013051806017756,-0.0029832888394594,0.0020072376355528,0.0070751673430725,-0.0026611674999583,-0.93127146480922,13.683338165283203,15.368682861328123,-33.376312255859375,-0.044920768096821946,1013.6539270280475
2.243639404296875,0.0209182917160796,-0.0251761478066677,0.0124368722468614,0.002197315916419,-0.0020132451318204,0.0030136327259242,0.0070916206085663,-0.0026977184215249,-0.9312443582536508,13.663803100585938,15.36602020263672,-33.876983642578125,-0.04502672979051449,1013.6539400309488
2.25370751953125,-0.029996476068627,-0.0006490339266834,-0.0628314269661903,-0.0025870520621538,0.0018480718135833,0.0024160188622772,0.0070902481557458,-0.0027243633102441,-0.9312130465087126,13.483217239379885,15.445343017578123,-33.762420654296875,-0.04513268120738976,1013.6539530325888
2.263776123046875,-0.0549628581487108,0.0242236237216508,-0.0881190129578113,0.0016329111531376,0.0020488910377025,0.0048531549982726,0.0070783352430525,-0.0027267184471154,-0.9311916652428712,13.534278869628906,15.46173858642578,-33.671234130859375,-0.045238637762673665,1013.6539660348595
2.273845458984375,-0.0635557409190572,0.0140145881586708,-0.0929068317562341,0.0001721670851111,0.0031778048723936,0.0019228793680667,0.0070749013142598,-0.0027049801986281,-0.9311616170003032,13.674673080444336,15.595832824707031,-33.467010498046875,-0.04534460202557053,1013.653979038076
2.283913330078125,-0.0352430166862905,0.000739497822267,-0.0242237561523914,0.0031723352149128,0.0044061220251023,0.0013382555916905,0.0070945100459012,-0.0026776451148429,-0.9311442297031128,13.68441390991211,15.522125244140623,-33.498077392578125,-0.04545055087324148,1013.6539920394008
2.293982421875,0.0233119271206553,-0.0152278364059515,0.0486497568786144,0.0003925282508134,0.0015935571864247,-0.0009683081880211,0.0070989856179664,-0.0026671422976961,-0.9311330487280368,13.873708724975586,15.444679260253906,-33.572113037109375,-0.04555651256693402,1013.6540050423021
2.304051513671875,0.0763793383280281,-0.0252770645976066,0.0645119273990392,-0.0011068871244788,0.0014414791949093,-0.0007647066377103,0.0070965881818306,-0.0026463828285862,-0.9311322131892223,13.944982528686523,15.502235412597656,-34.097686767578125,-0.045662474260626564,1013.6540180452032
2.314119384765625,0.0863880609793588,-0.018583416744438,0.0628659137576818,-0.0008674683049321,-0.0050302683375775,-0.0013418139424175,0.00709250547411,-0.0026599084232612,-0.9311291868885748,13.64900016784668,15.618896484375,-33.769989013671875,-0.04576842310829751,1013.6540310465281
2.324188232421875,0.0569017172568012,-0.0210958744894014,0.0562806901484727,-0.000330519862473,-0.000206739641726,-0.002077514771372,0.0070957051127648,-0.0026896384451429,-0.931136417443919,13.486732482910156,15.81501007080078,-33.720489501953125,-0.04587438223278574,1013.6540440491141
2.33425732421875,0.0085952984897186,-0.0074884286597836,0.0128846160143613,0.0013832235708832,-0.0025495223235338,0.0002381037920713,0.0071099876861702,-0.0027076027470108,-0.93113904708254,13.574575424194336,15.598876953125,-33.573272705078125,-0.04598034392647828,1013.6540570520152
2.344326416015625,-0.040963869417971,0.008389199724677,-0.0254243641138076,0.0013772044330835,-0.0005672029219567,-0.0004176306538283,0.0071268827410163,-0.0027198926961434,-0.9311413677915572,13.46418571472168,15.500152587890623,-33.964935302734375,-0.046086305620170825,1013.6540700549165
2.354394287109375,-0.0392896069296635,0.0168239738904405,-0.0619365239530801,-1.19004398584e-05,0.001757204066962,0.0009826594032347,0.0071324984935173,-0.0027227734903874,-0.9311508475855322,13.554176330566406,15.627365112304688,-33.830352783203125,-0.046192254467841774,1013.6540830562413
2.36446337890625,-0.0356218051371164,0.0282564777006162,-0.0773480280965566,-0.0013555716723203,0.0007767658680677,0.0012975092977285,0.0071233620951467,-0.0027153151794263,-0.9311446538780248,13.498638153076172,15.309097290039062,-33.623382568359375,-0.04629821616153432,1013.6540960591425
2.374532470703125,-0.0014777969180024,0.0214748045041225,-0.0372439812451601,0.0011965362355113,0.0021669357083737,0.0010354542173445,0.0071184692760069,-0.0026875125425246,-0.9311487375979224,13.444276809692385,15.441696166992188,-33.321075439453125,-0.04640417785522686,1013.6541090620437
2.384600341796875,0.0252665066709741,0.005756312204129,0.03308510800004,0.0008787335827946,0.0028301835991442,0.0001507680863142,0.0071330608914413,-0.0026680902337541,-0.9311504300758996,13.755531311035156,15.684684753417969,-33.578277587890625,-0.046510126702897815,1013.6541220633686
2.394669189453125,0.0458870872322469,0.0080754484672332,0.0778267515242099,0.0005034934729337,0.0002557053230702,0.0016834172420203,0.0071406653857732,-0.0026498324990325,-0.9311515943063072,13.622194290161133,15.372032165527344,-34.018646240234375,-0.046616085827386036,1013.6541350659545
2.404738525390625,0.0567452845860738,-0.0050586305298609,0.0574754528909921,0.0010331394150853,-0.0009598191827535,0.0018916563130915,0.0071441362622392,-0.002658427732209,-0.9311371968192844,13.654512405395508,15.521026611328123,-34.100006103515625,-0.04672205009028289,1013.654148069171
2.41480615234375,0.0410959987645037,-0.007925925027905,0.0215606744229793,0.0002973079681396,-0.002106842584908,-0.0020990904886275,0.007156929387438,-0.0026800776558532,-0.9311423596641292,13.677618026733398,15.646514892578123,-33.860931396484375,-0.04682799636874953,1013.6541610701805
2.42487548828125,0.0096471022477257,-0.0019208850599825,-0.011212298887968,0.0021848771721124,-0.0018911906518042,0.0023039458319544,0.0071741810373618,-0.0027233058213607,-0.9311383667030808,13.576387405395508,15.459335327148438,-33.917388916015625,-0.04693396063164639,1013.654174073397
2.4349443359375,-0.0180650051937904,0.0146483514509862,-0.038297874212265,0.0020724916830658,-0.0010179402306675,0.0013915468007326,0.00718530623087,-0.0027355927191678,-0.9311280967523448,13.556526184082031,15.663253784179688,-33.847259521484375,-0.04703991975613461,1013.654187075983
2.44501318359375,-0.0374131660828948,0.0192961681236745,-0.0483235936641693,-0.0017283214256167,0.0024519604630768,5.48190437257e-05,0.0071862291387501,-0.0027310132861137,-0.9311243837515716,13.711524963378906,15.762435913085938,-33.582855224609375,-0.04714587888062284,1013.6542000785689
2.455081298828125,-0.021381564129563,0.0190594595912378,-0.0236322200000286,0.000261859036982,8.25459137558e-05,-0.0004557087086141,0.0071773503075486,-0.0027178316806625,-0.9311285002694566,13.848108291625977,15.393898010253906,-33.352264404296875,-0.04725183029749811,1013.654213080209
2.465150390625,0.0147940480985678,-0.0015813326410017,-0.0064233110457658,-0.0005401242524385,0.0026214718818664,-0.0023238826543092,0.0071782882291252,-0.0026988314460194,-0.931140354744456,13.708951950073242,15.412109375,-33.594757080078125,-0.047357791991190654,1013.6542260831103
2.475219482421875,0.0340083763078204,-0.0188229291553143,0.0279950913846492,-0.0013521220535039,0.0022209323942661,-5.5135693401e-05,0.0071596361705022,-0.0026745038887039,-0.9311487224747224,13.828283309936523,15.251663208007812,-33.350128173828125,-0.047463753684883196,1013.6542390860114
2.485287353515625,0.0399038937699515,-0.0152911382999736,0.0461018259614706,0.0014075506478548,0.0014589251950383,0.0006705909036099,0.0071535675377294,-0.0026653275726081,-0.9311418009245568,13.831682205200195,15.299903869628906,-33.253692626953125,-0.0475616455078125,1013.6542511569194
2.4953564453125,0.0363430115341558,0.003158491430385,0.0437076243013143,-0.0007607955485582,-0.0006401785649359,-0.0004761661402881,0.007158075290342,-0.0026531705138042,-0.931151575972457,13.986019134521484,15.21208953857422,-33.400970458984375,-0.0475616455078125,1013.6542519234737
2.50542529296875,0.0190456068791099,0.0126281387689523,0.0220101717561483,0.0001872917637228,3.08812595903e-05,0.000426834449172,0.0071624061296783,-0.002659345713136,-0.9311424547826368,13.855966567993164,15.2945556640625,-33.606292724609375,-0.0475616455078125,1013.6542526900095
2.515493408203125,-0.0012429789485526,0.0217361908200895,-0.0248263982206583,0.0004229815676808,0.000880962703377,-0.0009292471222579,0.007160383129806,-0.0026656807670354,-0.9311344690385736,13.849287033081056,15.32159423828125,-33.477508544921875,-0.0475616455078125,1013.6542534564894
2.525562255859375,-0.0282318113335291,0.0249667428396875,-0.050114568734169,-0.0011620679870247,0.0007097022607922,0.000753819476813,0.0071541138955767,-0.002660167656251,-0.9311342891546232,13.832801818847656,15.516021728515623,-33.861114501953125,-0.0475616455078125,1013.6542542230251
2.53563134765625,-0.0239042099084006,0.0221926704498939,-0.0291658887296915,0.000247542746365,0.0036285268142819,1.079775393e-05,0.0071611548982285,-0.0026436967614173,-0.9311141287906366,13.771379470825195,15.3221435546875,-33.801666259765625,-0.0475616455078125,1013.6542549895794
2.5457001953125,-0.0171910308042773,0.0216547048154054,-0.0109095165491104,-0.0003436850383877,0.003608098719269,0.0019126627594232,0.0071673328959873,-0.002611086349212,-0.9311158829662044,13.732765197753906,15.569747924804688,-33.497406005859375,-0.0475616455078125,1013.654255756115
2.55576806640625,0.0114335769558325,0.0059751791191985,0.0106400519579648,-0.0020036334171891,0.003296775277704,0.0002838731743395,0.0071553800464544,-0.002569777705212,-0.9310983377362466,13.631948471069336,15.439170837402344,-33.719635009765625,-0.0475616455078125,1013.6542565225765
2.5658369140625,0.0342209870120394,-0.0066194820718374,0.0302449161380529,-0.0008607180789113,0.0021158019080758,0.002441459801048,0.0071375612484276,-0.0025283329316033,-0.9310844006722154,13.69426155090332,15.6839599609375,-33.541046142578125,-0.0475616455078125,1013.6542572891121
2.575906005859375,0.0443899622759781,-0.0134596211570315,0.0297977568924427,-0.0026266602799296,0.0046521965414285,0.0015327893197536,0.0071267068498183,-0.0024971632762874,-0.931057465839538,13.890668869018556,15.394630432128906,-33.946441650390625,-0.0475616455078125,1013.6542580556664
2.585973876953125,0.0393176639803685,-0.0065895664241863,0.0269581495523452,-0.0033674882724881,0.0045573893003165,0.0021995715796947,0.0070948343419947,-0.0024376947684875,-0.9310282819407378,13.878997802734377,15.4002685546875,-33.649993896484375,-0.0475616455078125,1013.6542588221279
2.59604296875,0.0159292672401526,0.0010363938430324,0.013793547552824,-0.0032423203811049,0.0038777501322329,0.0018919762223958,0.0070637495097082,-0.0023873345419231,-0.9310079675689744,13.947023391723633,15.274574279785156,-33.446929931640625,-0.0475616455078125,1013.6542595886822
2.60611181640625,-0.0037551604155916,0.0030656620477791,-0.0071516253203153,-0.0043316911906003,0.0099146058782935,0.0010050102137029,0.0070265355559725,-0.0023179454380766,-0.9310031808814928,13.881654739379885,15.545387268066406,-33.249847412109375,-0.0475616455078125,1013.6542603552178
2.616179931640625,-0.0196161778752575,0.0029483192784246,-0.0319862068474292,-0.0037284847348928,0.0053360993042588,0.0005368264392018,0.0069840508914749,-0.00222644714131,-0.9309896262199394,13.742067337036133,15.527366638183594,-33.344451904296875,-0.0475616455078125,1013.6542611216978
2.626248779296875,-0.0084424071996589,0.0025061010694131,-0.0342278482943773,-0.0034539559856057,0.0083408746868371,-0.0002075089141726,0.0069542156645537,-0.0021604081922708,-0.9309922206768072,13.624826431274414,15.42731475830078,-33.470367431640625,-0.0475616455078125,1013.6542618882336
2.63631787109375,-0.0032384978640358,-0.0019435078837443,-0.0236006558179855,-0.0032001556828618,0.0039032488130033,0.0015110289677977,0.0069277270177526,-0.0021112238897131,-0.930993448864824,13.600397109985352,15.438758850097656,-33.814239501953125,-0.0475616455078125,1013.6542626547879
2.646386962890625,0.0052812100722454,-0.0090881189413834,-0.0218032510071992,0.0006988802924752,0.0051089925691485,-0.0010246965102851,0.0069163425348412,-0.0020644633988739,-0.930989716842008,13.809417724609377,15.31658172607422,-33.615447998046875,-0.0475616455078125,1013.6542634213421
2.656455078125,0.020958345165255,0.0033464426173828,-0.018215455648303,0.0022906512022018,-0.0032823618967086,-0.0019160564988851,0.0069483535626416,-0.0021219503151376,-0.931010788616411,13.873109817504885,15.3868408203125,-33.408538818359375,-0.0475616455078125,1013.654264187822
2.66652392578125,0.0294224915559752,-0.0131672323480248,0.0476268435716629,0.00229496601969,-0.0002580126747488,-0.0007263687439262,0.0069428943811973,-0.0020695244271269,-0.931021432976706,13.687370300292969,15.281471252441406,-33.723175048828125,-0.0475616455078125,1013.6542649543578
2.6765927734375,0.0318298198424745,-0.0059841159109026,0.0120107557892799,0.0008022645488381,0.0032981061376631,-0.0028457124717533,0.0069734649421593,-0.002086122777289,-0.93103988524269,14.011709213256836,15.44140625,-33.828338623046875,-0.0475616455078125,1013.6542657208935
2.6866611328125,0.0120215854272595,-0.0227463725096313,0.0386450802147388,0.0017495406791567,-0.0005014184862375,-0.0012380352709442,0.0069884335997125,-0.0020956641139986,-0.9310530859542804,13.68729019165039,15.343284606933594,-34.009613037109375,-0.0475616455078125,1013.6542664873921
2.696729736328125,0.0162605518709984,-0.0383103592345025,0.006622633010149,-0.0012475801631808,-0.0054511693306267,-0.0014220597222447,0.0069882622727702,-0.0021006721415283,-0.9310651691940116,13.547079086303713,15.420555114746094,-33.612335205078125,-0.0475616455078125,1013.6542672539092
2.706799072265625,0.0096744606121093,-0.0292685590862995,-0.0099859719634056,-0.0032773045822978,0.0043111778795719,-0.0003944565542042,0.0069642241402729,-0.0021004647178521,-0.9310787031422804,13.570793151855469,15.473899841308594,-33.967376708984375,-0.0475616455078125,1013.654268020482
2.716866943359375,-0.0065779307853197,-0.00701592947694,-0.0110322661459445,0.0003131693229079,-0.0070115178823471,-0.0021372290793806,0.0069445425768648,-0.0021063898517191,-0.931088760309121,13.561767578125,15.628410339355469,-33.758392333984375,-0.0475616455078125,1013.6542687869435
2.726935791015625,-0.0156173357637482,0.0340572683672886,-0.0402104298353195,-9.38568264245e-05,0.0034817326813936,0.001855821814388,0.0069366757190003,-0.0020848949804533,-0.9310863339577042,13.531866073608398,15.448104858398438,-33.728668212890625,-0.0475616455078125,1013.6542695534791
2.7370048828125,-0.0112803340393234,0.0755210364316822,0.0103682492792606,-0.0012680450454354,0.0042681647464632,0.0030334717594087,0.0069228592750118,-0.002084640867015,-0.9310587972951344,13.544946670532228,15.290771484375,-33.607635498046875,-0.0475616455078125,1013.6542703200334
2.747072998046875,-0.0041781396345933,0.0916094397563021,0.0066284782290458,3.53455543518e-05,-0.0040277256630361,0.0016962578520178,0.0069002115931726,-0.0020916999714639,-0.931037714906113,13.697891235351562,15.41583251953125,-33.716766357421875,-0.0475616455078125,1013.6542710865134
2.7571416015625,0.0217994219321641,0.0638873566267546,0.0030389293044805,-0.0012395093217492,0.0024834363721311,0.0023284922353923,0.0068809619337655,-0.0020856439420816,-0.9310278122130824,13.83218765258789,15.472145080566406,-33.483428955078125,-0.0475616455078125,1013.6542718530305
2.7672109375,0.0232743122237385,0.0185574922853149,0.0075286419391632,-0.0017143683508038,0.0040163691155612,0.0010145376436412,0.0068820154675063,-0.0020529347403307,-0.9310235080192352,13.704662322998049,15.38042449951172,-33.834014892578125,-0.0475616455078125,1013.6542726196034
2.777280029296875,0.0141906708113616,-0.0093392487248172,0.0489770891368389,0.0043549751862883,-0.0067151049152016,0.0010379734449088,0.0068907338534871,-0.0020574474033694,-0.9310184585595064,13.812982559204102,15.626815795898438,-33.985687255859375,-0.0475616455078125,1013.6542733861577
2.787347900390625,0.0178745469558751,-0.0244628941039321,-0.0116308165609836,0.0065263044089078,-0.0094402516260743,0.0005367351695895,0.006935466476591,-0.002143184179379,-0.9310059907717124,13.84934425354004,15.481163024902344,-33.900787353515625,-0.0475616455078125,1013.6542741526191
2.7974169921875,0.0184776137158274,-0.0526084542094031,-0.0177741416215896,0.0083841253072023,-0.0155937522649765,-0.0030835662037134,0.0070103656422897,-0.0022809786817417,-0.9310143854233002,13.877815246582031,15.575393676757812,-33.559173583984375,-0.0475616455078125,1013.6542749191734
2.807486083984375,0.0371370023229042,-0.1058307568676769,-0.0329015681266784,0.0162939447909593,-0.0380578637123107,-0.0021131276153028,0.0071221446242915,-0.002551025823402,-0.9310348926289148,13.874488830566406,15.409034729003906,-33.394134521484375,-0.0475616455078125,1013.6542756857277
2.817553955078125,0.0447050378408283,-0.2227377651534974,-0.0315600903898477,-0.0037476746365427,0.0086300130933523,-0.0038380571641027,0.0071638388742019,-0.0026513676847248,-0.9310590100707546,13.711221694946287,15.278488159179688,-33.668609619140625,-0.0475616455078125,1013.654276452189
2.827622802734375,0.0774537626265082,-0.5517228320863098,0.049392684200406,-0.002568426541984,0.001273829024285,-0.003434588201344,0.0071707762050239,-0.0026796516617446,-0.9311190298311436,13.872779846191406,15.304656982421877,-33.976531982421875,-0.0475616455078125,1013.6542772187247
2.837692138671875,0.0971080097731202,-0.439603606066294,0.0303887085229158,0.0029658880084753,-0.0042181415483355,-0.0059688524343073,0.0071749224629558,-0.0026696667659438,-0.931178377287386,13.753154754638672,15.32843017578125,-33.765716552734375,-0.0475616455078125,1013.6542779852977
2.8477607421875,0.0435074255540966,-0.2853362784129567,-0.0115092360079288,-0.0007109036669135,0.0047392649576067,-0.007560477592051,0.0071739992437106,-0.0026513154185959,-0.9312352627315064,13.88559913635254,15.6314697265625,-33.465606689453125,-0.0475616455078125,1013.6542787518148
2.857828857421875,0.034924386041041,-0.2322853822322562,-0.0023848493099212,0.00840909127146,-0.0038893767632544,0.0148633392527699,0.0072125929671591,-0.002661100085626,-0.9311556237573624,13.670108795166016,15.473175048828123,-34.018218994140625,-0.0475616455078125,1013.6542795182947
2.86789794921875,0.0750518891165498,-0.8387776596538722,-0.0513245290458202,0.0005800472572445,-0.0074654035270214,0.0138073340058326,0.0072877622500807,-0.0027704278231397,-0.931018062677696,13.880815505981444,15.400604248046877,-33.895660400390625,-0.0475616455078125,1013.654280284849
2.877966796875,0.1121335924720857,-0.9112229373354463,0.0977127707332372,0.0066464617848396,-0.0168754160404205,0.0209874827414751,0.0073009137523646,-0.0027980477718884,-0.9308737991221888,14.00624656677246,15.370376586914062,-33.880401611328125,-0.0475616455078125,1013.6542810513847
2.888034912109375,0.0187860380608937,-0.3115477560501545,-0.0187128837764263,-0.0023192036896944,-0.0125251905992627,0.0279919728636741,0.0073393106605264,-0.0029685833118745,-0.9306286122959726,13.879602432250977,15.25444793701172,-33.934967041015625,-0.0475616455078125,1013.6542818178647
2.89810400390625,-0.1141259444662369,0.0503635567928664,0.0233358674019575,-0.0017868373543024,0.0003775586374104,0.0300820209085941,0.0073177256908953,-0.0030109145518766,-0.9303165447012184,13.79591178894043,15.432289123535156,-33.878509521484375,-0.0475616455078125,1013.654282584419
2.9081728515625,-0.0483181868366897,0.1054472374428063,0.0833510679036378,-0.0063902931287884,0.0161154419183731,0.0325796231627464,0.0072431668205526,-0.0028397178445609,-0.9300109001899146,14.012351989746094,14.97833251953125,-34.119476318359375,-0.0475616455078125,1013.6542833509548
2.918240966796875,-0.0478682693784125,0.2117385792932473,-0.1566705711364746,0.0079343169927597,-0.0274101980030536,0.0355639606714248,0.0072633873682646,-0.0028855986588502,-0.9296568238931062,13.726869583129885,15.355438232421877,-34.194183349609375,-0.0475616455078125,1013.6542841174346
2.92831005859375,-0.0595071322485338,-0.045880963452137,-0.0347206002473831,-0.0025618085637688,0.0086208349093794,0.0309407375752925,0.007299657772547,-0.0029652475260481,-0.9292556231212746,13.787111282348633,15.131103515625,-34.013214111328125,-0.0475616455078125,1013.6542848839889
2.93837890625,-0.032272341728874,-0.3920798940755426,0.0736199474841356,-0.0051354868337512,0.0265790615230798,0.0501431934535503,0.0072907723786974,-0.0028737682328486,-0.9288561071712444,13.616849899291992,15.379913330078123,-33.532745361328125,-0.0475616455078125,1013.6542856505247
2.948447998046875,0.0037771918675978,-0.3592116071639582,0.0635971506416797,0.0139237120747566,-0.0161777921020984,0.0548360608518123,0.0073159859987226,-0.0027045780642361,-0.9283143131276737,13.841226577758787,15.369010925292969,-33.979278564453125,-0.0475616455078125,1013.654286417079
2.958515869140625,-0.0050940603195573,-0.0872947274954989,-0.0661409899055957,-0.0038305176421999,0.0349684804677963,0.0678056553006172,0.0073643508372587,-0.0026544534994813,-0.9276670901385672,13.494962692260742,15.14874267578125,-33.880523681640625,-0.0475616455078125,1013.6542871835403
2.9685849609375,0.1252055294857826,-0.5278955644382164,0.1471031168460846,-0.0195097438991069,0.0625947788357734,0.0638490542769432,0.0072964063782207,-0.002437277602831,-0.9269508115945844,13.520034790039062,15.137893676757812,-33.669219970703125,-0.0475616455078125,1013.6542879500946
2.97865380859375,-0.0237645457093836,-0.4194035159394145,0.019310265147686,0.0162253510206937,-0.0413579903542995,0.0683822855353355,0.0073426708877099,-0.0023985349696159,-0.9263538731154568,13.977771759033203,15.272102355957031,-33.622955322265625,-0.0475616455078125,1013.6542887166304
2.988721923828125,-0.0433829178250161,-0.2356108551268465,-0.0791530316919088,-0.003378378227353,0.0069754594005644,0.0485148094594478,0.0073465150016734,-0.002442697043333,-0.9257202316180076,14.011005401611328,14.944671630859377,-33.805084228515625,-0.0475616455078125,1013.6542894831103
2.998790771484375,-0.119703498003399,-0.282340621994622,0.0655488692313432,0.0042161578312516,-0.0119689367711544,0.0445728003978729,0.0073268865873642,-0.002426886348795,-0.9252637287252276,13.91067123413086,14.979026794433594,-33.887786865234375,-0.0475616455078125,1013.654290249646
3.00885986328125,0.0759848362848395,-0.2094599851030856,-0.0954635305017232,0.0024508526548743,0.0023083933629095,0.0667454078793525,0.0073276137234726,-0.0024993433879903,-0.9246519871880444,13.998764038085938,15.047149658203123,-33.929718017578125,-0.0475616455078125,1013.6542910162003
3.01892919921875,0.1378727581561077,-0.0965094410917721,-0.0429436541914939,0.0044016186147928,-0.0031681309919804,0.0597439557313919,0.0073707566780795,-0.0025082761518599,-0.9240381684639608,14.023748397827148,15.310073852539062,-33.805267333984375,-0.0475616455078125,1013.6542917827732
3.028996826171875,0.049233411118621,0.0177887912014499,-0.070784431797266,0.006218516267836,-0.0166837889701128,0.0799581408500671,0.0074292542509927,-0.0026553748061375,-0.923362188935315,14.019975662231444,15.05938720703125,-33.882843017578125,-0.0475616455078125,1013.6542925492159
3.039065673828125,0.1597573947032913,-0.4553343322267755,0.0065612582117319,0.0176567919552326,-0.0271518751978874,0.1073186546564102,0.0075697451119336,-0.0029088500719727,-0.9224903261062368,14.063156127929688,14.952308654785156,-33.925567626953125,-0.0475616455078125,1013.6542933157517
3.049135009765625,0.0957820127332117,-0.776930859810859,0.0973801777780055,0.0116990553215146,-0.0016849366948008,0.0838736295700073,0.0076739761656527,-0.0030227561175852,-0.9214799514553338,14.221729278564451,15.180221557617188,-33.799835205078125,-0.0475616455078125,1013.6542940823246
3.05920263671875,0.0948866073966026,-0.3622407457267865,0.0843622907727956,-0.0094957128167152,0.0120897321030497,0.0789598301053047,0.007663240953943,-0.0030230017917461,-0.9206418328893194,14.113567352294922,15.08544921875,-33.875213623046875,-0.0475616455078125,1013.6542948487673
3.06927197265625,0.0194717667191755,-0.0914813655303791,0.0815203453451395,-0.0057066231966018,0.0004759333096444,0.0588246062397956,0.0076851213589143,-0.0029317030990753,-0.9200228887087338,14.176923751831056,15.1741943359375,-34.015472412109375,-0.0475616455078125,1013.6542956153403
3.079341064453125,0.0247600504196016,-0.1157246118345297,-0.0220277074128389,-0.0001552635803818,0.0162644851952791,0.0571904852986335,0.0076696643205973,-0.0029216412138159,-0.9193948650782362,14.305753707885742,15.175384521484377,-33.825469970703125,-0.0475616455078125,1013.6542963818946
3.089408935546875,-0.0171792901341337,-0.1929458900125697,0.0905091229647398,-0.0064510041847825,-0.0100242905318737,0.0446861982345581,0.0075772654621187,-0.0028411809030425,-0.9189172406188174,14.202465057373049,15.232093811035156,-33.763885498046875,-0.0475616455078125,1013.6542971483559
3.09947802734375,-0.0301158852141932,-0.0856403296182863,-0.1770452506452798,-0.0090180253610014,-0.0153948217630386,0.0771365463733673,0.0075788344977142,-0.0029258262555205,-0.918262872778257,14.479633331298828,15.126213073730469,-33.759796142578125,-0.0475616455078125,1013.6542979149102
3.109546875,-0.0759857359005603,-0.1630468281701207,-0.1330611474901437,0.0049002589657902,0.0185756534337997,0.0679982602596283,0.0076353993740425,-0.0031007055850343,-0.9174794499591352,14.31428337097168,15.0413818359375,-33.707366943359375,-0.0475616455078125,1013.6542986814459
3.119615966796875,-0.0771414726737886,-0.3936081265561282,0.1451087281584739,0.010223651304841,-0.0036849111784249,0.0538550056517124,0.0077147782515828,-0.0031049254090061,-0.9169293281603554,14.19565773010254,15.001121520996094,-33.960723876953125,-0.0475616455078125,1013.6542994480002
3.129683837890625,0.1490099185817875,-0.3511133486432954,-0.0243038356512784,0.0200278460979461,-0.0309060104191303,0.0761881321668624,0.0079281750525621,-0.0033082960929378,-0.9162679450386332,14.105962753295898,15.17462921142578,-34.226654052734375,-0.0475616455078125,1013.6543002144616
3.1397529296875,0.0991260076651815,-0.2470870656480081,0.1673807657212019,-0.0039986614137887,-0.0243162848055362,0.0505046062171459,0.0079310443190797,-0.0033485073680625,-0.9156006594406332,14.30765151977539,14.99150848388672,-33.922027587890625,-0.0475616455078125,1013.6543009810159
3.14982177734375,-0.0043119380651158,0.0204566678369883,-0.0335936420440673,0.0040053073316812,0.0161428488790988,0.0526379905641078,0.0080064949720695,-0.0034971916227472,-0.9151042835205436,14.318038940429688,14.836868286132812,-33.808441162109375,-0.0475616455078125,1013.6543017475516
3.159889892578125,0.0751881283826194,0.1403198042483534,0.0674245999753475,-0.0132959187030792,0.0393560230731964,0.0685029774904251,0.0079305468886208,-0.0032878920116191,-0.9144569856685456,14.471460342407228,14.91119384765625,-33.888702392578125,-0.0475616455078125,1013.6543025140315
3.169958740234375,-0.0229932188435923,0.0054594892485998,-0.016063246050477,-0.007644722238183,0.0386083386838436,0.0524349398910999,0.0078962723745865,-0.0030570558488715,-0.913915347701684,14.646467208862305,14.82696533203125,-33.880828857421875,-0.0475616455078125,1013.6543032805673
3.18002783203125,-0.0399709037247113,-0.4252752575170248,0.0258458043962717,-0.0168392863124609,0.0406821407377719,0.0367332100868225,0.0078273118615897,-0.0028669433059436,-0.9134982059508804,14.603206634521484,14.680168151855469,-33.874298095703125,-0.0475616455078125,1013.6543040471215
3.190096923828125,0.020711603862571,-0.184413057733234,-0.0040723640054464,0.0283280238509178,0.0140458773821592,0.0544254817068576,0.00782176789784,-0.00253932230633,-0.913066812952348,14.713359832763672,14.538604736328123,-34.463958740234375,-0.0475616455078125,1013.6543048136758
3.2001650390625,0.0381573286638362,-0.1143097948668524,-0.1718237166047096,-0.00016407109797,0.0140088591724634,0.0565064772963523,0.0079665304925951,-0.0023956816263138,-0.9124711319142994,14.8404541015625,14.643821716308594,-34.382293701171875,-0.0475616455078125,1013.6543055801558
3.21023388671875,-0.0191589812928228,-0.1648504435259848,0.1335918933659791,0.0073006385937333,-0.0116336606442928,0.0115715414285659,0.0079397708850047,-0.0022425670639402,-0.9120980169780372,14.870851516723633,15.05487060546875,-34.369232177734375,-0.0475616455078125,1013.6543063466916
3.220302978515625,-0.0988575294547248,0.1564284329436719,-0.0432663102746009,1.05015933513e-05,0.0150416251271963,0.0267984326928854,0.0078336657547408,-0.0020043614998853,-0.9119690582045068,15.143037796020508,14.866676330566406,-34.053131103515625,-0.0475616455078125,1013.6543071132459
3.23037109375,0.1395284255417995,-0.2483766122682019,0.0679144293189048,0.0259155724197626,0.01082328800112,0.0705727785825729,0.0078910994141335,-0.0017615650993864,-0.9114151974600444,15.200298309326172,14.639396667480469,-34.272552490234375,-0.0475616455078125,1013.6543078797258
3.240439697265625,0.1526358174613677,-0.411377445872128,0.0743523534119129,0.0013540368527173,-0.0265405960381031,0.0410737507045269,0.0078864628203624,-0.0015722617573083,-0.910896780419144,15.128231048583984,14.801780700683594,-33.771697998046875,-0.0475616455078125,1013.654308646243
3.250509033203125,0.0632039592061657,-0.168390746481344,-0.127053431507945,-0.0214519221335649,0.0279012490063905,0.0725493058562278,0.0077923804921306,-0.0016232824043082,-0.9103797392189952,15.19137954711914,14.807769775390623,-34.192718505859375,-0.0475616455078125,1013.6543094128158
3.260577880859375,0.0854625892980489,-0.3286222615024075,-0.0181102417081594,-0.0138302203267812,-0.0011138920672237,0.0827026069164276,0.0076886601569774,-0.001665248539644,-0.9095958404348604,15.532346725463867,14.721206665039062,-34.119171142578125,-0.0475616455078125,1013.6543101793516
3.270645751953125,-0.2396732822601683,-0.1345291011508554,0.0205015207588672,0.0029006283730268,-0.0028787800110876,0.0772147104144096,0.007628968843339,-0.0016069273748013,-0.9088560722160636,15.477886199951172,14.814552307128906,-34.127716064453125,-0.0475616455078125,1013.6543109458129
3.28071484375,-0.0585394288606941,-0.180201193925552,-0.1698480326175689,0.0012297611683607,-0.0241739489138126,0.0616200342774391,0.0077171974377631,-0.0018584543872598,-0.9081953932100978,15.50445556640625,14.966232299804688,-34.176422119140625,-0.0475616455078125,1013.6543117123672
3.290783935546875,0.0494738094454864,-0.0842850973507389,-0.0056985039025545,-0.0130144031718373,0.0088422484695911,0.0294395759701728,0.0077170339371814,-0.0020084864819251,-0.9077368888024224,15.64674186706543,15.222450256347656,-34.053863525390625,-0.0475616455078125,1013.6543124789215
3.300851806640625,-0.1102400429436005,-0.0697961514122784,-0.0245581026732921,-0.0005316343158483,-0.0065063470974564,0.0375819243490695,0.0077296519296966,-0.0022169646012386,-0.9075415862401326,15.68773078918457,15.172714233398438,-34.233001708984375,-0.0475616455078125,1013.6543132453828
3.3109208984375,0.0226718436854076,-0.1301919213299174,0.1090589251339435,0.0211761053651571,-0.0298257060348987,0.0747230276465416,0.0078423626431715,-0.0022509206373462,-0.9069034867537562,15.68343734741211,15.085365295410156,-33.834014892578125,-0.0475616455078125,1013.6543140119371
3.320989990234375,0.0173176277424558,-0.1132232600054703,0.060875616723299,-0.0011928500607609,-0.0174273587763309,0.0316077843308448,0.0078637005293381,-0.0021779626797098,-0.9063500763279018,16.08612823486328,15.247306823730469,-33.912567138671875,-0.0475616455078125,1013.6543147784914
3.331058837890625,-0.0312398089269176,-0.267763139256183,0.0617605828642845,0.0215204376727342,-0.0129816886037588,0.0710233598947525,0.0079589044193867,-0.002414480414056,-0.9057813342657892,16.043581008911133,15.248771667480469,-34.095977783203125,-0.0475616455078125,1013.6543155450272
3.341126953125,0.0168819054896011,-0.1634417823044583,-0.0235340203225612,-0.0143131930381059,0.0220956057310104,0.0465331934392452,0.0079460858154951,-0.0025150138761511,-0.9052076719932896,15.845691680908203,15.365745544433594,-34.126312255859375,-0.0475616455078125,1013.6543163115072
3.351196044921875,-0.0304508185402723,-0.001374174430035,-0.0189051914781332,0.0134225776419043,-0.0249478612095117,0.052421186119318,0.0080234112705984,-0.0026627919147058,-0.904765407594925,15.91633415222168,15.460128784179688,-34.174163818359375,-0.0475616455078125,1013.6543170780615
3.361264892578125,-0.0103261477201827,-0.1995522294750437,-0.0820616126149892,-0.016188845038414,0.0309974309056997,0.0491510927677154,0.0080480297836497,-0.0029296691612553,-0.9041675049962118,16.039508819580078,15.367332458496094,-34.069671630859375,-0.0475616455078125,1013.6543178445971
3.371332763671875,-0.1233186471601016,-0.1529212285403162,0.1867027213066816,-0.023587092757225,-0.0281849894672632,0.0416934490203857,0.007828695728714,-0.0029890589004727,-0.903786439618028,16.15270233154297,15.49462890625,-34.414337158203125,-0.0475616455078125,1013.6543186110584
3.381402099609375,-0.1030952492228709,-0.121145604836801,-0.2159650561481714,-0.032379787415266,0.0646930187940597,0.061405099928379,0.0077730073850677,-0.002899777011794,-0.9032377190486562,16.55921745300293,15.72577667236328,-34.313323974609375,-0.0475616455078125,1013.6543193776314
3.391470703125,0.0556156869010999,-0.5623067334102466,0.2215928329020738,-0.0039248187094926,0.0240525677800178,0.0243463143706321,0.0076631870895908,-0.0025585069038717,-0.9027539692708856,16.17644691467285,15.765823364257812,-34.043670654296875,-0.0475616455078125,1013.6543201441485
3.4015400390625,-0.0014879666855675,-0.2285992775980383,-0.0718394938081502,0.0084820501506328,-0.0264955610036849,0.0060253627598285,0.0076342598221411,-0.0023507814971177,-0.90257044955516,16.264223098754883,15.946174621582031,-33.938812255859375,-0.0475616455078125,1013.6543209107214
3.41160791015625,-0.104970925167948,0.0111091901399428,-0.0869604905724525,-0.0053448677062988,-0.0294248349964618,0.0154455304145812,0.0076636588793197,-0.0025711695893353,-0.9024231953860136,16.157461166381836,15.72283172607422,-34.190399169921875,-0.0475616455078125,1013.6543216771828
3.4216767578125,0.1205908296314068,-0.0856496637022122,0.2118845088362693,-0.0239917896687984,-0.0049072410911321,0.0125522725284099,0.0074252906317621,-0.0025312898342905,-0.9022023324986744,16.362096786499023,15.867897033691406,-34.004791259765625,-0.0475616455078125,1013.6543224437185
3.43174609375,0.0036519945853506,-0.0031235753806307,-0.0692915628910064,0.0103440796956419,-0.0728484764695167,0.0222440492361783,0.0073872390116739,-0.0029054419771215,-0.9019950396131874,16.33687400817871,16.13701629638672,-34.076202392578125,-0.0475616455078125,1013.6543232102914
3.44181396484375,0.1378839462704025,-0.1689122861374169,-0.1360533150434494,-0.0066274460405111,0.014922390691936,0.0515840947628021,0.0075560855846619,-0.003257126023999,-0.9015662244333263,16.00084114074707,16.17810821533203,-34.130645751953125,-0.0475616455078125,1013.6543239767527
3.451882568359375,0.059298914591642,-0.3340705169709399,0.2281792255550623,-0.0296187959611415,0.0077865072526037,0.0548152960836887,0.0074230028095109,-0.0031172099569069,-0.9010097494042336,16.247119903564453,16.152687072753906,-34.138153076171875,-0.0475616455078125,1013.6543247432699
3.461951904296875,0.0842105342771857,-0.2830837319795042,-0.052689972180128,0.0427179858088493,0.0702682584524154,0.0979039072990417,0.0074952570989728,-0.0029109012012707,-0.9001551414361816,16.257572174072266,16.316375732421875,-33.976104736328125,-0.0475616455078125,1013.6543255098427
3.47202099609375,0.0813704337467439,-0.1442552166016772,-0.0115507370620965,0.0062539689242839,-0.0097311791032552,0.0639195665717125,0.0077358173242796,-0.0026518056243669,-0.8993214050857878,16.508766174316406,16.410987854003906,-33.912506103515625,-0.0475616455078125,1013.654326276397
3.4820888671875,-0.0122070341299171,0.0985330924064852,-0.3090367230772972,-0.0037661753594875,-0.0356626436114311,0.0753453224897384,0.0076978017156944,-0.0029972658503923,-0.8987286650146805,16.3021183013916,16.41637420654297,-34.136749267578125,-0.0475616455078125,1013.6543270428584
3.492157958984375,0.0283372741521336,-0.1481478766586631,0.2179980232805013,-0.0505645275115966,0.1105950474739074,0.0829487890005111,0.0075982712220252,-0.0028591667093235,-0.8979252274004611,16.367156982421875,16.369552612304688,-33.941986083984375,-0.0475616455078125,1013.654327392578
3.502226806640625,-0.0104018524380517,0.0338541013448499,0.0979851579338312,0.0158682949841022,0.027946239337325,0.0764035359025001,0.0076941766716997,-0.0027235699798465,-0.8971906216458887,15.847749710083008,16.345535278320312,-34.294281005859375,-0.0475616455078125,1013.654327392578
3.512294921875,-0.0147754963784362,0.040173792185937,-0.0676566551655531,-0.0108508458361029,0.0069985198788344,0.0889626517891883,0.0076061813381049,-0.0027200853800523,-0.8963432408279906,16.029890060424805,16.437721252441406,-33.975067138671875,-0.0475616455078125,1013.654327392578
3.52236376953125,0.0696235621911939,-0.0381875274392776,0.0574205078333616,0.0079279020428657,0.0130944959819316,0.0776892229914665,0.0078247861353456,-0.0028425163901957,-0.8954788332743339,15.865886688232422,16.608482360839844,-34.221221923828125,-0.0475616455078125,1013.654327392578
3.53243310546875,0.0141947076656622,0.2355714546982198,0.1006762967139482,-0.007652667351067,0.0035841208882629,0.0580956190824508,0.007740551770281,-0.0026835030902468,-0.8947753652353742,16.054765701293945,16.617874145507812,-34.125885009765625,-0.0475616455078125,1013.654327392578
3.542501708984375,0.0582333220535889,0.1492996131102088,-0.2330284191519021,-0.0013502975925803,0.0615094751119613,0.0789950415492057,0.0079154465405128,-0.0026575927924105,-0.8941862685514551,15.67329216003418,16.615821838378906,-34.343841552734375,-0.0475616455078125,1013.654327392578
3.55256982421875,0.2287152138615958,-0.4853546092960983,-0.1226081425368785,-0.0038174744695425,-0.0133902207016944,0.1574858427047729,0.007972285495813,-0.0029520756539306,-0.8930202820798211,15.711977005004885,16.753173828125,-34.119293212890625,-0.0475616455078125,1013.654327392578
3.56263916015625,0.0981799224541056,-0.8273570517774671,0.1142594163864851,-0.0116314552724361,0.0258738286793231,0.1429274082183838,0.0080708942515353,-0.0029773655595535,-0.8915040646134991,15.726360321044922,17.232711791992188,-34.007293701171875,-0.0475616455078125,1013.654327392578
3.5727080078125,-0.1078522710242308,-0.1947848141438327,0.13702186781466,0.0108226686716079,0.0452104471623897,0.1206953674554824,0.0079543327892258,-0.0026893505503036,-0.8901404634482228,15.545515060424805,16.873825073242188,-33.914947509765625,-0.0475616455078125,1013.654327392578
3.582777099609375,-0.2493001751202158,0.2432878377618268,-0.1722942567259073,0.00133569072932,-0.0242123026400804,0.0958904176950454,0.0080391337319761,-0.002990423582475,-0.8891123329453483,15.88831901550293,16.88794708251953,-34.114898681640625,-0.0475616455078125,1013.654327392578
3.592844970703125,0.013938938239729,0.2965089576765894,0.1343207921624183,0.0265043973922729,0.0397111289203166,0.0713933110237121,0.008018789380294,-0.0027795011809931,-0.8882911892056997,15.681207656860352,16.977584838867188,-34.093841552734375,-0.0475616455078125,1013.654327392578
3.6029140625,0.0903095909378025,0.5690397679923102,-0.3536614622235298,-0.01346006244421,0.0126270456239581,0.0738178491592407,0.0081907936727381,-0.0027851621612871,-0.8875462180057022,15.523723602294922,17.1776123046875,-33.858367919921875,-0.0475616455078125,1013.654327392578
3.61298291015625,0.2267863098919391,0.077319751850143,0.3855629133969545,-0.0020609768107533,-0.0182705111801624,0.0256531964987516,0.0080981310344837,-0.0025264873135106,-0.886964804294445,15.582298278808594,17.65418243408203,-33.644439697265625,-0.0475616455078125,1013.654327392578
3.623051025390625,-0.0513213233085814,0.0910870050510857,-0.0660609104067087,-0.0078179324045777,0.0232015624642372,0.0714324042201042,0.0082202656789918,-0.0028234208845524,-0.8864424445529949,15.494930267333984,17.484291076660156,-33.618072509765625,-0.0475616455078125,1013.654327392578
3.633119873046875,0.0728748738710302,0.0689513163522817,-0.018774843096733,-0.0102509912103414,0.0343593917787075,0.067338153719902,0.0082060966126392,-0.0028383732071929,-0.8857504685396834,15.39600944519043,17.405715942382812,-33.610015869140625,-0.0475616455078125,1013.654327392578
3.64318896484375,0.1417158799829427,-0.0241917992447037,0.22424831584692,-0.0074837002903223,0.0005364483222365,0.0807626172900199,0.0081075514596118,-0.0027018220741422,-0.8850575325112836,15.36781120300293,17.360939025878906,-33.708282470703125,-0.0475616455078125,1013.654327392578
3.653258056640625,-0.0002409485994256,0.2186534549819305,-0.2227279744118452,0.0223557725548744,-0.0219540167599916,0.0713801234960556,0.0081821589212031,-0.0027984032367269,-0.8843228605800042,15.55588150024414,17.12921142578125,-33.902618408203125,-0.0475616455078125,1013.654327392578
3.663325927734375,0.0454434990500565,0.1221620610035024,-0.2427870121002197,-0.0126347010955214,0.0731288194656372,0.0752433091402053,0.008276250009003,-0.0027877326248966,-0.8835106315121455,15.453702926635742,17.437911987304688,-33.703582763671875,-0.0475616455078125,1013.654327392578
3.673394775390625,-0.020184586597071,-0.0858861576055176,0.1489794321119785,-0.008939579129219,0.0410979725420475,0.0478313788771629,0.008225173072923,-0.0023668759769282,-0.882934691216711,15.319992065429688,17.47808074951172,-33.229583740234375,-0.0475616455078125,1013.654327392578
3.683464111328125,-0.1274834934882819,0.0227806629383005,0.0571142183631658,0.006952834315598,0.0337087661027908,0.0470582619309425,0.0081366694725006,-0.0021218332352515,-0.8824142609982253,15.06729507446289,17.403564453125,-33.486968994140625,-0.0475616455078125,1013.654327392578
3.69353173828125,-0.031478515336907,0.1173896041709929,-0.2029693809747695,-0.0066185845062136,0.0030582379549741,0.0304307751357555,0.0082626166430445,-0.0022680694270365,-0.882023669712081,14.866521835327148,17.604644775390625,-33.449310302734375,-0.0475616455078125,1013.654327392578
3.70360107421875,-0.0556729974457528,0.1260963134462013,0.1768114418894052,-0.0064843604341149,-0.0304243564605712,0.0147631336003541,0.0082196664022985,-0.0024101763396356,-0.8818496626253463,14.910364151000977,17.53630828857422,-33.479949951171875,-0.0475616455078125,1013.654327392578
3.713670166015625,0.0107539971938356,0.0302874583718366,0.2908522470891475,-0.0083976443856954,-0.0063272574916481,0.0222396217286586,0.0080476543367522,-0.0022563453862683,-0.8815957432269084,14.645631790161133,17.699020385742188,-33.127655029296875,-0.0475616455078125,1013.654327392578
3.723739013671875,-0.0513556000375188,0.2812292997518554,-0.1998170544236898,-0.0059912130236625,-0.0455779880285263,0.0094868075102567,0.0080323518745441,-0.0026368091509279,-0.8814780863858172,14.97023582458496,17.86046600341797,-32.906280517578125,-0.0475616455078125,1013.654327392578
3.73380712890625,0.0078624496039468,0.1746339517198503,-0.1808154168337583,0.0138520188629627,0.0307627767324447,-0.0113302143290638,0.0080116486136213,-0.0027854820790694,-0.8815493267380405,14.935123443603516,18.01538848876953,-32.901153564453125,-0.0475616455078125,1013.654327392578
3.7438759765625,-0.1084990718946326,-0.1507343677542172,0.2464057871192693,-0.0072292983531951,0.0397623963654041,-0.0060481010004878,0.0080364412760551,-0.0024708015947403,-0.8816905485438951,14.822507858276367,17.71453857421875,-33.374664306640625,-0.0475616455078125,1013.654327392578
3.753945068359375,-0.0051713450731593,0.1053408818583469,-0.1617979971528053,0.005954279564321,-0.0325543992221355,-0.0082018468528985,0.0079647651171459,-0.002387176092605,-0.8817820195161925,14.512208938598633,17.88861846923828,-33.016876220703125,-0.0475616455078125,1013.654327392578
3.764012939453125,0.1911560109211131,0.12251835449473,-0.1706377216905355,0.0258121397346258,-0.0584291368722915,0.0163309257477521,0.008083692280227,-0.0024790211509678,-0.8817169175258985,14.424135208129885,17.800979614257812,-32.909759521484375,-0.0475616455078125,1013.654327392578
3.77408203125,0.1643544036373496,-0.2467298314418643,0.1540659415960311,0.007298563607037,0.0044039329513907,0.0257814303040504,0.0082116241310272,-0.0024620857712514,-0.8815054051844261,14.040040969848633,17.878463745117188,-32.955108642578125,-0.0475616455078125,1013.654327392578
3.78415087890625,0.0336994519225438,-0.0669594484153203,0.0744604899615049,0.0058689787983894,-0.02878038585186,0.0421726554632186,0.0081867750853908,-0.002475169513549,-0.8812140713992181,13.939861297607422,17.908645629882812,-32.945587158203125,-0.0475616455078125,1013.654327392578
3.794219970703125,0.0401358302291482,0.1941540602259338,-0.1485129836440086,0.0114205675199627,-0.0222794562578201,0.0329626947641372,0.0082931712643479,-0.0026584845477051,-0.880762505322437,14.137495040893556,18.07689666748047,-32.722503662109375,-0.0475616455078125,1013.654327392578
3.804287841796875,-0.1030017622531391,-0.0027185473768506,0.0421124640643596,0.0233557894825935,-0.0306042302399873,0.0479280613362789,0.0083593566417688,-0.0029398436758365,-0.8803340673721085,13.812044143676758,18.08942413330078,-32.925994873046875,-0.0475616455078125,1013.654327392578
3.81435693359375,0.0401116821685805,-0.2148724020732566,0.1446229904681444,0.0118135837838053,-0.0364554673433303,0.0135970087721943,0.0082863491428838,-0.0028391339134919,-0.8798855679273312,13.938217163085938,18.38763427734375,-33.033905029296875,-0.0475616455078125,1013.654327392578
3.824426025390625,-0.0497450139025691,0.1528902854127809,-0.2032926215797662,0.0059399819001555,0.0143318129703402,0.007238445803523,0.0083884194680709,-0.0028315764836041,-0.8797570995632542,14.072612762451172,18.353530883789062,-32.828338623046875,-0.0475616455078125,1013.654327392578
3.834494140625,-0.0579616381058935,0.1571897361723706,0.0584276390492916,-0.0244750306010246,-0.0296085458248853,0.0224843043833971,0.008323300744857,-0.0028634647420991,-0.8794844246082221,13.859663009643556,18.43274688720703,-32.658843994140625,-0.0475616455078125,1013.654327392578
3.84456298828125,-0.1059192480018828,0.0997775029770098,-0.209576231893897,0.0141930021345615,-0.0553221628069877,-0.033728901296854,0.0082672182312497,-0.0031306289259337,-0.8795255767196182,13.894975662231444,18.318572998046875,-32.586517333984375,-0.0475616455078125,1013.654327392578
3.854632080078125,0.0127861217926605,-0.2398447846358641,0.186216983616352,0.0040011322125792,-0.0082829371094703,-0.0330637767910957,0.0082880952752507,-0.0030129141962638,-0.8797499413413072,13.793201446533203,18.378219604492188,-33.038360595703125,-0.0475616455078125,1013.654327392578
3.864701171875,0.008323913652834,-0.1567307220921851,0.1711234593808651,0.0274023283272981,0.0225924216210842,-0.0094268908724188,0.008142149295834,-0.0027257278352454,-0.8799055674585938,13.518909454345703,18.37342834472656,-32.932342529296875,-0.0475616455078125,1013.654327392578
3.874768798828125,0.2415969803317449,-0.1615016445547342,-0.0455541289508342,0.0022310828790068,-0.0158085841685533,0.009846031665802,0.0082660072105918,-0.0024193245477448,-0.87988902826621,13.268938064575195,18.642608642578125,-32.769012451171875,-0.0475616455078125,1013.654327392578
3.884838134765625,0.1583027754481882,-0.0957268119472544,-0.1651087291359901,-0.0026824492961168,-0.0128372944891452,0.0397956743836402,0.0081677487462085,-0.0025163782820275,-0.8796764437506202,13.2503662109375,18.754844665527344,-32.659088134765625,-0.0475616455078125,1013.654327392578
3.894906982421875,0.0046290663064457,0.1164067306134849,-0.0412093777447938,0.0232116505503654,0.016740083694458,0.0472317636013031,0.0082386841827593,-0.0022879091370839,-0.8791379175196777,13.19264030456543,18.817222595214844,-32.854034423828125,-0.0475616455078125,1013.654327392578
3.90497607421875,0.0565688914061291,0.1673873598587699,0.0235948105990886,-0.0254680030047893,0.054027535021305,0.0224177613854408,0.0081424588314575,-0.0021216429568609,-0.8787722755558016,13.202550888061523,19.135787963867188,-32.797393798828125,-0.0475616455078125,1013.654327392578
3.9150439453125,-0.0024701666729291,0.0151692198202013,-0.0594523059219121,-0.000922730192542,0.025606358423829,-0.0216443464159965,0.0081387172512654,-0.0020522596135811,-0.878860410162313,13.156097412109377,18.98644256591797,-32.438507080078125,-0.0475616455078125,1013.654327392578
3.925113037109375,-0.0723699793890817,-0.3580686111412942,0.0755108757972717,-0.0049254614859819,-0.0118022672832012,-0.0306615456938743,0.0082260245171167,-0.002202911850161,-0.8790015127194668,12.66733169555664,19.00267791748047,-32.368011474609375,-0.0475616455078125,1013.654327392578
3.93518212890625,-0.1169501989735756,-0.0826478515377268,-0.0819078833580017,0.0058238832280039,0.0073886304162442,-0.0418971292674541,0.0082502147660033,-0.0021125581208426,-0.8794127565453337,12.904258728027344,19.41553497314453,-32.260223388671875,-0.0475616455078125,1013.654327392578
3.94525,-0.0259604369020205,-0.2503545247450471,0.2151280208021402,-0.0130203776061534,0.0034317062236368,0.0100262546911835,0.0081929585756848,-0.002083067992456,-0.8795376635467671,13.16995620727539,19.27032470703125,-31.798004150390625,-0.0475616455078125,1013.654327392578
3.955319091796875,0.1494402728230692,0.1748166513429954,-0.1115349598586559,0.0183819532394409,0.0044543547555804,-0.0277099143713712,0.0082591692504926,-0.0020246255435025,-0.8796260399713945,12.753702163696287,19.55216217041016,-31.90072631835937,-0.0475616455078125,1013.654327392578
3.965387939453125,-0.0425329636319074,0.2906138717560097,-0.1881523355931043,-0.0488889627158641,0.0373779498040676,-0.0017869707662612,0.0082263796389411,-0.0022852383246798,-0.8798223409996926,12.674234390258787,19.725570678710938,-31.790802001953125,-0.0475616455078125,1013.654327392578
3.97545703125,0.2240648125061765,-0.1422610836423933,0.3056634472519159,0.0256807953119277,0.024675540626049,-0.0074324244633316,0.0081222797852828,-0.0021116289287463,-0.8799016053015281,12.81584930419922,19.60444641113281,-31.72201538085937,-0.0475616455078125,1013.654327392578
3.985525146484375,0.0624512137432582,0.0501171168842818,-0.1621001949697733,-0.0343071743845939,0.0093040410429239,0.0074378680437803,0.0081318536901352,-0.0018974902289721,-0.8799338332018131,12.468875885009766,19.711685180664062,-31.611968994140625,-0.0475616455078125,1013.654327392578
3.995593994140625,0.1261498337317258,-0.1703837469294667,0.1702542753309011,0.0122146559879183,-0.0363649204373359,0.0280281454324722,0.0080316634262204,-0.0018163993440878,-0.8797461394505557,12.083406448364258,20.055213928222656,-31.720733642578125,-0.0475616455078125,1013.654327392578
4.005662841796875,0.0174895947673881,-0.0267891131283715,-0.1549181745111942,-0.0166457537561655,0.0362879782915115,0.0240184925496578,0.0081326168790494,-0.0019513545850284,-0.8794347813366179,12.030481338500977,20.297401428222656,-31.36703491210937,-0.0475616455078125,1013.654327392578
4.015731201171875,-0.0575049347138032,0.0273990251876413,0.1147282029420137,0.0189727917313575,-0.0328296981751918,0.0083259111270308,0.0081498475100668,-0.0019029164636149,-0.8793435015833233,11.860673904418944,20.263023376464844,-31.00375366210937,-0.0475616455078125,1013.654327392578
4.0257998046875,0.1309895014483947,0.1428627027973532,-0.2040022311538457,-0.0120610240846872,-0.0032896501943469,0.0272367522120475,0.0081746000283199,-0.0018979255519959,-0.8790840531256296,11.751226425170898,20.265350341796875,-30.877410888671875,-0.0475616455078125,1013.654327392578
4.035869140625,0.0633999612688785,0.0945071156928781,0.1973281602174043,0.0012714974582195,-0.0211866553872823,0.0473013930022716,0.0081417725624609,-0.0019179424657498,-0.8787780450322278,11.428434371948242,20.512245178222656,-30.682830810546875,-0.0475616455078125,1013.654327392578
4.045937744140625,0.0730859182392479,0.2000490000160411,-0.0832394242227077,-0.0151783153414726,0.0389800108969211,0.0345443189144134,0.0081160846687002,-0.0018832947375498,-0.8783840103134298,11.248079299926758,20.69353485107422,-30.660186767578125,-0.0475616455078125,1013.654327392578
4.056005859375,-0.0293530179327819,-0.2403263576077297,0.091230422976613,0.0064625600352883,-0.0073716128244996,-0.0085123116150498,0.0082542452632132,-0.0016760724566294,-0.8782133815054394,11.153881072998049,20.51226043701172,-30.29794311523437,-0.0475616455078125,1013.654327392578
4.066074951171875,0.0419886732879094,-0.1653204721905291,0.0924351225912571,0.0159029327332973,-0.0810713991522789,0.0168740060180425,0.0081665086907737,-0.0016571970615805,-0.8781409346381329,10.63876724243164,20.669692993164062,-30.416961669921875,-0.0475616455078125,1013.654327392578
4.07614404296875,0.0804088587055914,0.2435219570449553,-0.0307160407811403,0.0211753472685813,0.0158689059317111,0.0149316526949405,0.0081393040301562,-0.0017297532763104,-0.8779073852535537,10.26456069946289,20.62388610839844,-30.036590576171875,-0.0475616455078125,1013.654327392578
4.086211669921875,-0.0860030071845278,0.2652856614930555,-0.0138163439065217,0.0006876494735479,0.0404275134205818,0.0157681517302989,0.0082986528594834,-0.001529869108252,-0.877793644899197,10.032512664794922,20.852378845214844,-30.330108642578125,-0.0475616455078125,1013.654327392578
4.096281005859375,0.0554268634978449,0.0021402451653964,0.1045581065833568,-0.0038586147129535,-0.0199088789522647,0.0359350480139255,0.008152905163589,-0.0015626639223782,-0.877611832782655,9.674489974975586,21.069580078125,-29.956939697265625,-0.0475616455078125,1013.654327392578
4.10635009765625,-0.0696579987503355,-0.0545216354535426,-0.0329541750967502,0.0362765565514564,-0.036938726902008,0.0328468456864357,0.0080970453673738,-0.0015486456803672,-0.8772628432892806,8.930984497070312,21.17881774902344,-29.375457763671875,-0.0475616455078125,1013.654327392578
4.1164189453125,-0.0075794485361489,-0.0290938281404785,-0.10074760838449,0.0062362058088183,-0.0679865479469299,0.0015552472323179,0.0081875210545491,-0.0015922775443725,-0.8769879013168939,8.657907485961914,21.326927185058597,-29.309112548828125,-0.0475616455078125,1013.654327392578
4.126487060546875,0.0352246521958266,0.0884363900776021,0.1258200903207063,-0.0075347330421209,0.026671253144741,0.0249860063195228,0.0079804885742793,-0.0015930644896552,-0.8768894327991763,8.014257431030273,21.34667205810547,-29.13241577148437,-0.0475616455078125,1013.654327392578
4.136555908203125,0.0292859234963427,0.1832322687171399,-0.0354810632258653,-0.0009349808096885,0.0320416204631328,0.0150580061599612,0.0079118688570349,-0.0013994635087418,-0.8767899939531011,7.306151866912842,21.46990966796875,-28.912872314453125,-0.0475616455078125,1013.654327392578
4.146625,0.0287413888404611,0.0509786838833708,-0.0860609113842248,-0.0247042272239923,0.0196067877113819,0.0262632556259632,0.0079145258166385,-0.0015270459752952,-0.876729135972029,7.026306629180908,21.58611297607422,-28.703277587890625,-0.0475616455078125,1013.654327392578
4.15669287109375,0.083679852333432,0.0919615137301385,-0.1254611938804388,0.1613548398017883,0.0063206423074007,-0.0092065259814262,0.0085688525212024,-0.0009646462401183,-0.8765519487672154,6.554623126983643,21.603790283203125,-28.536651611328125,-0.0475616455078125,1013.654327392578
4.16676220703125,-0.0503332484195707,0.501416686302796,-1.083669096687436,0.014886568300426,0.0444496497511863,0.0054664257913827,0.0094739179832467,-0.0006963254521733,-0.8766154265909241,6.0062031745910645,21.688621520996094,-28.205108642578125,-0.0475616455078125,1013.654327392578
4.176830810546875,0.1692035607015714,-1.2055609076485037,1.4441595281481745,0.0204997174441814,-0.0850902497768402,0.0283670481294393,0.0094829160598211,-0.0004235367607173,-0.8763616647692867,4.692356586456299,21.241943359375,-27.420379638671875,-0.0475616455078125,1013.654327392578
4.186900146484375,-0.0596954259288264,0.0620604151942301,-0.3639198213875294,0.0006479825824499,0.0427896827459335,0.0271100345999002,0.0095786695413577,-0.0002451691108435,-0.8759407638616481,3.827225208282471,21.272987365722656,-27.679168701171875,-0.0475616455078125,1013.654327392578
