Timestamp,Acc x (m/s^2),Acc y (m/s^2),Acc z (m/s^2),Gyro x (rad/s),Gyro y (rad/s),Gyro z (rad/s),Beccheggio/Pitch (rad/s),Rollio/Roll (rad/s),Imbardata/Yaw (rad/s),Mag x (microTesla),Mag y (microTesla),Mag z (microTesla),Altitudine (m),Pressione (milliBar)
0.0280869140625,-0.1499284033998847,-0.0026515374220907,0.0024064766198396,0.0289835296571254,-0.0537708699703216,-0.0528197325766086,0.0847155544276914,0.072573226913391,2.332088264610875,-15.57590103149414,-17.265670776367188,-33.604766845703125,-0.031707763671875,1013.6824035644532
0.03815625,-0.1666835772372782,0.0010961246736347,0.06182488027215,0.023038288578391,-0.0391304083168506,-0.0602369047701358,0.0849000062309087,0.0721286556889451,2.3315015616896027,-15.58273696899414,-17.41131591796875,-34.005401611328125,-0.031707763671875,1013.6824035644532
0.048224853515625,-0.1697138848438859,0.0196031836796551,0.2094002908051014,0.0009398264810442,-0.0213308315724134,-0.069550059735775,0.0849104118636827,0.0718562087519371,2.3308334919162306,-15.668399810791016,-17.86761474609375,-34.259246826171875,-0.031707763671875,1013.6824035644532
0.058294189453125,-0.1293006259128451,-0.0033128508750349,0.2769166607171296,-0.0294335260987281,-0.0097359614446759,-0.0760425850749015,0.0846325653234737,0.0717151907752222,2.330105103486669,-15.698637008666992,-18.58216094970703,-34.567413330078125,-0.031707763671875,1013.6824035644532
0.068362060546875,-0.0686489541385322,-0.0706448041308671,0.253773101016879,-0.0528331100940704,-0.0135688968002796,-0.0793495029211044,0.0841124167946819,0.0716149439502449,2.3293518189304128,-15.710233688354492,-18.914535522460938,-34.348541259765625,-0.031707763671875,1013.6824035644532
0.07843115234375,-0.0394255630679428,-0.0969834335453808,0.2277098544776439,-0.0713378190994262,-0.027205878868699,-0.0787220671772956,0.0834078018330032,0.0714066223843619,2.328607364287067,-15.89909553527832,-18.947433471679688,-34.287994384765625,-0.031707763671875,1013.6824035644532
0.088500244140625,0.0182017193838953,-0.0800330293968319,0.1686006629049778,-0.081264816224575,-0.0387477278709411,-0.0700021386146545,0.0825852147000283,0.0710776541006206,2.327912253077489,-15.653858184814451,-18.750511169433597,-34.489898681640625,-0.031707763671875,1013.6824035644532
0.098568115234375,0.0641143794488161,-0.0533257858656346,0.0743020845293998,-0.0903224945068359,-0.0428101122379303,-0.0570016503334045,0.0816739253289634,0.0706605764579035,2.3273373997892537,-15.717903137207031,-18.632164001464844,-34.330291748046875,-0.031707763671875,1013.6824035644532
0.108637451171875,0.070228551480174,-0.0280349119383841,0.0206441440999507,-0.0767830163240432,-0.0292089246213436,-0.0494640506803989,0.080786210926653,0.0702892933569223,2.32685956673379,-15.6807861328125,-18.343727111816406,-34.315277099609375,-0.031707763671875,1013.6824035644532
0.1187060546875,0.0820598590493202,-0.0280270208928734,-0.0477758966535329,-0.0562580339610576,-0.0178558677434921,-0.0380292385816574,0.080098147080946,0.0700388427994674,2.32646718026185,-15.758184432983398,-18.251220703125,-34.478973388671875,-0.031707763671875,1013.6824035644532
0.128775146484375,0.0940249490659684,-0.0075137366309761,-0.0580862782657146,-0.033682681620121,-0.0104885306209325,-0.022660844027996,0.0796402378484667,0.0698834311546369,2.326198466672092,-15.293052673339844,-18.005149841308594,-34.487945556640625,-0.031707763671875,1013.6824035644532
0.13884326171875,0.092854809308052,-0.0051388241931796,-0.035158991664648,-0.019625985994935,-0.0232250969856977,-0.014848462305963,0.079378047805123,0.0696950662565418,2.326030237866882,-15.42483901977539,-18.18519592285156,-34.520721435546875,-0.031707763671875,1013.6824035644532
0.148911376953125,0.1180635579098016,-0.0188799109064042,-0.0012134674429893,-0.0143471173942089,-0.0269218869507312,-0.0058751683682203,0.0792428981194379,0.0694416761281554,2.325953169462136,-15.363121032714844,-18.362403869628903,-34.441986083984375,-0.031707763671875,1013.6824035644532
0.158980224609375,0.1125134495019912,0.0146174311563372,0.0623679011076688,-0.020382372662425,-0.0245596636086702,-0.0047246827743947,0.079102938771527,0.06918145259796,2.3259118850075566,-15.48931884765625,-18.14839172363281,-34.631866455078125,-0.031707763671875,1013.6824035644532
0.169049560546875,0.0813153242923319,0.0338407486729323,0.082709262868762,-0.0298217646777629,-0.0181951690465211,-0.0084017924964427,0.078895774569179,0.0689883940243056,2.325866977253769,-15.299962997436523,-18.1317138671875,-34.547698974609375,-0.031707763671875,1013.6824035644532
0.1791171875,0.0811614489048719,0.0412746980659663,0.0740729519486427,-0.0361813940107822,-0.0217808485031127,-0.0035569700412452,0.0786000594993524,0.0688184510311955,2.3258300019595497,-15.398796081542969,-18.1829833984375,-34.406280517578125,-0.031707763671875,1013.6824035644532
0.1891865234375,0.1031415908489376,0.0205859111066907,0.043355742123723,-0.037986185401678,-0.0206896476447582,0.0006403820589184,0.0782440495471275,0.0686187708493287,2.325839893841005,-15.18167495727539,-18.39009094238281,-34.351165771484375,-0.031707763671875,1013.6824035644532
0.19925537109375,0.09489610587731,-0.0074416212428361,0.0319675021469593,-0.0499323271214962,-0.0153460148721933,-0.0022390277590602,0.0778108679290027,0.0684646174726878,2.3258685729217747,-15.043325424194336,-18.02764892578125,-34.647430419921875,-0.031707763671875,1013.6824035644532
0.20932421875,0.085909520214796,0.0106309918686747,0.0638426498353481,-0.0549115538597106,-0.0060870428569614,0.0004688701592385,0.0772717718615117,0.0684012367411955,2.3259003219221963,-15.23777198791504,-18.263648986816406,-34.027130126953125,-0.031707763671875,1013.6824035644532
0.219392333984375,0.0967476520281285,0.0167489632923156,0.0275906022369861,-0.0459111332893371,-0.005585303530097,0.0054633622057735,0.0767496766008259,0.0683765531581106,2.325980576745225,-15.479949951171877,-18.26069641113281,-34.203094482421875,-0.031707763671875,1013.6824035644532
0.22946142578125,0.1050048274375498,0.0142828654397279,-0.0228232417047023,-0.0269235633313655,-0.0147954765707254,0.0131254866719245,0.0763903407360478,0.0683105359334708,2.326109435400442,-15.439531326293944,-18.224937438964844,-34.594146728515625,-0.031707763671875,1013.6824035644532
0.239530517578125,0.1288711484543979,0.0087515347976237,-0.0733802935093641,-0.0056251976639032,-0.0068171778693795,0.0151713266968727,0.0762378411951998,0.0682254595662748,2.3262663687461167,-15.503807067871094,-18.10772705078125,-34.207489013671875,-0.031707763671875,1013.6824035644532
0.249599365234375,0.1272404785126447,0.0185172150738537,-0.066071431800723,0.0042868051677942,0.0050693908706307,0.0224054306745529,0.0762571635847196,0.0682393314393978,2.326456653359957,-15.51646614074707,-18.228500366210938,-34.528411865234375,-0.031707763671875,1013.6824035644532
0.25966748046875,0.0970556219987571,0.0235552092410624,-0.0302349792659282,-0.003439825028181,0.0123020038008689,0.0166386216878891,0.0762673848889987,0.0683424510764078,2.3266607937716763,-15.261796951293944,-18.24720001220703,-34.280914306640625,-0.031707763671875,1013.6824035644532
0.269736328125,0.0924112302590161,0.0121790980935096,-0.0118120183467864,-0.0203722342848777,-0.0031753608491271,0.0170081481337547,0.0761751897911316,0.0684192422682312,2.3268496562553915,-15.227981567382812,-17.967872619628906,-34.532623291015625,-0.031707763671875,1013.6824035644532
0.279805419921875,0.0615401450466364,0.0243309428539127,0.004481529328227,-0.0360161773860454,-0.021871019154787,0.0051775882020592,0.0759029229324195,0.0682997894713857,2.32698402591689,-15.224807739257812,-17.90790557861328,-34.671844482421875,-0.031707763671875,1013.6824035644532
0.289873291015625,0.0424566743921488,0.0038050913713872,0.0284632934182882,-0.0476263277232646,-0.0323519743978977,-0.0076543353497982,0.0754718409938383,0.0680449633612103,2.327001753682344,-15.334077835083008,-17.875953674316406,-34.400604248046875,-0.031707763671875,1013.6824035644532
0.2999423828125,0.0126774030044674,-0.0100983462966978,0.0115402156680822,-0.0462268367409706,-0.037109974771738,-0.0153918843716382,0.0749834856777374,0.0677051747160976,2.326921602787003,-15.174541473388672,-17.949813842773438,-34.223236083984375,-0.031707763671875,1013.6824035644532
0.31001123046875,-1.5270634368e-05,-0.0166475487444549,0.0286795665174722,-0.0449176095426082,-0.0263836719095706,-0.024887453764677,0.0745127015180872,0.0674240160522972,2.3267477461410797,-15.220930099487305,-18.052001953125,-34.193817138671875,-0.031707763671875,1013.6824035644532
0.320080322265625,-0.039934754699096,-0.0064914809111505,0.0385650007158517,-0.039329495280981,-0.0246289148926734,-0.0285437069833278,0.0740670085796888,0.0672189651650251,2.326486024954637,-15.474271774291992,-18.110694885253903,-34.503143310546875,-0.031707763671875,1013.6824035644532
0.330148193359375,-0.0728274088669568,-0.0224570387408137,-0.0250298118382692,-0.0383823476731777,-0.0289687849581241,-0.0286252424120903,0.0736432643771245,0.0669993305735738,2.3262157153405907,-15.377080917358398,-17.96441650390625,-34.230194091796875,-0.031707763671875,1013.6824035644532
0.340217529296875,-0.075522785430774,0.0006276303790509,-0.0572176787376403,-0.0335862599313259,-0.0307602956891059,-0.0261349231004714,0.0732649025794639,0.0667523158850622,2.3259641953521304,-15.208602905273438,-17.9808349609375,-34.142791748046875,-0.031707763671875,1013.6824035644532
0.35028662109375,-0.1077392939027398,0.0557152382854372,-0.0547369678378105,-0.0279301535338163,-0.0256130080670118,-0.019788259640336,0.0729457532829849,0.0665099737899312,2.3257533262841648,-15.217077255249023,-18.1746826171875,-34.094512939453125,-0.031707763671875,1013.6824035644532
0.360355224609375,-0.1326208563767373,0.0598169014506042,-0.0517792870759964,-0.0076043773442506,-0.0224230736494064,-0.0177986118942499,0.0727531420540179,0.0663139813572012,2.325583197373366,-15.373022079467772,-18.086227416992188,-34.256683349609375,-0.031707763671875,1013.6824035644532
0.370423583984375,-0.1479472395200282,0.0400027053687721,-0.0585340220332145,0.0109687400981783,-0.0285881329327821,-0.0181583520025014,0.072762101804166,0.0661058566184542,2.325402648974573,-15.385126113891602,-18.07166290283203,-33.895111083984375,-0.031707763671875,1013.6824035644532
0.380492431640625,-0.1194789046004414,0.0373296137019991,-0.0624205080777406,0.0065162014216184,-0.0397523716092109,-0.0295942313969135,0.0728406831773426,0.0657804353666643,2.325154414192109,-15.488006591796877,-17.939712524414062,-33.847686767578125,-0.031707763671875,1013.6824035644532
0.3905615234375,-0.1161803014464676,0.0208973882086575,-0.0611181933075189,-0.0060982927680015,-0.0444082617759704,-0.0367377027869224,0.0728282379940863,0.0653963944147884,2.324823438601991,-15.464649200439451,-18.241432189941406,-34.010345458984375,-0.031707763671875,1013.6824035644532
0.40063037109375,-0.1135795443635433,-0.0141293553784489,-0.0353057066589593,-0.0096410941332578,-0.0523226410150527,-0.0368428975343704,0.0727199604131709,0.0649300967456993,2.324453835616733,-15.309226989746094,-18.008819580078125,-34.503631591796875,-0.031707763671875,1013.6824035644532
0.410698486328125,-0.0884049172271043,-0.0249178758963942,0.0077045830279588,-0.0167804807424545,-0.0292224343866109,-0.034975741058588,0.0725807767240784,0.064511855114137,2.3241058969388786,-15.176803588867188,-18.01361083984375,-33.846466064453125,-0.031707763671875,1013.6824035644532
0.420767333984375,-0.090314769436419,-0.0282316035542637,0.0739478642642497,-0.0216165147721767,-0.0026731148827821,-0.0290624573826789,0.0723643688865019,0.064353892227975,2.3237828620559955,-15.376951217651367,-18.05731964111328,-33.886444091796875,-0.031707763671875,1013.6824035644532
0.43083642578125,-0.0779334998343139,0.0045716918297111,0.0766021781653165,-0.018643096089363,0.0200058333575725,-0.024794477969408,0.0721229326028497,0.0644487155326026,2.323538448623636,-15.45612907409668,-18.08049774169922,-34.312225341796875,-0.031707763671875,1013.6824035644532
0.440905517578125,-0.0403677392888814,0.0422319987908005,0.0454570983171463,-0.0097169810906052,0.0280376598238945,-0.0260624065995216,0.071934401133066,0.0646924261673093,2.323306607213348,-15.468599319458008,-17.909622192382812,-34.281036376953125,-0.031707763671875,1013.6824035644532
0.450973388671875,-0.0483615875869989,0.0515685669347643,-0.0093996965080499,-0.0007716082036495,0.0177556816488504,-0.0316720977425575,0.0718486443806524,0.0649284459181786,2.323035325620491,-15.396228790283203,-17.967910766601562,-34.224334716796875,-0.031707763671875,1013.6824035644532
0.46104248046875,-0.0554340101912617,0.0132988228384405,-0.0719739338427782,0.0083931284025311,-0.0139561761170625,-0.0357022620737552,0.0718677712954637,0.0649479096383462,2.32268878195126,-15.309938430786133,-17.90753173828125,-33.919586181640625,-0.031707763671875,1013.6824035644532
0.471111328125,-0.063143926981464,-0.0133486533295363,-0.0749000504225492,0.0001478865742683,-0.0583485774695873,-0.0431932061910629,0.0718971520259224,0.0645728218288603,2.3222816737287726,-15.44582176208496,-17.900733947753906,-33.726837158203125,-0.031707763671875,1013.6824035644532
0.481179443359375,-0.0746160458493977,-0.0182066147547215,-0.0658966597557067,-0.0077640991657972,-0.081729806959629,-0.054505780339241,0.0718441467146761,0.0638776113706424,2.321803569398788,-15.583723068237305,-18.06158447265625,-33.914703369140625,-0.031707763671875,1013.6824035644532
0.491248291015625,-0.063386868891865,-0.0366979647349566,-0.0222825589567422,-0.0265545807778835,-0.0878254622220993,-0.0580973401665687,0.071651784118626,0.0630176608847957,2.321227240058321,-15.477012634277344,-18.23739624023437,-34.337493896484375,-0.031707763671875,1013.6824035644532
0.5013173828125,-0.0327204028734937,-0.0563266481820493,0.0188636904239654,-0.0342860035598278,-0.0756723880767822,-0.0575388744473457,0.0713125589076969,0.0621893778333256,2.3206539977506657,-15.47865867614746,-18.47767639160156,-34.287811279296875,-0.031707763671875,1013.6824035644532
0.51138623046875,0.0197769693439826,-0.0437201915219426,0.0272983412921428,-0.0397274419665336,-0.0547508411109447,-0.0436345748603343,0.0709185958578687,0.0615618485038468,2.3201613235590512,-15.718439102172852,-18.254859924316406,-33.949127197265625,-0.031707763671875,1013.6824035644532
0.52145458984375,0.0383623908158391,-0.0371375982612371,0.0161146839767694,-0.0308575183153152,-0.0249846894294023,-0.0367407165467739,0.0705360200049709,0.0611892502976181,2.319782881805412,-15.51317024230957,-18.2823486328125,-34.156951904296875,-0.031707763671875,1013.6824035644532
0.531523193359375,0.02023980108276,-0.0215553406607359,-0.0222264448553323,-0.024522740393877,0.0021292916499078,-0.0265105329453945,0.0702168283143389,0.0611129294065012,2.3194812676338232,-15.825532913208008,-18.290122985839844,-34.215301513671875,-0.031707763671875,1013.6824035644532
0.541592529296875,0.0037647958936169,-0.0084530633077025,-0.0825678085714578,-0.0098788170143961,0.0007516383193433,-0.0137667758390307,0.0700265384154251,0.0611442798572491,2.319293155785282,-15.631536483764648,-18.06583404541016,-33.986480712890625,-0.031707763671875,1013.6824035644532
0.55166162109375,-0.0059513096198439,-0.0018304302975535,-0.137626263448596,0.0048640919849276,0.000355165451765,-0.0089870179072022,0.0700151928287266,0.0611431779800787,2.31918787264135,-15.52851104736328,-18.21649932861328,-34.161956787109375,-0.031707763671875,1013.6824035644532
0.5617294921875,-0.0367255833942443,-0.0145075410410761,-0.1906938367694616,0.0212984587997198,-0.0036720666103065,-0.0009256293997168,0.0701724559483411,0.0611232962284863,2.3191313571722088,-15.526008605957031,-18.019332885742188,-34.569183349609375,-0.031707763671875,1013.6824035644532
0.571798583984375,-0.0337336350366473,-0.0394734207976609,-0.2286497656762599,0.0230566952377557,-0.0213310346007347,-0.0061106975190341,0.0704196138950588,0.0610018402125011,2.319091269738525,-15.783733367919922,-18.19316864013672,-34.303375244140625,-0.031707763671875,1013.6824035644532
0.581867431640625,-0.0294723608629778,-0.0471935667209327,-0.2341442714393138,0.0210944786667823,-0.0499363131821155,-0.0119182523339986,0.0706552973967764,0.0606583850833677,2.318994636358616,-15.576488494873049,-18.00237274169922,-34.624542236328125,-0.031707763671875,1013.6824035644532
0.5919365234375,-0.0092277740072458,-0.0522621021568775,-0.1913303811073303,0.0221528187394142,-0.0616523586213588,-0.0145643688738346,0.0708867207369163,0.0601032261250488,2.318841148322868,-15.694551467895508,-18.26062774658203,-34.711395263671875,-0.031707763671875,1013.6824035644532
0.60200439453125,0.0187686325516551,-0.0538996402308344,-0.0859668033599853,0.0317473895847797,-0.0597913414239883,-0.0154072605073452,0.0711476376453739,0.0595052187866113,2.318667895467803,-15.669174194335938,-18.425621032714844,-34.549407958984375,-0.031707763671875,1013.6824035644532
0.612073486328125,0.0222934091443195,-0.0442674501411616,-0.0425420876532793,0.042951226234436,-0.03507686778903,-0.0129620293155312,0.0715051470309794,0.0590231625710272,2.318509669410361,-15.546951293945312,-18.39508056640625,-34.314788818359375,-0.031707763671875,1013.6824035644532
0.622142333984375,0.0296040244186297,-0.0479491343285888,-0.0140256027430295,0.0527772232890129,-0.0074540288187563,-0.0117502901703119,0.0719701496039713,0.0588281248046501,2.318348793203972,-15.645635604858398,-18.40478515625,-34.473297119140625,-0.031707763671875,1013.6824035644532
0.63221142578125,0.0323147812146693,-0.0721150228139013,-0.0043798225194215,0.0524905659258365,0.0088569168001413,-0.0129454424604773,0.0724827153728423,0.0588591910463332,2.3181948531035315,-15.833826065063477,-18.12753295898437,-33.923797607421875,-0.031707763671875,1013.6824035644532
0.642279296875,0.0477170426057651,-0.0689436993014067,-0.0317594123542308,0.0564139373600482,0.014000279828906,-0.0054316003806889,0.0730058493721777,0.0589851133383479,2.3180843566305014,-15.714729309082031,-18.401023864746094,-34.504241943359375,-0.031707763671875,1013.6824035644532
0.652348388671875,0.0334009324835613,-0.0758337510760873,-0.0181681093752384,0.0561944954097271,0.0113570317625999,-0.0038391163107007,0.073571256262407,0.0591051496792336,2.318005104940227,-15.642616271972656,-18.344039916992188,-34.418121337890625,-0.031707763671875,1013.6824035644532
0.662417236328125,-0.0003168839294463,-0.0602943827692419,0.0540039773881435,0.0434211753308773,0.0043790177442133,-0.00443433271721,0.0740738139853281,0.0591737078583556,2.317932032527026,-15.812368392944336,-18.425819396972656,-33.982635498046875,-0.031707763671875,1013.6824035644532
0.672485595703125,-0.0026295082533732,-0.0356657721430063,0.1339046125769615,0.0287137180566787,0.0029763947241008,-0.00436168955639,0.0744500476376775,0.0592283272329158,2.317862594325072,-15.618183135986328,-18.47159576416016,-34.112396240234375,-0.031707763671875,1013.6824035644532
0.68255419921875,0.0475324432864785,-0.0352426513601094,0.1729834080338478,0.011797584593296,-0.0150007419288158,-0.004344645421952,0.0746616345457103,0.0591798639464521,2.317815653101849,-15.676692962646484,-18.49210357666016,-34.274566650390625,-0.031707763671875,1013.6824035644532
0.692623291015625,0.0561701424460858,-0.0491817448634654,0.1442418821960687,-0.0079454937949776,-0.0376543886959552,-0.0021976048592478,0.0746746007680843,0.0589235712638414,2.3177813209529705,-15.661188125610352,-18.372459411621094,-34.415313720703125,-0.031707763671875,1013.6824035644532
0.702692626953125,0.060941813827306,-0.0362396265082061,0.1155266598433256,-0.0180865451693534,-0.0411748215556144,-0.0005312650464475,0.0745443791263049,0.0585415159144475,2.3177685535322667,-15.733503341674805,-18.40125274658203,-34.009918212890625,-0.031707763671875,1013.6824035644532
0.71276025390625,0.0656287660671398,-0.0105635526556521,0.1048000986456871,-0.0161102786660194,-0.0384637303650379,0.0048502054996788,0.0743850644759027,0.0581373759285713,2.3177913278977607,-15.876375198364258,-18.579917907714844,-34.166351318359375,-0.031707763671875,1013.6824035644532
0.72282958984375,0.0667730772640556,-0.0027773557588458,0.0674865592956543,-0.0070251710712909,-0.0255849510431289,0.0095389671623706,0.0742937810288782,0.0578205305997591,2.317863407236945,-15.976051330566406,-18.77478790283203,-34.568817138671875,-0.031707763671875,1013.6824035644532
0.7328984375,0.0596637932481244,0.008899272705242,0.0276104759812355,0.0068047242239117,-0.0168981049209833,0.0124134179204702,0.0743248762782718,0.0576445577837478,2.317963683183106,-15.91582489013672,-18.37865447998047,-34.640777587890625,-0.031707763671875,1013.6824035644532
0.74296728515625,4.02589451521e-05,-0.0024601795684546,0.0132096101850271,0.0229914169758558,-0.0198723245412111,0.0126541685312986,0.0745098295420108,0.0574683824696665,2.318073680931714,-15.965173721313477,-18.608657836914062,-34.505828857421875,-0.031707763671875,1013.6824035644532
0.753035400390625,-0.015953027141653,0.0058601242050528,0.0367284329384565,0.0423125028610229,-0.0268896892666816,0.0151281841099262,0.0748556841505831,0.0572381240112274,2.318207487021758,-15.710227966308594,-18.290740966796875,-34.083465576171875,-0.031707763671875,1013.6824035644532
0.7631044921875,-0.0007272182960063,-0.0215971339758485,0.0562771830171346,0.0572248697280883,-0.0387969501316547,0.0178395472466945,0.0753837332332755,0.0569070199786969,2.3183574020792306,-15.69797706604004,-18.47007751464844,-34.278045654296875,-0.031707763671875,1013.6824035644532
0.77317333984375,-0.0189878282602876,-0.0549598898734897,0.1126227550953626,0.0555875264108181,-0.0470590107142925,0.0140758454799652,0.0759964928051107,0.0564809885948554,2.318499034068477,-15.860666275024414,-18.45127868652344,-34.080352783203125,-0.031707763671875,1013.6824035644532
0.783242431640625,-0.072940477319993,-0.0543982374027371,0.2193319022327661,0.0353432409465312,-0.0409068427979946,0.0115048307925462,0.0764824241920382,0.0560624243631035,2.3185995824730914,-16.136302947998047,-18.4537353515625,-33.853912353515625,-0.031707763671875,1013.6824035644532
0.793310302734375,-0.0788634376281872,-0.0235499485440552,0.2948223197638988,-0.0014049196615815,-0.0368721187114715,0.0090021714568138,0.0766684168371754,0.0556736249589358,2.3186954507586446,-16.205482482910156,-18.42887115478516,-33.835906982421875,-0.031707763671875,1013.6824035644532
0.80337939453125,-0.0728945192864164,-0.0041699060957878,0.2894254291564226,-0.0332981385290622,-0.0243507362902164,0.0014561037532985,0.0764926138270707,0.0553833538340277,2.31876655273683,-16.08966064453125,-18.414566040039062,-33.753631591796875,-0.031707763671875,1013.6824035644532
0.813448486328125,-0.0763839323047548,-0.0106374216094613,0.1891752489000558,-0.0503052026033401,-0.0253204554319381,-0.004590542986989,0.076045442172324,0.0551564525696786,2.318781555632792,-15.988931655883787,-18.288658142089844,-33.844268798828125,-0.031707763671875,1013.6824035644532
0.823517333984375,-0.0721963444218039,-0.0083331632550805,0.0395966818511486,-0.0433458276093006,-0.0302302613854408,-0.0079298801720142,0.0755618584631343,0.054878800429468,2.318750172007508,-15.91799545288086,-18.40152740478516,-34.087615966796875,-0.031707763671875,1013.6824035644532
0.83358544921875,-0.0722690077992156,-0.0068424863059073,-0.092090254676342,-0.0310260113328695,-0.0314192958176136,-0.0086321290582418,0.0751787222402125,0.0545781528309481,2.318689963282309,-15.922748565673828,-18.396148681640625,-33.905731201171875,-0.031707763671875,1013.6824035644532
0.843654296875,-0.0925414690425619,-0.0080178136955946,-0.1427870072126388,-0.0185645502060651,-0.0274341404438018,-0.0088800694793462,0.0749361156165821,0.0542932998823603,2.318615478394106,-16.036657333374023,-18.52422332763672,-33.959686279296875,-0.031707763671875,1013.6824035644532
0.853723388671875,-0.1007835564807057,0.0116605541121214,-0.0940957492798566,-0.0115949399769306,-0.0179694313555955,-0.0113681387156248,0.0748061612349164,0.0540794655454157,2.318520439672302,-16.0648193359375,-18.392898559570312,-34.041656494140625,-0.031707763671875,1013.6824035644532
0.863792236328125,-0.1177399519786238,0.0270792917139828,-0.0639998862236738,-0.0024421866983175,-0.0319038890302181,-0.0118453772738575,0.0747608688221807,0.0538236221296436,2.318404102358778,-15.966480255126951,-18.592140197753903,-34.087432861328125,-0.031707763671875,1013.6824035644532
0.873860595703125,-0.0928694954205304,-0.015894830681011,-0.0338724589854478,-0.0040571950376033,-0.0352307185530662,-0.0064183664508163,0.0747426904298797,0.0534679714700604,2.318300597580515,-16.072900772094727,-18.45098114013672,-33.807220458984375,-0.031707763671875,1013.6824035644532
0.883929443359375,-0.0778302221229299,-0.0418703989367932,0.0368517670571804,-0.0167354382574558,-0.0266928896307945,-0.0071163810789585,0.0746418624266687,0.0531380541558829,2.3182400510692287,-15.98213005065918,-18.31968688964844,-33.773223876953125,-0.031707763671875,1013.6824035644532
0.893998291015625,-0.0926961116150021,-0.0329091669112443,0.0814525408059358,-0.0350697226822376,-0.0162724293768405,-0.0063414205797016,0.0743799957898818,0.0529124735883309,2.3181857377736232,-15.990856170654297,-18.34027099609375,-33.830108642578125,-0.031707763671875,1013.6824035644532
0.904067626953125,-0.1161271464871242,-0.0080831340167671,0.0809264711052179,-0.0503032729029655,-0.0032503698021173,-0.0085808727890253,0.0739501536753422,0.0527971697634952,2.318136317647591,-16.21763038635254,-18.485565185546875,-33.972991943359375,-0.031707763671875,1013.6824035644532
0.914135498046875,-0.1260300432769581,0.0243069774564355,0.0535182396978139,-0.0653115957975387,0.0045682485215365,-0.0051325126551091,0.0733604429322019,0.0527976203066949,2.3180940818785984,-16.014806747436523,-18.76134490966797,-34.185760498046875,-0.031707763671875,1013.6824035644532
0.92420458984375,-0.1114685070263221,0.0054901218488812,-0.046035774987936,-0.0467184744775295,0.0072074406780302,-0.0009316424839198,0.0727675902588135,0.0528365107776795,2.318094330217584,-15.650102615356444,-17.87364959716797,-33.697845458984375,-0.031707763671875,1013.6824035644532
0.9342734375,-0.089170385174267,-0.0104340810570865,-0.0988449896335601,-0.0186391361057758,0.0307552125304937,0.0021751425229012,0.0724399064620471,0.0529729129812622,2.3181300561236315,-15.723722457885742,-17.640289306640625,-33.619232177734375,-0.031707763671875,1013.6824035644532
0.94434228515625,-0.0692146982625126,-0.0146822400208562,-0.0064765025377273,-0.0129354419186711,0.0513241365551948,-0.0047746426425874,0.0722809619881026,0.053395757511392,2.318120155621257,-15.79941749572754,-18.07676696777344,-33.767059326171875,-0.031707763671875,1013.6824035644532
0.954410400390625,-0.110164986679703,0.0525453760776668,0.0846691647648811,-0.0101478435099124,0.031146740540862,-0.0065601337701082,0.0721779928073003,0.0537885344163525,2.3180568648415973,-16.00131607055664,-18.4345703125,-34.063201904296875,-0.031707763671875,1013.6824035644532
0.9644794921875,-0.0588660304665565,0.057385290389508,0.0644154812872409,-0.0109238903969526,0.0162873677909374,-0.0117479711771011,0.0720914615208798,0.0540054228322754,2.3179782357119434,-15.842073440551758,-17.761940002441406,-33.592742919921875,-0.031707763671875,1013.6824035644532
0.97454833984375,-0.038085108244419,0.0192716867029666,0.0484615408301353,-0.0186903998255729,-0.004460813011974,-0.0216106567531824,0.0719735805182678,0.0540528422070805,2.317829099689106,-16.0509090423584,-18.320068359375,-33.742523193359375,-0.06341552734375,1013.6862182617188
0.984617431640625,-0.0296171761611476,-0.0274096196468919,0.0388251129567623,-0.0364547483623027,-0.0099695613607764,-0.0266349762678146,0.0716987749095743,0.0539661350071613,2.3175943833568664,-15.95708465576172,-18.474639892578125,-33.774322509765625,-0.06341552734375,1013.6862182617188
0.994685302734375,0.0474052367102354,-0.064527782555297,0.0363344651848077,-0.0396484285593032,-0.0057271001860499,-0.0225907191634178,0.0712849235611906,0.0538461679837441,2.317357530932824,-15.784358978271484,-18.54600524902344,-34.158172607421875,-0.06341552734375,1013.6862182617188
1.00475439453125,0.1052952252188697,-0.0654280923958867,0.061658876055479,-0.0257885381579399,0.0327084399759769,-0.0060029537416994,0.0709481196284826,0.053938820205035,2.3172410843868696,-15.966060638427734,-18.36595916748047,-34.426422119140625,-0.06341552734375,1013.6862182617188
1.0148232421875,0.1148641408139839,-0.0359129518371075,0.1592208401411771,-0.0111474124714732,0.0776037648320198,0.0057074557989835,0.0707682888817606,0.0544598018159334,2.317251317201169,-15.849309921264648,-18.50141143798828,-34.292877197265625,-0.06341552734375,1013.6862182617188
1.024892578125,0.0994904479302465,-0.011164806484431,0.1925502782911062,0.002119124867022,0.1145362108945846,0.0113696027547121,0.0707283227843711,0.055420827753477,2.317344044749263,-16.121694564819336,-18.57090759277344,-34.246612548828125,-0.06341552734375,1013.6862182617188
1.034960205078125,0.118998062280938,-0.0328783333815634,0.1829535979062318,-0.0008827075362205,0.1078574657440185,0.0094463508576154,0.0707419725916862,0.0565337114355275,2.3174439339399364,-15.71482276916504,-18.359397888183597,-34.275360107421875,-0.06341552734375,1013.6862182617188
1.045029296875,0.1215215528765693,-0.0817167447000741,0.1542781230419874,-0.0191780924797058,0.0575080029666423,0.0045184367336332,0.0706444096471167,0.0573627809503905,2.317517910919724,-15.830856323242188,-18.299560546875,-33.994415283203125,-0.06341552734375,1013.6862182617188
1.0550986328125,0.1039625518430024,-0.1061128617446869,0.1302560269415378,-0.0416967645287513,-0.0062230909243226,-0.006222850177437,0.0703532366979748,0.0575966921100503,2.317526713687884,-15.769107818603516,-18.47187042236328,-34.134735107421875,-0.06341552734375,1013.6862182617188
1.065167236328125,0.060890887357667,-0.0942236134432256,0.1318336515218019,-0.0661400556564331,-0.0416716299951076,-0.022414868697524,0.0698095151474816,0.0573162563476422,2.317418097681107,-15.809551239013672,-18.346343994140625,-34.090362548828125,-0.06341552734375,1013.6862182617188
1.0752353515625,0.027690738143213,-0.0836327343892306,0.1252513505220413,-0.0794114246964454,-0.0505954846739769,-0.0264483503997325,0.0690872078028177,0.0568517787568994,2.317213405282443,-15.618778228759766,-18.39826202392578,-34.296173095703125,-0.06341552734375,1013.6862182617188
1.085304443359375,0.0380922686375677,-0.0626443799614906,0.0849409674435854,-0.0871558934450149,-0.0533830188214778,-0.027023060247302,0.0682499871827702,0.0563504605436044,2.316981736525292,-15.932405471801758,-18.40367126464844,-34.278167724609375,-0.06341552734375,1013.6862182617188
1.095373291015625,0.0514432600546628,-0.0553949933551251,-0.0094154785990715,-0.0857406854629516,-0.0398456752300262,-0.019579442217946,0.0673850463985758,0.0559148461464328,2.3167795743026294,-15.818269729614258,-18.28380584716797,-34.012664794921875,-0.06341552734375,1013.6862182617188
1.1054423828125,0.0651329453742131,-0.0667317954055965,-0.0810141493886709,-0.0752065554261207,-0.0181180089712142,-0.0034127221442759,0.0665781675166067,0.0556440016195169,2.316695494305766,-15.78152847290039,-18.15717315673828,-33.862091064453125,-0.06341552734375,1013.6862182617188
1.115510498046875,0.0496525041803717,-0.0626416034825146,-0.1771212384909391,-0.0522544048726558,0.0086074732244014,0.0048778415657579,0.0659562844952225,0.0556333264548274,2.316738776764688,-16.09871482849121,-18.207786560058597,-33.941009521484375,-0.06341552734375,1013.6862182617188
1.125579345703125,0.0132188894700258,0.0063799102954566,-0.2295236259013414,-0.0246536657214164,0.0216223411262035,0.0165342316031456,0.0656085185765974,0.0558231708957532,2.31687099870795,-16.240196228027344,-18.286056518554688,-33.880035400390625,-0.06341552734375,1013.6862182617188
1.1356484375,-0.0265100404586642,0.0671860419791191,-0.2673053672850132,-0.0084263943135738,0.0220648404210805,0.0194137450307607,0.0655069175081709,0.0560755176667132,2.317061323301364,-15.987751007080078,-18.165267944335938,-34.227935791015625,-0.06341552734375,1013.6862182617188
1.145718017578125,-0.0613368044942617,0.0659636605773121,-0.2713140184044837,0.002956754527986,0.0079056117683649,0.0163199491798877,0.06555020859512,0.0562401838689758,2.317242995340515,-16.12065315246582,-18.46356201171875,-34.061798095703125,-0.06341552734375,1013.6862182617188
1.155785888671875,-0.0879602056669071,0.0347918388526886,-0.2449146717786788,0.0159061402082443,-0.0110916849225759,0.0125131644308567,0.0656983027891131,0.0562241759529461,2.317379851505239,-16.319063186645508,-18.412368774414062,-34.477081298828125,-0.06341552734375,1013.6862182617188
1.16585498046875,-0.103888244497776,0.0136662679113447,-0.1835375352740287,0.0080729853361845,-0.0317697972059249,0.0030805147252976,0.06584849021187,0.0560017890282333,2.3174456974777837,-16.043655395507812,-18.317138671875,-34.279083251953125,-0.06341552734375,1013.6862182617188
1.175923828125,-0.0978072075510397,0.0181833800096064,-0.0851812059402465,-0.0088262008503079,-0.0455320551991462,-0.0008539566770195,0.0658666466907825,0.0556245050914012,2.317444221849404,-15.99200439453125,-18.134567260742188,-34.227020263671875,-0.06341552734375,1013.6862182617188
1.185992919921875,-0.059923576695472,0.009840206817165,-0.0357826765209436,-0.0138694299384951,-0.0455909110605716,-0.0060740187764167,0.0657633335552737,0.0551620692449514,2.3174299741016893,-15.986974716186523,-18.114402770996094,-34.155242919921875,-0.06341552734375,1013.6862182617188
1.196060791015625,-0.0826549753982573,-0.0209459035255014,0.0039876083314418,-0.0121006742119789,-0.0197902340441942,-0.0164704900234937,0.0656450134760881,0.0548080174273506,2.3173423473564374,-15.994146347045898,-18.22818756103516,-33.933563232421875,-0.06341552734375,1013.6862182617188
1.2061298828125,-0.112509577044472,0.0368969944383949,0.0762199008494615,-0.0160605274140834,0.0106398425996303,-0.0205560438334941,0.0654852628585259,0.0547999805042552,2.31716335172021,-15.915571212768556,-18.335487365722656,-34.072967529296875,-0.06341552734375,1013.6862182617188
1.21619873046875,-0.0845337748821824,0.0123171913899481,0.0412321740984916,-0.0271129980683326,0.0393311381340026,-0.0221764966845512,0.0652365950230393,0.055044774195599,2.3169669997435105,-16.17852020263672,-18.200965881347656,-34.161407470703125,-0.06341552734375,1013.6862182617188
1.22626806640625,-0.1152588026873767,0.0072943947918713,0.0146837743908166,-0.0348779782652854,0.0643225088715553,-0.0205258689820766,0.0648762337555187,0.0555845326415774,2.3167673881786066,-15.827655792236328,-17.97223663330078,-33.747039794921875,-0.06341552734375,1013.6862182617188
1.236335693359375,-0.118642490308918,0.0316764833111316,-0.0179553434073925,-0.0255074277520179,0.075741060078144,-0.0190004501491785,0.064538930938929,0.0562818494947664,2.3165730586401243,-15.674352645874023,-18.173423767089844,-33.782684326171875,-0.06341552734375,1013.6862182617188
1.24640478515625,-0.0875604657595977,0.0425208256695419,-0.0324713600158691,0.001268527470529,0.0671025663614273,-0.0179242677986621,0.0643932209811349,0.0569901693457108,2.316392084105387,-15.563957214355469,-18.179702758789062,-33.775177001953125,-0.06341552734375,1013.6862182617188
1.25647412109375,-0.0971744991380721,0.0576847847927361,-0.002485971596837,0.0246262587606906,0.0483729541301727,-0.0167043358087539,0.0645054314419976,0.0575610784949816,2.3162143062317924,-15.606756210327148,-18.200515747070312,-33.787445068359375,-0.06341552734375,1013.6862182617188
1.266542724609375,-0.0707626948894932,0.0531407846875488,0.0071469491451978,0.0329337231814861,0.0267653930932283,-0.014467280358076,0.0647903439717247,0.0579373179435532,2.316050758572112,-15.687578201293944,-18.35517120361328,-34.088653564453125,-0.06341552734375,1013.6862182617188
1.276611083984375,-0.0403766532476991,0.029981223700568,0.0342570743888616,0.0235902592539787,0.0046024727635085,-0.0192454606294631,0.0650843763023119,0.0580906111172947,2.31587449908734,-15.526220321655272,-18.36589813232422,-33.878082275390625,-0.06341552734375,1013.6862182617188
1.286679931640625,-0.0363977396793663,0.0216359316162765,0.0986076737463474,-0.0036770477890968,-0.0169105418026447,-0.0251475572586059,0.0651643461623903,0.0579899719003574,2.3156427159841444,-15.45391082763672,-18.23467254638672,-33.914215087890625,-0.06341552734375,1013.6862182617188
1.296748779296875,0.0151666990695521,0.0279465760678052,0.1659054324716329,-0.0265435129404068,-0.0247590169310569,-0.0258177313953638,0.0649682021259334,0.0577503577693425,2.3153964026042155,-15.64712142944336,-18.2503662109375,-33.943939208984375,-0.06341552734375,1013.6862182617188
1.30681787109375,0.0459249715572223,0.018229338043183,0.1703127275198697,-0.0395149700343608,-0.0187698323279619,-0.0254030767828226,0.0646021645835984,0.0575107932716868,2.3151694112098182,-15.50282859802246,-18.217269897460938,-33.788848876953125,-0.06341552734375,1013.6862182617188
1.316885986328125,0.0398457247087731,9.22813933342e-05,0.1184416705071926,-0.039637342095375,-0.0047008651308715,-0.0260017979890108,0.0641861622331205,0.0573503686940992,2.314935187651308,-15.701181411743164,-18.28604888916016,-33.952117919921875,-0.06341552734375,1013.6862182617188
1.326954833984375,0.0391084234101697,0.0119240273538976,0.0564244825333356,-0.0331892967224121,0.0164361111819744,-0.0255165696144104,0.0637896802029478,0.057378428204576,2.3146932692539304,-15.725008010864258,-18.211997985839844,-33.748931884765625,-0.06341552734375,1013.6862182617188
1.33702392578125,0.0156904672153294,0.0215118668451905,0.0111959322750568,-0.0327489823102951,0.0199960209429264,-0.0217031948268413,0.0634391500215723,0.057568546545851,2.314473882903521,-15.67945671081543,-18.26514434814453,-33.461822509765625,-0.06341552734375,1013.6862182617188
1.3470927734375,-0.0172857735827565,0.0266859084822237,-0.0703413642048835,-0.0116098755970597,0.0307181756943464,-0.0273954346776008,0.0631727645474309,0.0578336515861327,2.314237694720432,-15.587614059448242,-18.256027221679688,-33.946197509765625,-0.06341552734375,1013.6862182617188
1.357160888671875,-0.0314551321780309,0.0130891986757516,-0.0448854359090328,-0.0043109646067023,0.0396680794656276,-0.0350878089666366,0.0630678124438946,0.0581807838351715,2.313928620911602,-15.616514205932615,-18.390640258789062,-34.208587646484375,-0.06341552734375,1013.6862182617188
1.36722998046875,-0.0206555788094177,-0.0003377805870026,-0.0301379486322402,-0.0033676726743578,0.0460908263921737,-0.0370172671973705,0.06299549509882,0.0586373481931433,2.313567491527808,-15.40309715270996,-18.190444946289062,-34.324249267578125,-0.06341552734375,1013.6862182617188
1.377298828125,0.0013269742874428,0.0042868835389614,-0.0259966110438108,-0.0139064025133848,0.0396680682897567,-0.0421329177916049,0.0628870293522775,0.0590978666398401,2.3131790368398923,-15.710927963256836,-18.02452087402344,-33.830291748046875,-0.06341552734375,1013.6862182617188
1.387367919921875,0.0129423010183498,0.0312425488732755,-0.0592915624022483,-0.0315809994935989,0.0339342840015888,-0.0448453463613987,0.0626292473379999,0.0595008835702152,2.3127592088936364,-15.73489761352539,-18.358909606933597,-34.127410888671875,-0.06341552734375,1013.6862182617188
1.39743701171875,0.0322349209114909,0.0327102468056604,-0.1095218664705753,-0.0420790314674377,0.0258041210472583,-0.0478770248591899,0.0622288222571204,0.0598374269987032,2.3123187490087447,-15.8699951171875,-18.253707885742188,-34.343780517578125,-0.06341552734375,1013.6862182617188
1.4075048828125,0.0529934486387297,0.0063602192142978,-0.1603963136613369,-0.0415173731744289,0.0140374768525362,-0.0434266179800033,0.0617687643338428,0.0600543411154407,2.311893932724261,-15.50844955444336,-18.03253173828125,-34.637603759765625,-0.06341552734375,1013.6862182617188
1.41757373046875,0.0886715688066556,0.0195129115803167,-0.1801432166606187,-0.0326503999531269,0.0096587464213371,-0.0374939180910587,0.0613697097559889,0.0601994259949828,2.3115026645253267,-15.528387069702148,-18.168312072753903,-34.694244384765625,-0.06341552734375,1013.6862182617188
1.42764306640625,0.1006302290825173,0.0400760628659278,-0.1483411342084407,-0.0132412789389491,0.0122201750054955,-0.0318506807088851,0.0611315259544886,0.0603070149169314,2.311182452124973,-15.49601936340332,-18.287872314453125,-34.872589111328125,-0.06341552734375,1013.6862182617188
1.4377119140625,0.0835420238984748,0.0398538349499925,-0.1182873567283153,0.00099952891469,0.0115333162248134,-0.0204350352287292,0.0610629553657337,0.0604169835091259,2.310916923345528,-15.733400344848633,-18.5802001953125,-34.779693603515625,-0.06341552734375,1013.6862182617188
1.44777978515625,0.0616607757516205,0.0500625462859869,-0.094889530006051,0.0113238049671053,0.0124457161873579,-0.0183042399585247,0.0611122284398171,0.0605278740423873,2.3107210000111484,-15.620302200317385,-18.093017578125,-34.449493408203125,-0.06341552734375,1013.6862182617188
1.45784912109375,0.023354425971955,0.0694528543999418,-0.0756155052155256,0.023203682154417,0.0100867394357919,-0.017762329429388,0.0612739977004031,0.0606662265682255,2.310526319266044,-15.680353164672852,-18.23388671875,-34.746307373046875,-0.06341552734375,1013.6862182617188
1.467917724609375,0.0032317119302228,0.05868355003912,-0.0503378560960292,0.0276546236127614,-0.0105255935341119,-0.0157817360013723,0.0615190641780918,0.0606897506212946,2.310343532397058,-15.85085678100586,-18.198974609375,-34.390777587890625,-0.06341552734375,1013.6862182617188
1.477987060546875,-0.0272987796835601,0.0248428378988057,-0.0047363808721303,0.018440892919898,-0.0181173384189605,-0.0215321276336908,0.0617155029978924,0.0605530959138218,2.310155756195856,-15.752225875854492,-18.377967834472656,-34.832977294921875,-0.06341552734375,1013.6862182617188
1.488054931640625,-0.025491364935413,0.0189169915137812,0.0586018265724182,0.0013785529881715,-0.0198918040841817,-0.0230669062584638,0.0617980343911253,0.0603990407653684,2.309920956372309,-15.575325012207031,-18.373199462890625,-34.487884521484375,-0.06341552734375,1013.6862182617188
1.498123779296875,-0.0026411256259307,0.0250481512125581,0.0414233127564191,-0.0158946886658668,-0.0248514451086521,-0.0207608491182327,0.0617059014006312,0.0601888117933433,2.309712312704318,-15.768808364868164,-18.4337158203125,-34.454437255859375,-0.06341552734375,1013.6862182617188
1.50819287109375,0.0150575396066531,0.0194363026801496,0.0276110605031251,-0.0173048321157693,-0.0213752202689647,-0.0164627749472856,0.0614994693886838,0.0599693895171231,2.309534837063544,-15.783323287963867,-18.6688232421875,-34.306182861328125,-0.06341552734375,1013.6862182617188
1.518261962890625,-0.0097309012237936,0.0477622334543615,0.024202128842473,-0.0118943490087986,-0.0133414817973971,-0.0129352267831563,0.0613358473336995,0.0598256899855026,2.3094019397486494,-15.923608779907228,-18.54721069335937,-34.577789306640625,-0.06341552734375,1013.6862182617188
1.5283310546875,-0.0263113030161708,0.1150304007589817,0.0445867452234029,0.0016563478857278,0.0086559625342488,-0.0044160401448607,0.0612676735670921,0.0598377477463861,2.309311274501922,-15.915931701660156,-18.45405578613281,-35.211334228515625,-0.06341552734375,1013.6862182617188
1.53839892578125,-0.0126626438267529,0.143859349151887,0.0277145208775997,0.0199020951986312,0.0062994472682476,0.0013914103619754,0.0613694578294649,0.0599267723163204,2.309297293598989,-15.949102401733398,-18.4779052734375,-35.152252197265625,-0.06341552734375,1013.6862182617188
1.548468017578125,0.0124079384133219,0.1153179489960894,-0.0181920747727155,0.018069040030241,-0.0052152620628476,0.0004915283061563,0.0615569336383013,0.0599344772298061,2.3092970191148976,-15.68735694885254,-18.4052734375,-34.837432861328125,-0.06341552734375,1013.6862182617188
1.558536865234375,-0.0102195615235716,0.1046587539462372,0.0209837513178586,0.0033306078985333,-0.0109672844409942,-0.0075678727589547,0.0616909603897925,0.0598463829023162,2.309263969313539,-15.670280456542969,-18.429214477539062,-34.744720458984375,-0.06341552734375,1013.6862182617188
1.56860595703125,-0.0163727869236841,0.079884378173761,0.0731879858076572,-0.0101164914667606,-0.0181394442915916,-0.0131482612341642,0.0616364952237558,0.0596795682766208,2.309167121705356,-15.701082229614258,-17.974029541015625,-34.695770263671875,-0.06341552734375,1013.6862182617188
1.578674072265625,0.0114644835507497,0.0242143307369202,0.1389116270840168,-0.019541572779417,-0.0071616135537624,-0.0088216755539178,0.0614678356373696,0.0595406357251996,2.3090645927932334,-15.778467178344728,-18.441200256347656,-35.099639892578125,-0.06341552734375,1013.6862182617188
1.588742919921875,0.0210149136411026,0.0154009827494621,0.2214706678271293,-0.0256237015128135,0.0140395453199744,-0.0060354769229888,0.0612400847601,0.0595884431679355,2.3089892416226707,-15.803024291992188,-18.374610900878903,-34.705108642578125,-0.06341552734375,1013.6862182617188
1.598811767578125,0.0281581729918718,0.0339499812010675,0.2537941438049078,-0.0187623314559459,0.0335751622915267,-0.0067177787423133,0.0609948663737701,0.059836605894843,2.308940529868843,-15.792001724243164,-18.588111877441406,-34.767608642578125,-0.06341552734375,1013.6862182617188
1.608880859375,0.0471668613770976,0.0162319902135059,0.2131406463772058,-0.0191785842180252,0.0425204560160636,-0.0023818863555788,0.0607593520880563,0.0602487599557248,2.3089073370400683,-15.564367294311523,-18.307388305664062,-34.576690673828125,-0.06341552734375,1013.6862182617188
1.61894970703125,0.067652125120908,-0.0237732724385336,0.1400116972804069,-0.0198254734277725,0.039050493389368,-0.0037085816729813,0.0605247333694313,0.0606629452045601,2.3088872785610866,-15.49569320678711,-18.21441650390625,-34.476287841796875,-0.06341552734375,1013.6862182617188
1.62901806640625,0.0650314942937344,-0.0452451725995168,0.1004518403083086,-0.0221900939941406,0.0236238650977611,-0.0089225182309746,0.0602879046431387,0.0609915431043056,2.3088293637753994,-15.463878631591797,-18.416824340820312,-34.541290283203125,-0.06341552734375,1013.6862182617188
1.639086669921875,0.0554632728183642,-0.0341925943179056,0.0678945555746555,-0.0199877228587865,0.0067147738300263,-0.0149272214621305,0.0600412128262927,0.0611275944193571,2.308727771278168,-15.366983413696287,-18.253097534179688,-34.401519775390625,-0.06341552734375,1013.6862182617188
1.649156005859375,0.0329881504315882,-0.0283940641069784,0.0472217699021101,-0.0188406985253095,-0.0077014500275254,-0.0173277948051691,0.0598233893436336,0.0611298059332739,2.3085682205240508,-15.416658401489258,-18.3642578125,-34.257537841796875,-0.06341552734375,1013.6862182617188
1.65922509765625,0.0126045934965834,-0.0473325002675876,0.0677466715365648,-0.022786471992731,-0.0106422519311308,-0.0220065601170063,0.0596007944836434,0.0610557806560448,2.3083712782997527,-15.241327285766602,-18.203933715820312,-34.094818115234375,-0.06341552734375,1013.6862182617188
1.669292724609375,0.0433831050546839,-0.0360818786632269,0.0674906509488821,-0.0229875408113002,-0.010966358706355,-0.0212864410132169,0.059359066388624,0.060967811775848,2.308168206993552,-15.35492706298828,-18.26032257080078,-34.111907958984375,-0.06341552734375,1013.6862182617188
1.679362060546875,0.0652192354181781,-0.0192085583388805,0.0537999792486429,-0.0292255394160747,-0.0152555191889405,-0.0188745707273483,0.0590955603534658,0.0608454682428947,2.3079881810792515,-15.465362548828123,-18.27374267578125,-34.338958740234375,-0.06341552734375,1013.6862182617188
1.689430908203125,0.0776711225710809,-0.0061200903154909,0.0090150811046361,-0.0407543629407882,-0.0082410192117095,-0.0165376476943492,0.0587511464756422,0.0607490791815337,2.307830649991866,-15.440040588378906,-18.22826385498047,-34.262298583984375,-0.06341552734375,1013.6862182617188
1.6995,0.082328410325013,0.0245184282500296,-0.0450268902063369,-0.0451585203409194,-0.0041056359186768,-0.011371387168765,0.0583193685872966,0.060699705697573,2.307712937794457,-15.55438232421875,-18.13915252685547,-34.166473388671875,-0.06341552734375,1013.6862182617188
1.70956884765625,0.0837778419483453,0.0355417073719203,-0.1013724622845649,-0.0394393801689147,0.0063089216127991,-0.0015493822284042,0.0579015891688003,0.0607336580077314,2.307674338584673,-15.296102523803713,-18.05657958984375,-34.022186279296875,-0.06341552734375,1013.6862182617188
1.719636962890625,0.0566978195820003,0.0627182854479178,-0.1699351263791322,-0.0332087166607379,0.0171555504202842,0.0030130622908473,0.0575441771222471,0.0608697607818689,2.307699404430451,-15.077301025390623,-17.917648315429688,-33.851287841796875,-0.06341552734375,1013.6862182617188
1.729705810546875,0.0130579998198896,0.0677302683910354,-0.2521913847833871,-0.0186129957437515,0.0145200863480567,-0.0028645338024944,0.0572766216808537,0.0610470109627135,2.3077133008062685,-15.140901565551758,-18.054214477539062,-33.807952880859375,-0.06341552734375,1013.6862182617188
1.73977490234375,0.0007250994041562,0.0472851539945229,-0.3153478059202432,0.0051561575382947,-0.0052265520207583,-0.0066948672756552,0.0572211303636494,0.0611144749847836,2.3076693483746493,-15.362934112548828,-18.04864501953125,-34.057952880859375,-0.06341552734375,1013.6862182617188
1.749843994140625,0.0003770531514659,0.0381894819343462,-0.3049778030753135,0.0162029489874839,-0.0325583070516586,-0.0121578099206089,0.0573314035344325,0.0609360997471812,2.307564936764252,-15.37262725830078,-18.071014404296875,-34.166046142578125,-0.06341552734375,1013.6862182617188
1.759911865234375,0.0080582918364554,0.033421281151846,-0.2421358547151088,0.0205419156700372,-0.0521385893225669,-0.0212411601096391,0.05751687693929,0.0605182349649486,2.307376731839587,-15.58538818359375,-17.85535430908203,-34.210296630859375,-0.06341552734375,1013.6862182617188
1.76998095703125,-0.0027162001561373,0.022711890284717,-0.1811304741322994,0.014913591556251,-0.0693497955799102,-0.0235727578401565,0.0576763104396116,0.0599369942639007,2.3071449858852007,-15.252857208251951,-17.939239501953125,-33.668243408203125,-0.06341552734375,1013.6862182617188
1.7800498046875,0.0112056864840909,-0.0023250088814646,-0.0991191303998231,0.014620236121118,-0.0685747787356376,-0.0266042314469814,0.0578090248804387,0.0592784911139677,2.3068718884867336,-15.607179641723633,-17.943618774414062,-34.057403564453125,-0.06341552734375,1013.6862182617188
1.790118896484375,0.0309534297335892,-0.026544965641573,-0.0086053312599658,0.0114183174446225,-0.0554355457425117,-0.0219237245619297,0.0579029098886052,0.0586974435173755,2.306622766676751,-15.642450332641602,-17.88262939453125,-34.553009033203125,-0.06341552734375,1013.6862182617188
1.80018798828125,0.0457417604774236,-0.067044258888252,0.0652133536666631,0.0103537337854504,-0.0343924909830093,-0.0119670648127794,0.0579846964945173,0.0582716635708917,2.306448020379188,-15.33017349243164,-17.746749877929688,-34.091827392578125,-0.06341552734375,1013.6862182617188
1.810255859375,0.036580293172039,-0.0934978929845616,0.0991325744032859,0.0031512146815657,-0.0131971901282668,-0.0037227172870188,0.0580338390900384,0.0580456100153469,2.306365967932277,-15.501598358154297,-17.84272003173828,-34.213592529296875,-0.06341552734375,1013.6862182617188
1.82032470703125,-0.0025973595494404,-0.0982268942678347,0.1242956572324037,-0.0054513029754161,0.0075752832926809,-0.0011624279431998,0.0580093359483374,0.0580274157114585,2.306343861207153,-15.579315185546877,-17.620391845703125,-34.052886962890625,-0.06341552734375,1013.6862182617188
1.83039404296875,0.0026475553667172,-0.0744817154126241,0.1242640930503606,-0.0129963047802448,0.0206063967198133,0.0035005011595785,0.0579128096933861,0.058179412264465,2.30636461281795,-15.477188110351562,-17.953697204589844,-33.725738525390625,-0.06341552734375,1013.6862182617188
1.840462890625,0.0050765726119279,-0.0621375994831323,0.0958218424201011,-0.0164201222360134,0.0124656902626156,0.003509237896651,0.0577675020747099,0.0583437696855745,2.3064020746086755,-15.43470573425293,-17.92900848388672,-34.124847412109375,-0.06341552734375,1013.6862182617188
1.850531982421875,0.0142881992019712,-0.052904820507206,0.0551619152516126,-0.0076572587713599,-0.0012205615639686,0.0019616750068962,0.0576406603887666,0.0583960205188343,2.306445399349779,-15.287343978881836,-17.97222137451172,-34.095001220703125,-0.06341552734375,1013.6862182617188
1.86060009765625,0.0028767244800925,-0.0533914715129882,0.0115291097521781,0.0121485795825719,-0.0203548222780227,-0.007154069840908,0.0576520877349254,0.0582775641259415,2.306410878918746,-15.455591201782228,-18.045143127441406,-34.163787841796875,-0.06341552734375,1013.6862182617188
1.870668701171875,0.0054916927514597,-0.0591468932345509,-0.0188303726762533,0.0308330506086349,-0.034537486732006,-0.0103554558008909,0.0578742903854614,0.0580260779002342,2.306310662941099,-15.410318374633787,-17.933578491210938,-34.164215087890625,-0.06341552734375,1013.6862182617188
1.880738037109375,0.0518308711327612,-0.0649893721850588,-0.0104278705120086,0.0374622493982315,-0.0496532171964645,-0.0122900893911719,0.0582251582032316,0.0576341521731841,2.306185033477129,-15.721933364868164,-18.15928649902344,-34.006195068359375,-0.06341552734375,1013.6862182617188
1.890806640625,0.049627990793623,-0.1089401575924828,0.0364303267747163,0.0313265919685363,-0.0352609604597091,-0.0179794002324342,0.0585963543235485,0.0572177641206783,2.306012264449782,-15.788167953491213,-18.26911163330078,-34.439361572265625,-0.06341552734375,1013.6862182617188
1.9008759765625,0.0569655671400949,-0.108105679529719,0.1130529632061719,0.0162419248372316,-0.0237719099968671,-0.0176003370434045,0.0588650098685419,0.0569272233723428,2.305825160593361,-15.867887496948242,-18.020362854003903,-33.998931884765625,-0.06341552734375,1013.6862182617188
1.91094384765625,0.0813630724241957,-0.0822156341329217,0.1285059684038162,0.0016920119524002,-0.0099863223731517,-0.0124298091977834,0.0589570050671384,0.0567584550019303,2.305681270062101,-15.877470016479492,-18.24439239501953,-34.657623291015625,-0.06341552734375,1013.6862182617188
1.9210126953125,0.1070232545878738,-0.0867245994573459,0.1093833347827196,0.0001666909083724,-0.0014772270806133,-0.0054449043236672,0.0589549795905262,0.0567051374993292,2.305595881905788,-15.814325332641602,-18.249237060546875,-34.782623291015625,-0.06341552734375,1013.6862182617188
1.93108203125,0.0684316946586593,-0.0916333777543157,0.0719125590443611,0.0109178721904754,0.0112079409882426,-0.0014043564442545,0.0590038258124099,0.0567650121732715,2.3055615185318383,-15.841163635253906,-18.28192901611328,-34.321014404296875,-0.06341552734375,1013.6862182617188
1.94115087890625,0.0402692108178511,-0.0626215836077928,0.0643716421455144,0.0197116099298,0.0239240378141403,0.0008947225287556,0.0591701341522491,0.0569677336757928,2.305540560006946,-15.915281295776367,-18.318153381347656,-34.467010498046875,-0.06341552734375,1013.6862182617188
1.951218994140625,0.0196356611771509,-0.0411830377271398,0.0413455713450908,0.0296795554459095,0.0205777753144502,-8.13258811831e-05,0.0594341152990136,0.0571966068247446,2.305526661983146,-15.714126586914062,-18.298797607421875,-34.259246826171875,-0.06341552734375,1013.6862182617188
1.961287841796875,0.013702763996832,-0.0515592145845293,0.0151911393910646,0.0250118784606456,0.0089291566982865,-0.0001346352510154,0.0597346063147755,0.0573606779126174,2.305525307963838,-15.946760177612305,-18.36341857910156,-34.143829345703125,-0.06341552734375,1013.6862182617188
1.97135693359375,0.0168483685461804,-0.0725667851693928,0.0442044679075479,0.0164367668330669,-0.0029674505349248,-0.0074058640748262,0.0599732289140937,0.0574071020778758,2.3054754641569644,-15.628477096557615,-18.186767578125,-34.326690673828125,-0.06341552734375,1013.6862182617188
1.98142578125,0.0496316440554335,-0.0741633336458355,0.0342962373554706,0.0105417184531688,-0.0241160243749618,-0.0121823735535144,0.0601311444339547,0.057299170743346,2.3053656381273626,-15.708047866821287,-18.14942169189453,-34.423309326171875,-0.1004080772399902,1013.6907958984376
1.991494873046875,0.1060515234788879,-0.0550308727504685,0.0408580800890922,0.0064545646309852,-0.0429482981562614,-0.012065727263689,0.0602207003735273,0.0569772731657554,2.3052403144693194,-15.438735961914062,-18.0953369140625,-34.148529052734375,-0.1004080772399902,1013.6907958984376
2.00156298828125,0.1330818249519914,-0.0706731534425169,0.0633235943973064,0.0033334689214825,-0.0349729619920253,-0.0136350933462381,0.0602736818795874,0.0566155226863096,2.305105169532513,-15.657756805419922,-18.17267608642578,-34.197418212890625,-0.1004080772399902,1013.6907958984376
2.0116318359375,0.1066476992737501,-0.1052695062557235,0.0640250206649303,0.009946895763278,-0.0266370009630918,-0.0138422874733805,0.0603623266277078,0.0563349370950711,2.3049601111871985,-15.658231735229492,-18.118331909179688,-34.219146728515625,-0.1004080772399902,1013.6907958984376
2.021701171875,0.1026096759293228,-0.1109765587909147,0.0627326427668333,0.0144847389310598,-0.0273103266954422,-0.0135945342481136,0.060497783069433,0.0560901992007204,2.30482180384936,-15.737115859985352,-18.20687866210937,-34.242706298828125,-0.1004080772399902,1013.6907958984376
2.031769775390625,0.0914571078719571,-0.1061744922714307,0.1034896005690097,0.0090484283864498,-0.0275950171053409,-0.0116903744637966,0.0606367596741936,0.0558385124533875,2.3046805963570853,-15.92384147644043,-18.199020385742188,-34.474822998046875,-0.1004080772399902,1013.6907958984376
2.0418388671875,0.0794005036469548,-0.1338845561696216,0.1564490373402834,-0.0067513547837734,-0.0293024182319641,-0.0105009600520133,0.0606645589845715,0.0555564549784071,2.3045677255295938,-15.765520095825195,-18.374000549316406,-34.394989013671875,-0.1004080772399902,1013.6907958984376
2.051906982421875,0.0515088726367801,-0.162091098347865,0.1966179661214351,-0.0221012812107801,-0.0227997787296772,-0.0130429472774267,0.0605193542353494,0.0553170453061259,2.3044577906363224,-15.762443542480469,-18.449874877929688,-34.321258544921875,-0.1004080772399902,1013.6907958984376
2.06197607421875,0.040789398767054,-0.1297351083399728,0.1880781013131141,-0.0324367210268974,-0.028402455151081,-0.0112927937880158,0.0602324065194967,0.0550961781389049,2.304342483466957,-15.699674606323242,-18.359542846679688,-34.386749267578125,-0.1004080772399902,1013.6907958984376
2.072044921875,0.0388819942431524,-0.1100571789236739,0.1574561685562133,-0.0346711128950119,-0.0331942811608314,-0.0087550673633813,0.0598885244485319,0.0548155948079219,2.304255689745644,-15.822887420654297,-18.32603454589844,-34.201629638671875,-0.1004080772399902,1013.6907958984376
2.082114013671875,0.0528803436530753,-0.1336615610687062,0.1396884566754102,-0.0349796563386917,-0.0266577564179897,-0.0052903573960065,0.0595561508621873,0.0545458603634655,2.30421632833404,-15.68588638305664,-18.11148834228516,-34.463897705078125,-0.1004080772399902,1013.6907958984376
2.0921826171875,0.0688576649857685,-0.1434370320865884,0.0854857418447732,-0.0190885737538337,-0.0267946422100067,0.0004982892423868,0.0593218539132373,0.0543036345926629,2.304203876168045,-15.798320770263672,-18.027198791503903,-34.729095458984375,-0.1004080772399902,1013.6907958984376
2.1022509765625,0.0779044929355382,-0.121615039846301,0.0446826068133115,-0.009700920432806,-0.0300563089549541,0.0042265434749424,0.059212292247564,0.0540513388573873,2.304225221688226,-15.557235717773438,-17.915328979492188,-34.541229248046875,-0.1004080772399902,1013.6907958984376
2.11231982421875,0.0663600394837558,-0.1005925639532506,0.0286889188677072,-0.0093347355723381,-0.0250911116600036,0.0013873474672436,0.059158628658502,0.053793220530607,2.3042631871117023,-15.650701522827148,-18.018165588378903,-34.254119873046875,-0.1004080772399902,1013.6907958984376
2.122388916015625,0.0661872402001172,-0.1234121158635243,0.0088058222681283,-0.0151403928175568,-0.0277701113373041,-0.0040384517051279,0.0590745716438324,0.0535657049126358,2.3042576936862,-15.509502410888672,-18.00261688232422,-34.669525146484375,-0.1004080772399902,1013.6907958984376
2.1324580078125,0.0784309279624372,-0.1328299690827727,-0.0361561860084533,-0.014841585420072,-0.0368011556565761,-0.0170117747038602,0.0589532442571417,0.0532619029712519,2.304156631282986,-15.588386535644531,-17.917098999023438,-34.626495361328125,-0.1004080772399902,1013.6907958984376
2.14252685546875,0.0968984221430495,-0.161159516586177,-0.060131520357728,-0.00893335044384,-0.0498725771903991,-0.0232916809618473,0.0588566250384461,0.0528572735909234,2.30395397123435,-15.958337783813477,-18.26433563232422,-34.825897216796875,-0.1004080772399902,1013.6907958984376
2.15259521484375,0.1044766753775998,-0.2202900432078167,-0.0442921461910009,-0.0036690812557935,-0.0519189499318599,-0.028710413724184,0.0588083508630511,0.0523727660058309,2.303682032462388,-15.981464385986328,-18.27826690673828,-34.340118408203125,-0.1004080772399902,1013.6907958984376
2.162664306640625,0.1110378239914774,-0.2742916825084016,0.0323649770319461,0.0028060460463166,-0.0342294685542583,-0.0299796499311923,0.0588254274877211,0.0519772057561199,2.303383212254394,-15.973386764526367,-17.941123962402344,-34.049774169921875,-0.1004080772399902,1013.6907958984376
2.172733154296875,0.1404181226568296,-0.2928090802453458,0.1282002634555101,0.0015045590698719,-0.0115579795092344,-0.0288494043052196,0.0588751301115523,0.0517884372118999,2.303081718551277,-15.915416717529297,-17.977821350097656,-34.098785400390625,-0.1004080772399902,1013.6907958984376
2.18280224609375,0.1466299463763833,-0.285101757271029,0.1889478698849677,-0.0129789700731635,0.0101786013692617,-0.0268271211534738,0.0588370202363335,0.0518417003465461,2.302795125161451,-15.829601287841797,-18.280906677246094,-34.299713134765625,-0.1004080772399902,1013.6907958984376
2.192871337890625,0.1536316783646121,-0.282359692021273,0.1479775615930557,-0.0234092399477958,0.0040794308297336,-0.0312591530382633,0.0586738459528541,0.0519668413015626,2.302504111940462,-15.727750778198242,-18.19550323486328,-34.112945556640625,-0.1004080772399902,1013.6907958984376
2.20293896484375,0.1508102277357131,-0.3107950014540925,0.0534650482058525,-0.0391505286097526,-0.0258332267403602,-0.0360275134444236,0.0583677219113932,0.0519024700021705,2.3021772603860065,-15.542051315307615,-17.9949951171875,-34.270355224609375,-0.1004080772399902,1013.6907958984376
2.21300830078125,0.1378460436791181,-0.327488471699506,-0.0382505279392004,-0.0491118133068084,-0.0670064911246299,-0.0494418554008007,0.0579311989477619,0.0514823634578085,2.3017701670648023,-15.523029327392578,-17.80274200439453,-33.937530517578125,-0.1004080772399902,1013.6907958984376
2.223077392578125,0.1179816517800092,-0.3233971837978809,-0.0860609113842248,-0.0451225154101848,-0.0989648699760437,-0.0574508756399154,0.0574626075693701,0.0506660355411179,2.301248448583028,-15.561235427856444,-18.187339782714844,-34.081207275390625,-0.1004080772399902,1013.6907958984376
2.233146240234375,0.1141775833219289,-0.3474033516768366,-0.0658113195598125,-0.0242297500371933,-0.0992700681090354,-0.0588021613657474,0.0571350960360112,0.0497227540576536,2.3006836909799024,-15.822402954101562,-17.89112091064453,-33.848052978515625,-0.1004080772399902,1013.6907958984376
2.24321533203125,0.1220106515677645,-0.3594269304150715,-0.052031800532341,-0.0023077875375747,-0.0822095423936843,-0.0522063560783863,0.057053305581461,0.0488602867622419,2.3001302319992782,-15.660608291625977,-17.844818115234375,-34.193450927734375,-0.1004080772399902,1013.6907958984376
2.253283203125,0.1268691244496032,-0.3586443286700174,-0.0142477210611104,0.0143513502553105,-0.0514726713299751,-0.0500507913529872,0.0571638088030059,0.0482566607195146,2.2996078422556723,-15.387212753295898,-17.993362426757812,-33.808624267578125,-0.1004080772399902,1013.6907958984376
2.263352294921875,0.1326688967695459,-0.3594976575637236,0.0109141927242279,0.0119972871616482,-0.0194454789161682,-0.0451679043471813,0.0573517535473511,0.047985438008278,2.299138667785732,-15.801048278808594,-17.94341278076172,-33.940704345703125,-0.1004080772399902,1013.6907958984376
2.273421142578125,0.1193728869426995,-0.3434372610574588,0.0280599733144044,-0.000476692803204,-0.0002725841477513,-0.0416618511080741,0.0574637701604279,0.0479835296316255,2.2986898357859946,-15.604928970336914,-18.230453491210938,-34.185943603515625,-0.1004080772399902,1013.6907958984376
2.283490234375,0.1157164467943832,-0.3338961102521047,0.0353226577937603,-0.0054039219394326,0.0037531466223299,-0.0423881933093071,0.057505976318469,0.0480821133899025,2.2982629452999705,-15.549406051635742,-18.203872680664062,-34.414337158203125,-0.1004080772399902,1013.6907958984376
2.293559326171875,0.1019908499112352,-0.3447072809932753,0.0324631767094135,-0.0102849630638957,-0.0100063420832157,-0.0442577302455902,0.057486887919817,0.0481390695964123,2.2978387753946907,-15.557106018066406,-18.125099182128903,-34.160736083984375,-0.1004080772399902,1013.6907958984376
2.303627197265625,0.0797670354044064,-0.3283118438463658,0.0507721558600664,-0.011189897544682,-0.0179590620100498,-0.0479707233607769,0.0574497131619623,0.0480703793860979,2.297375614800497,-15.633056640625,-18.104049682617188,-34.243499755859375,-0.1004080772399902,1013.6907958984376
2.3136962890625,0.1074937947090715,-0.302731485453248,0.0072141691625118,-0.0092793451622128,-0.039476603269577,-0.0497350692749023,0.0574030759802981,0.0478362483361497,2.296882425476846,-15.591764450073242,-18.01918029785156,-34.094451904296875,-0.1004080772399902,1013.6907958984376
2.32376513671875,0.1371756336042657,-0.3167036044433712,-0.0293956058323383,-0.0080037917941808,-0.0506075471639633,-0.0477041415870189,0.0573668088756492,0.0474481348249165,2.2963943643902507,-15.821889877319336,-18.22007751464844,-34.241363525390625,-0.1004080772399902,1013.6907958984376
2.33383447265625,0.1519581921944394,-0.337245859071426,-0.0471633177131414,0.0035191727802157,-0.0497145913541317,-0.0466953366994857,0.0573930951226736,0.0470077058572753,2.2959062965182357,-15.88593292236328,-18.193572998046875,-34.409149169921875,-0.1004080772399902,1013.6907958984376
2.343903076171875,0.1684451070170849,-0.3284091302083805,-0.0419955596864223,0.0231811068952083,-0.0434916615486145,-0.047229491174221,0.0575773294836337,0.0466076415777566,2.295429687171627,-15.916942596435549,-17.96381378173828,-33.837493896484375,-0.1004080772399902,1013.6907958984376
2.35397119140625,0.1548246510088443,-0.309269545452483,-0.001066752448678,0.0423683822154998,-0.0349783338606357,-0.0483173877000808,0.0579732927671269,0.0462724409727387,2.2949491503064543,-15.728593826293944,-18.03766632080078,-33.601898193359375,-0.1004080772399902,1013.6907958984376
2.364040283203125,0.1616476654293015,-0.3112609019327909,0.0505488684982061,0.0446931011974811,-0.0406167320907115,-0.0499004200100898,0.0584882652817959,0.0459739739661686,2.294434448348761,-15.504402160644531,-18.175750732421875,-33.704010009765625,-0.1004080772399902,1013.6907958984376
2.374109130859375,0.2045441560108214,-0.3223646258797496,0.0727455027371645,0.0410120785236358,-0.0542513206601142,-0.0478130355477333,0.0589895556573945,0.0455519543795367,2.293929219431176,-15.720930099487305,-18.20185852050781,-34.030120849609375,-0.1004080772399902,1013.6907958984376
2.384178466796875,0.2073048163631931,-0.3274350244792178,0.1342284377038478,0.0264702029526233,-0.0501369535923004,-0.0443453788757324,0.0593887448730981,0.0450718179867328,2.293446649514128,-15.709112167358398,-18.2552490234375,-33.751983642578125,-0.1004080772399902,1013.6907958984376
2.3942470703125,0.1679130094343796,-0.3249927458936348,0.1817401304632425,0.0012127822265028,-0.0440111495554447,-0.0453752242028713,0.0595770810552208,0.0446476783742026,2.292978974636604,-15.949590682983398,-18.12342834472656,-33.955902099609375,-0.1004080772399902,1013.6907958984376
2.40431640625,0.1563749857233837,-0.317241072320938,0.1704080045878887,-0.024414675310254,-0.0405655205249786,-0.0396715626120567,0.0595129273065696,0.0442972152726654,2.2925643802375086,-16.050704956054688,-18.071929931640625,-34.137847900390625,-0.1004080772399902,1013.6907958984376
2.41438427734375,0.2091909954359754,-0.2598676184996962,0.1335217507392168,-0.0218740198761224,-0.0248936172574758,-0.0352832041680812,0.0593205730728477,0.0440372215694028,2.2921968712737355,-15.96226692199707,-18.186691284179688,-33.881744384765625,-0.1004080772399902,1013.6907958984376
2.424453125,0.2222718646747991,-0.2691243263404816,0.0946662426441907,-0.0006189513951539,0.0010834513232111,-0.0342933721840381,0.0592615599358897,0.0440000855684488,2.291853915869167,-15.851022720336914,-18.220626831054688,-33.710540771484375,-0.1004080772399902,1013.6907958984376
2.434522216796875,0.1812259338634088,-0.287074445583485,0.0273234757333993,0.0255980044603347,0.0048366440460085,-0.0343921743333339,0.0594456413913989,0.04411229665551,2.2915007050804816,-15.968059539794922,-18.19129180908203,-33.811920166015625,-0.1004080772399902,1013.6907958984376
2.44459130859375,0.1941581884117797,-0.2484447456009685,-0.0302314721345901,0.0436348989605903,-0.0178013984113931,-0.0375002399086952,0.0598454429026321,0.0441374634093822,2.2911179303822458,-16.0721435546875,-18.237136840820312,-33.990631103515625,-0.1004080772399902,1013.6907958984376
2.454660400390625,0.1995504028441384,-0.2600218226807191,-0.000695581048727,0.0519926995038986,-0.0325166955590248,-0.0457318052649498,0.0603901373635026,0.0439547540660163,2.290668632185489,-16.099163055419922,-18.124534606933597,-33.518585205078125,-0.1004080772399902,1013.6907958984376
2.464728271484375,0.1783135170154273,-0.3105708738420158,0.1207464403182268,0.0494484715163707,-0.0396838523447513,-0.0499225109815597,0.0609586646184545,0.0436643509464266,2.290162027779941,-15.871297836303713,-18.35425567626953,-33.527008056640625,-0.1004080772399902,1013.6907958984376
2.47479736328125,0.1253266807805746,-0.3363802186854183,0.2654360662817955,0.0335874818265438,-0.0363865904510021,-0.0571189075708389,0.0614405386545462,0.0433611436486098,2.289597262662221,-16.152633666992188,-18.56719970703125,-33.935821533203125,-0.1004080772399902,1013.6907958984376
2.4848662109375,0.0851180410435423,-0.3808068049110472,0.4154419188320636,0.0167944841086864,-0.0293553229421377,-0.0612004473805427,0.0617479073048297,0.043112645034105,2.288976030747862,-15.962011337280272,-18.547813415527344,-33.588470458984375,-0.1004080772399902,1013.6907958984376
2.494935302734375,0.0327287323104217,-0.4099601629527285,0.5479927787125111,-0.0038388883695006,-0.0047871293500065,-0.0601455718278884,0.0618575751134787,0.0430227748186286,2.288367447829803,-15.928094863891602,-18.277374267578125,-33.290863037109375,-0.1004080772399902,1013.6907958984376
2.505004150390625,-0.0086405852364376,-0.4101520687956362,0.6537953323990107,-0.0260253455489873,0.0203965380787849,-0.0501853637397289,0.0617309531954695,0.043182548252763,2.287818407021481,-16.14801597595215,-18.546485900878903,-33.993927001953125,-0.1004080772399902,1013.6907958984376
2.515072265625,-0.0488492980387061,-0.3411235407549888,0.6077502050608397,-0.0431020706892013,0.0493456311523914,-0.0420597903430461,0.0613839895236187,0.0435749950302324,2.2873610782618634,-16.02443504333496,-18.5152587890625,-33.850006103515625,-0.1004080772399902,1013.6907958984376
2.52514111328125,-0.1023263289432972,-0.2772408877028152,0.476374818700552,-0.0518923886120319,0.0677696764469146,-0.0347087010741233,0.0609087910851525,0.0442221727353985,2.28699247610109,-15.906366348266602,-18.301979064941406,-34.028045654296875,-0.1004080772399902,1013.6907958984376
2.535210205078125,-0.1475673002917319,-0.2163768518194556,0.2962064675986766,-0.0543989576399326,0.0625163242220878,-0.0300732031464576,0.0603851127105569,0.0449451130926237,2.28668892176488,-15.918304443359377,-18.21056365966797,-33.701446533203125,-0.1004080772399902,1013.6907958984376
2.545279052734375,-0.1734859141958877,-0.1631558415025472,0.1184855096489191,-0.0497947335243225,0.0428426899015903,-0.0270829424262046,0.0598755564791849,0.0455131007954391,2.2864133705013936,-15.771444320678713,-18.34994506835937,-33.934234619140625,-0.1004080772399902,1013.6907958984376
2.555348388671875,-0.1399709268786013,-0.1636750065384432,0.0220598561167716,-0.0432532094419002,0.0249571651220321,-0.0144185461103916,0.0594403665036394,0.0458795481702037,2.286225302332217,-15.72947120666504,-18.38420867919922,-34.001190185546875,-0.1004080772399902,1013.6907958984376
2.565417236328125,-0.1158177152117714,-0.1397176462372764,0.0237117149770259,-0.051874928176403,0.016086708754301,-0.0111031774431467,0.0589986575460595,0.0461015784563337,2.286130466538352,-15.694765090942385,-18.36151885986328,-34.123260498046875,-0.1004080772399902,1013.6907958984376
2.5754853515625,-0.1323911758067086,-0.0675310194918885,-0.0299129077047109,-0.0618479326367378,0.0066820224747061,-0.0199339520186185,0.0584699343274799,0.0462341390185832,2.2860018341395056,-15.447792053222656,-18.17688751220703,-34.099090576171875,-0.1004080772399902,1013.6907958984376
2.585554443359375,-0.1431781984873116,0.0119217988641932,-0.1741881076484918,-0.0790607407689094,-0.0279582478106021,-0.0331003554165363,0.0577969312881823,0.0461418695673855,2.2857543497603263,-15.89238739013672,-18.49213409423828,-33.981903076171875,-0.1004080772399902,1013.6907958984376
2.595623046875,-0.1059965053560212,0.0597652808612212,-0.3735977503150701,-0.078291617333889,-0.0765625312924385,-0.0423772111535072,0.0570285915583141,0.0456429204114722,2.2854195537596897,-15.797056198120115,-18.17156982421875,-33.835601806640625,-0.1004080772399902,1013.6907958984376
2.6056923828125,-0.1413862735692411,0.038150245902501,-0.5300409424364566,-0.0668809860944747,-0.1133888810873031,-0.0584300532937049,0.0563034086261194,0.0446849255434576,2.284958612160091,-15.986082077026367,-18.17986297607422,-34.096343994140625,-0.1004080772399902,1013.6907958984376
2.615760986328125,-0.1978133133858442,-0.1068133746968582,-0.5255342786669731,-0.0291655603796243,-0.1102287694811821,-0.0683559253811836,0.0557873903314617,0.0435683130420448,2.284331478341146,-15.937652587890623,-18.153846740722656,-34.191802978515625,-0.1004080772399902,1013.6907958984376
2.625829345703125,-0.2535916069701314,-0.2713154066439718,-0.3514981467097997,0.0096524087712168,-0.0806216150522232,-0.060805857181549,0.0556752739858474,0.0426312105178949,2.283687699333785,-15.717741012573242,-18.347625732421875,-33.865875244140625,-0.1004080772399902,1013.6907958984376
2.635898193359375,-0.3262708760706708,-0.3881307545909658,-0.2020265471667051,0.0396462604403495,-0.0518695898354053,-0.0623829811811447,0.0559097835525264,0.0420000587606596,2.2830611406825088,-15.759454727172852,-18.25497436523437,-33.781646728515625,-0.1004080772399902,1013.6907958984376
2.645967041015625,-0.3564778348185122,-0.4963350721895694,-0.004578559961915,0.0487639121711254,-0.0367772430181503,-0.0641795098781585,0.0563513217029224,0.0415860709992639,2.2824042603660564,-15.700286865234377,-18.33393859863281,-33.971160888671875,-0.1004080772399902,1013.6907958984376
2.656036376953125,-0.4139246461369097,-0.6549752628985792,0.2020949362277984,0.0380723848938941,-0.0243386812508106,-0.0640346333384513,0.0567920468653048,0.0412950378520934,2.2817413650649265,-15.795259475708008,-18.323272705078125,-34.263641357421875,-0.1004080772399902,1013.6907958984376
2.666105224609375,-0.4732264742048457,-0.8156362919107079,0.3913362361013889,0.0070769907906651,-0.0170879419893026,-0.0621022544801235,0.0570111037521083,0.0411166311067386,2.2811021595784267,-15.911592483520508,-18.359100341796875,-34.052398681640625,-0.1004080772399902,1013.6907958984376
2.67617431640625,-0.5068240617716685,-0.8889927661530673,0.468453962573409,-0.0446804799139499,-0.0320029743015766,-0.0553133264183998,0.0567936485967362,0.0409100242784973,2.2804985747812685,-16.040817260742188,-18.36200714111328,-34.292266845703125,-0.1004080772399902,1013.6907958984376
2.6862421875,-0.506304714072682,-0.933916634376347,0.4216133009433746,-0.1061623394489288,-0.0517321676015853,-0.045909758657217,0.056010888108514,0.0405033338951106,2.280015334881936,-15.812992095947266,-18.34293365478516,-34.615142822265625,-0.1004080772399902,1013.6907958984376
2.696311279296875,-0.479222280553542,-0.8772488446064293,0.3323492096036672,-0.1591390073299408,-0.0649702101945877,-0.0395458675920963,0.0546614687967814,0.039904039355707,2.2796354246256594,-15.852529525756836,-18.49578857421875,-34.082794189453125,-0.1004080772399902,1013.6907958984376
2.706380126953125,-0.4334788395756855,-0.8074795812010764,0.1613373939037322,-0.1992381811141967,-0.0699456557631492,-0.032264657318592,0.0528469503354457,0.0392166687021324,2.2793443110737064,-16.02864646911621,-18.38902282714844,-34.127044677734375,-0.1004080772399902,1013.6907958984376
2.71644921875,-0.3858763632602989,-0.7600712757509202,-0.0807949536800384,-0.2065078169107437,-0.0786613821983337,-0.0185083672404289,0.05079678062407,0.0384614734275009,2.279169601859405,-15.899749755859377,-18.35504150390625,-34.434112548828125,-0.1004080772399902,1013.6907958984376
2.726518310546875,-0.3552244372239336,-0.7178934183001517,-0.3087760263144969,-0.1752596497535705,-0.0892172306776046,-0.0038786842487752,0.0488850231747693,0.0375735255367409,2.279144278790423,-16.002614974975586,-18.264404296875,-34.734405517578125,-0.1004080772399902,1013.6907958984376
2.736587158203125,-0.3455156747667118,-0.6758936208300292,-0.4165419890284538,-0.1245903521776199,-0.0807326659560203,0.0116627234965562,0.0474288181444642,0.0366555034542545,2.2792358455612085,-16.049541473388672,-18.20545959472656,-34.245269775390625,-0.1004080772399902,1013.6907958984376
2.746655517578125,-0.3614999007642269,-0.7096103047318756,-0.3834691559880971,-0.0560245141386985,-0.0279609709978103,0.0297929197549819,0.0465990160100054,0.0360398933664104,2.279497425743276,-15.91865348815918,-18.19683837890625,-33.884918212890625,-0.1004080772399902,1013.6907958984376
2.75672412109375,-0.366053874274157,-0.7393266669511794,-0.2448188101887702,0.0045900968834757,0.0271084047853946,0.0401432961225509,0.0464525376722325,0.035985133987764,2.279867137666601,-15.976448059082031,-18.315475463867188,-34.353912353515625,-0.1004080772399902,1013.6907958984376
2.766793212890625,-0.3290316460208967,-0.6920235754411668,-0.1172141745388507,0.0471706800162792,0.0727680325508117,0.040226649492979,0.0468362163947422,0.0364380334187994,2.28027986899361,-16.041635513305664,-18.321929931640625,-34.684967041015625,-0.1004080772399902,1013.6907958984376
2.7768623046875,-0.2927699172787368,-0.7331026048045605,-0.0084422496527433,0.0763115212321281,0.0808110460639,0.0319567359983921,0.047592015717549,0.0371680390109368,2.280620790917349,-15.918008804321287,-18.15386962890625,-34.566314697265625,-0.1004080772399902,1013.6907958984376
2.78693115234375,-0.2761764733416959,-0.8463412267759441,0.0771779322266578,0.0856462121009826,0.0827208384871482,0.0092993089929223,0.0485123827643071,0.0379510139642266,2.2807998109263163,-15.790876388549805,-18.06288146972656,-34.644317626953125,-0.1004080772399902,1013.6907958984376
2.796999267578125,-0.2666316327419132,-0.9162268100373446,0.1707294916272163,0.0821090042591095,0.0635948181152343,-0.0128808273002505,0.0494590687265567,0.0386593265247051,2.280733864923872,-15.71401023864746,-18.25092315673828,-34.292449951171875,-0.1004080772399902,1013.6907958984376
2.807068359375,-0.2192393651111051,-0.9215962281160056,0.2021416979789733,0.0695201605558395,0.0480817146599292,-0.0344889946281909,0.0502858581813548,0.0392004398723609,2.2804596907238817,-15.733003616333008,-18.2940673828125,-34.646148681640625,-0.1004080772399902,1013.6907958984376
2.81713720703125,-0.1702649063227698,-0.9043975482948124,0.2103027926027774,0.058873638510704,0.040282379835844,-0.0634942799806594,0.0509876776742037,0.0396408706211357,2.279938659627116,-15.868963241577148,-18.31542205810547,-34.437713623046875,-0.1004080772399902,1013.6907958984376
2.827206298828125,-0.1137896799828857,-0.8831542692579328,0.1576689345240592,0.0499418638646602,0.0218401402235031,-0.0783119797706604,0.0515830206019196,0.0399262934055018,2.2792012612925623,-15.834970474243164,-18.28895568847656,-34.276947021484375,-0.1004080772399902,1013.6907958984376
2.837275146484375,-0.0256642372842878,-0.821225490219891,0.0754261201232671,0.0535658933222293,0.0280732698738574,-0.0880700647830963,0.0521614684830632,0.0401732998170927,2.27833425513984,-15.660518646240234,-18.537185668945312,-34.292022705078125,-0.1004080772399902,1013.6907958984376
2.84734423828125,-0.0283546819446608,-0.7764185994397849,0.0193272162824869,0.0659216120839119,0.0231016092002391,-0.0907355621457099,0.0528404460999831,0.0403885192569663,2.277413962644715,-15.84763526916504,-18.462486267089844,-34.537567138671875,-0.1004080772399902,1013.6907958984376
2.857412353515625,-0.0400156379155814,-0.7570864877864718,-0.039297406643629,0.0909033939242363,0.0246385186910629,-0.0850723534822464,0.0537602242606021,0.0406035054456207,2.2764901736150014,-15.532476425170898,-18.34725952148437,-34.827362060546875,-0.1004080772399902,1013.6907958984376
2.867481201171875,-0.0589550604568794,-0.7299317927487194,-0.0162561382740736,0.1193801462650299,0.0255801994353532,-0.074966199696064,0.0549899182719656,0.0408443407041373,2.2756396848260723,-15.840536117553713,-18.062530517578125,-34.893890380859375,-0.1004080772399902,1013.6907958984376
2.87755029296875,-0.1238269437421113,-0.702648502895236,0.0520990205496549,0.1360193192958831,0.0367721356451511,-0.0591763146221637,0.0564773437819066,0.0411311162041065,2.2749144965012507,-15.683464050292969,-18.487777709960938,-34.491058349609375,-0.1004080772399902,1013.6907958984376
2.887619384765625,-0.1718493259700015,-0.6996776703909039,0.148631641587615,0.1369159519672393,0.0439918264746665,-0.046474203467369,0.0580493491944267,0.0415008136719046,2.274322546635993,-15.896444320678713,-18.69806671142578,-34.503509521484375,-0.1004080772399902,1013.6907958984376
2.897688232421875,-0.2019106657020747,-0.6796147602450102,0.1941010148644447,0.1335356086492538,0.0473892204463481,-0.0264759939163923,0.0596096041101151,0.0419160868730373,2.2739053524574944,-16.07643699645996,-18.711936950683597,-34.441558837890625,-0.1004080772399902,1013.6907958984376
2.90775732421875,-0.2236820602662861,-0.7451489433638752,0.2775508669674396,0.1267025917768478,0.0559071339666843,0.0013848431408405,0.0611237062967792,0.0424018148595195,2.273729175962636,-15.65301513671875,-18.569610595703125,-34.160430908203125,-0.1004080772399902,1013.6907958984376
2.917825439453125,-0.1856581806898116,-0.8140132207535207,0.3901186770051718,0.1256274729967117,0.0755812376737594,0.0345936603844165,0.0625881923366645,0.0430467545906509,2.273869834655943,-15.796945571899414,-18.79429626464844,-34.365692138671875,-0.1004080772399902,1013.6907958984376
2.927894287109375,-0.1562483271364122,-0.9083218821316956,0.5094722016602754,0.1239778995513916,0.1012579426169395,0.0701481029391288,0.0640369093007057,0.0438841892159511,2.274340225405,-15.715715408325195,-18.793960571289062,-34.428863525390625,-0.1004080772399902,1013.6907958984376
2.937963134765625,-0.1592206940107047,-1.030543801829964,0.6463444318711757,0.1270477175712585,0.1346989721059799,0.1024567782878875,0.0654775186346815,0.0449882824787162,2.27515951166218,-15.540155410766602,-18.93170928955078,-34.088958740234375,-0.1004080772399902,1013.6907958984376
2.9480322265625,-0.1688227081578225,-1.1706652430951594,0.8254208960831165,0.1237081810832023,0.1554903984069824,0.1307626068592071,0.0668934954203092,0.046372891807924,2.2762792741301467,-15.57953643798828,-18.76080322265625,-34.167633056640625,-0.1004080772399902,1013.6907958984376
2.95810107421875,-0.1689918176470324,-1.26301911714375,0.9769827459037304,0.0998854115605354,0.1600974053144455,0.1583718657493591,0.0681600632560121,0.047848748114513,2.277682751800537,-15.63039207458496,-18.684860229492188,-34.042755126953125,-0.1004080772399902,1013.6907958984376
2.96817041015625,-0.1339253631040453,-1.327600602647662,1.0800538287997246,0.0608265772461891,0.1743683218955993,0.183140754699707,0.0691146851987151,0.0493933008933009,2.279376190954816,-15.673137664794922,-18.772186279296875,-34.490203857421875,-0.1004080772399902,1013.6907958984376
2.978238037109375,-0.0942667949978262,-1.3420952842071652,1.1655272956848144,0.0074680168181657,0.1979881674051284,0.2037147283554077,0.0695908963224421,0.051109761198971,2.2813131288250883,-15.486797332763672,-18.547088623046875,-34.410064697265625,-0.1004080772399902,1013.6907958984376
2.98830712890625,-0.0411747448228299,-1.3463286839932205,1.1741308733791112,-0.0351808741688728,0.2128189206123352,0.2190405577421188,0.069586449653953,0.0530273149207747,2.283451910614818,-15.629161834716797,-18.723243713378903,-34.890899658203125,-0.1268312931060791,1013.6939239501952
2.99837646484375,0.0239471677007153,-1.3525243237629532,1.056162081080675,-0.0582592971622943,0.208051860332489,0.231574460864067,0.0692590633637038,0.0549684391717583,2.2857510654455204,-15.695220947265623,-18.88639068603516,-34.623626708984375,-0.1268312931060791,1013.6939239501952
3.008445068359375,0.0496707339568063,-1.3592305434033274,0.9176958596765996,-0.0681203752756118,0.181520938873291,0.2350626587867736,0.0687724217329104,0.0567603396023263,2.288150752435949,-15.313764572143556,-18.81626892089844,-34.813507080078125,-0.1268312931060791,1013.6939239501952
3.018514404296875,0.0702848847772926,-1.4113421311736103,0.7774404167681932,-0.0677022561430931,0.1463893055915832,0.2402172088623047,0.068248544911755,0.0582632918595135,2.2905966712067776,-15.39667510986328,-18.647689819335938,-35.193572998046875,-0.1268312931060791,1013.6939239501952
3.0285830078125,0.0751196845225989,-1.4512673143267631,0.6843488760948181,-0.0604094713926315,0.110709436237812,0.2416360080242157,0.0677620123047377,0.0593750028917222,2.293065971739308,-15.691884994506836,-18.77826690673828,-34.914459228515625,-0.1268312931060791,1013.6939239501952
3.0386513671875,0.071916687230207,-1.4992558308176696,0.6689788730055093,-0.0437665805220603,0.0912198945879936,0.2442823946475982,0.0674148639927198,0.0602071383546314,2.295538804618269,-15.957426071166992,-18.60332489013672,-35.190643310546875,-0.1268312931060791,1013.6939239501952
3.04872021484375,0.0284192716134712,-1.5692507196724417,0.7228712067127228,-0.0286035314202308,0.0829467996954917,0.2475639134645462,0.0672196805422009,0.0608909847970686,2.2980270120665773,-15.79144287109375,-18.3021240234375,-35.446624755859375,-0.1268312931060791,1013.6939239501952
3.0587890625,-0.0184019546637311,-1.6411799375906586,0.8070107946455478,-0.0074998447671532,0.0842794477939605,0.2507421672344208,0.0672244256174672,0.0615635989285374,2.300542054368535,-15.7110595703125,-18.339622497558597,-35.082427978515625,-0.1268312931060791,1013.6939239501952
3.0688583984375,-0.0570490441724658,-1.6993641232728958,0.9421990172922612,0.0042278291657567,0.0882003307342529,0.252192348241806,0.0673951864023746,0.0622579962545501,2.3030735352102454,-15.538808822631836,-18.317237854003903,-34.665618896484375,-0.1268312931060791,1013.6939239501952
3.07892724609375,-0.1025253586467355,-1.7829311720147727,1.141808566445112,0.0002400111407041,0.0984851941466331,0.259925901889801,0.0676022272208147,0.0630236745916311,2.3056542663839483,-15.578388214111328,-18.210723876953125,-35.021636962890625,-0.1268312931060791,1013.6939239501952
3.088996337890625,-0.176463066843152,-1.8508789190813897,1.3140566459417342,-0.0202934555709362,0.1071315556764602,0.2717435359954834,0.0676774514350607,0.0638838870586203,2.3083303725615814,-15.598682403564451,-18.46131896972656,-34.914031982421875,-0.1268312931060791,1013.6939239501952
3.099064208984375,-0.2562313808891922,-1.8807647926487028,1.4395324528694151,-0.0455205142498016,0.1267012655735016,0.284479022026062,0.067528754466576,0.0648652389019444,2.311153159307765,-15.822635650634766,-18.26258087158203,-35.097015380859375,-0.1268312931060791,1013.6939239501952
3.10913330078125,-0.2760285527709871,-1.8428893816322087,1.5232815801799295,-0.0777126848697662,0.1494155824184417,0.3041704595088959,0.0671175908696089,0.0660634878506459,2.314150888161886,-15.629270553588867,-18.104591369628903,-35.020782470703125,-0.1268312931060791,1013.6939239501952
3.1192021484375,-0.2814665060412138,-1.7884778463564812,1.5558032090783118,-0.1197823658585548,0.1713704168796539,0.3254978656768799,0.0663471611397446,0.0674446919392758,2.317384062606405,-15.616765975952148,-18.14170837402344,-35.174346923828125,-0.1268312931060791,1013.6939239501952
3.129271240234375,-0.2774661843586712,-1.718711213299632,1.5196604670733214,-0.1496132165193557,0.202311098575592,0.3446866273880005,0.065203893829382,0.0691143321827014,2.3208417804733963,-15.68923568725586,-18.054054260253903,-34.872161865234375,-0.1268312931060791,1013.6939239501952
3.13934033203125,-0.2341129995182156,-1.68424473394379,1.4014420839279889,-0.1604882329702377,0.2121882289648056,0.361636608839035,0.0638940054761596,0.0709827132755341,2.324495138765119,-15.764932632446287,-17.998641967773438,-35.349029541015625,-0.1268312931060791,1013.6939239501952
3.1494091796875,-0.2396601853165775,-1.6898728029586374,1.2752969994366168,-0.1575371325016021,0.1957186609506607,0.3749580681324005,0.062569770706708,0.0727865765211953,2.3283340763051528,-15.619680404663086,-17.596656799316406,-35.711151123046875,-0.1268312931060791,1013.6939239501952
3.159477294921875,-0.2462678399533033,-1.687439730592817,1.23521224180758,-0.1443246603012085,0.1798020154237747,0.3819030523300171,0.0613354092008854,0.0744236202603518,2.332262047279229,-15.761882781982422,-17.60088348388672,-35.354339599609375,-0.1268312931060791,1013.6939239501952
3.1695458984375,-0.2702530381094664,-1.7201101203121243,1.225814298865199,-0.1301690340042114,0.1554006487131118,0.3860782384872436,0.0602602701759835,0.0758641595033749,2.336239709241246,-15.80210304260254,-17.49535369873047,-35.745452880859375,-0.1268312931060791,1013.6939239501952
3.179615234375,-0.3020910686578601,-1.744951862232387,1.2421493475943803,-0.114714965224266,0.1530078053474426,0.3846441209316253,0.059327617529734,0.0771594507699899,2.3402239058765257,-15.51724624633789,-17.18267822265625,-35.484954833984375,-0.1268312931060791,1013.6939239501952
3.18968408203125,-0.2984313771065324,-1.6990478969305751,1.2106155606895683,-0.1242476925253868,0.1270393431186676,0.3867679536342621,0.0584528141629653,0.0783596219742918,2.344205283599894,-15.687307357788086,-17.35279083251953,-35.829132080078125,-0.1268312931060791,1013.6939239501952
3.199753173828125,-0.3216350694961846,-1.5902045142434535,1.090008236581087,-0.1587302833795547,0.1245767250657081,0.3760239779949188,0.0573428530058765,0.0793674557987544,2.3481576829141475,-15.57699966430664,-17.209434509277344,-35.739959716796875,-0.1268312931060791,1013.6939239501952
3.209822265625,-0.3720587041795253,-1.4992163755901158,0.8709358620673417,-0.1778835952281952,0.1510672271251678,0.3688331544399261,0.0559376509537518,0.0805565633087887,2.352015844514797,-15.587970733642578,-17.092788696289062,-36.012481689453125,-0.1268312931060791,1013.6939239501952
3.21989013671875,-0.4126037727966904,-1.3978586724832651,0.4554179553896188,-0.1682378947734832,0.1542113423347473,0.3762085139751434,0.0544912772540397,0.081883301260468,2.3558862144350665,-15.761905670166016,-16.87012481689453,-36.10202026367188,-0.1268312931060791,1013.6939239501952
3.229958984375,-0.4473423470921814,-1.3102740586631,0.0554933391630649,-0.1315076947212219,0.183003157377243,0.3894112706184387,0.0532888365190021,0.0833369197655107,2.3598595225566656,-15.772932052612305,-16.60131072998047,-36.112396240234375,-0.1268312931060791,1013.6939239501952
3.240028076171875,-0.5944811197735369,-1.2762225898489354,-0.2907920413345098,-0.0610987730324268,0.2346732765436172,0.4010538160800934,0.0526403424867624,0.0852247860888816,2.3638962288633,-15.587583541870115,-16.511878967285156,-36.40884399414063,-0.1268312931060791,1013.6939239501952
3.25009716796875,-0.8567408941067755,-1.57950601009652,-0.7563473598569631,0.0395938977599144,0.2719390988349914,0.4279419779777527,0.0529033709205184,0.0875822995995448,2.3680765225184444,-15.51699447631836,-16.76336669921875,-36.340423583984375,-0.1268312931060791,1013.6939239501952
3.260166015625,-1.1056196472108364,-2.2197683455750346,-1.050425583255291,0.1074453815817833,0.287773460149765,0.4281278550624847,0.0540684709540769,0.0901990886835362,2.372354062343145,-15.511695861816406,-16.58257293701172,-36.322113037109375,-0.1268312931060791,1013.6939239501952
3.2702353515625,-1.174209491573274,-2.5582798772007225,-1.0816279462486504,0.0564087219536304,0.2766048014163971,0.4098600447177887,0.0553489428312924,0.092866085594279,2.3764694133769377,-15.55471420288086,-16.511276245117188,-36.46823120117188,-0.1268312931060791,1013.6939239501952
3.280302978515625,-0.6953839187197387,-2.408912907075882,-0.8666694367945194,-0.1887461692094802,0.2221066504716873,0.4298295080661773,0.0552143250545276,0.095138679566896,2.3806991128455914,-15.46263313293457,-16.71564483642578,-36.16403198242188,-0.1268312931060791,1013.6939239501952
3.2903720703125,0.0290672506608068,-1.6984879249602556,-0.8627548936992884,-0.6503696441650391,0.1156052723526954,0.4858384132385254,0.0515872823194375,0.0966494556716426,2.3856848117293143,-15.459577560424805,-16.622459411621094,-36.17404174804688,-0.1268312931060791,1013.6939239501952
3.300441162109375,0.6385267438575625,-0.6669604458551853,-1.637881772828102,-1.2177784442901611,-0.0573625154793262,0.4996460974216461,0.0427044566947326,0.0967023829769733,2.391589536585627,-15.408254623413086,-16.071762084960938,-36.194732666015625,-0.1268312931060791,1013.6939239501952
3.310510009765625,0.779092129497975,0.2755373169216327,-3.3482775777250526,-1.681787371635437,-0.3216509222984314,0.4755168259143829,0.0285281032353162,0.0946541272645933,2.3978819997465743,-15.57956886291504,-15.42718505859375,-35.889984130859375,-0.1268312931060791,1013.6939239501952
3.320579345703125,0.5791791404191404,0.863663167650625,-5.489635526669025,-1.8910801410675049,-0.5679203867912292,0.4271064102649688,0.0108293554572897,0.0900232686273172,2.4041143404260925,-15.494802474975586,-14.774528503417969,-36.61471557617188,-0.1268312931060791,1013.6939239501952
3.33064794921875,0.2374973081942647,1.424115834159404,-7.109811546936631,-1.7675752639770508,-0.776186466217041,0.329408049583435,-0.0073838234448829,0.0832105912791729,2.409538274768242,-15.962638854980469,-14.325187683105469,-36.956451416015625,-0.1268312931060791,1013.6939239501952
3.340716064453125,-0.2105723302591592,1.8355464715234933,-8.144595908945798,-1.3860526084899902,-0.9294833540916444,0.2534991800785064,-0.0231097803085086,0.0746163369771632,2.413693704940883,-16.369409561157227,-13.494407653808594,-36.51235961914063,-0.1268312931060791,1013.6939239501952
3.35078515625,-0.3673234923511743,2.1616754914380607,-8.340361057630181,-0.8513712286949158,-0.9008022546768188,0.1925504356622696,-0.0341852569847879,0.0653427254310127,2.41677807140876,-16.930160522460938,-13.01508331298828,-36.39205932617188,-0.1268312931060791,1013.6939239501952
3.36085400390625,-0.5569365481466054,2.685663271315396,-7.641345942801236,-0.3571271002292633,-0.7219326496124268,0.1126319095492363,-0.0400988891094041,0.0571739763889533,2.4186708428759967,-17.086076736450195,-12.536392211914062,-36.260284423828125,-0.1268312931060791,1013.6939239501952
3.370923095703125,-0.811488889907673,2.769378496356308,-6.449343312644958,0.0294578783214092,-0.4535480439662933,0.0137498006224632,-0.0416344026315597,0.0512452188899051,2.4194033505453136,-17.425304412841797,-12.29450225830078,-36.623809814453125,-0.1268312931060791,1013.6939239501952
3.3809921875,-0.9603813013233244,2.556975808864832,-5.08728865173161,0.2799574732780456,-0.1564476490020752,-0.0984422490000724,-0.0400071600792634,0.0481688470176719,2.418891398907447,-17.558998107910156,-12.160797119140623,-36.66867065429688,-0.1268312931060791,1013.6939239501952
3.391061279296875,-0.8995001316420733,2.29161719173342,-3.848845757439732,0.4225527644157409,0.0624250620603561,-0.2124351412057876,-0.0365002995860893,0.0476906776656203,2.417157851226204,-17.80496597290039,-12.334686279296877,-36.588226318359375,-0.1268312931060791,1013.6939239501952
3.401129150390625,-0.669297583565861,1.8860472630962728,-2.8800048169374466,0.5046092867851257,0.1726429164409637,-0.3214535117149353,-0.0319405514956785,0.048838717045094,2.414245311295004,-17.714506149291992,-12.425025939941406,-36.62472534179688,-0.1268312931060791,1013.6939239501952
3.4111982421875,-0.4467094925487413,1.4613124691314994,-2.0395149465382096,0.5659986734390259,0.2234717160463333,-0.4218887686729431,-0.0267262580874202,0.0507337705683876,2.4102284815955524,-17.423194885253906,-12.656852722167969,-36.35446166992188,-0.1268312931060791,1013.6939239501952
3.42126708984375,-0.2960044056879356,1.1281213288109748,-1.2507155158877372,0.6205346584320068,0.2404874414205551,-0.4958929717540741,-0.0209972867157567,0.0529560590880005,2.4052837129991693,-17.41788673400879,-12.72234344482422,-36.428802490234375,-0.1268312931060791,1013.6939239501952
3.431336181640625,-0.2370418560443445,0.9326961526706814,-0.511280127865076,0.6696527004241943,0.2743086516857147,-0.5385401248931885,-0.0147857954022969,0.0554254533520391,2.399706372573573,-17.361818313598633,-13.360549926757812,-36.55490112304688,-0.1268312931060791,1013.6939239501952
3.441405029296875,-0.1787389028206467,0.8507311322979628,0.2845616225123405,0.6920469403266907,0.2903938591480255,-0.5444342494010925,-0.0082356228359649,0.0582392144157409,2.3938497710294016,-16.996854782104492,-13.535881042480469,-36.67599487304688,-0.1268312931060791,1013.6939239501952
3.45147412109375,-0.0661255731407552,0.8146743150107562,1.002468484815955,0.6858257055282593,0.3004311323165893,-0.5126928687095642,-0.0016278768620766,0.0611787503246803,2.3880942795752422,-16.7449951171875,-14.014442443847656,-36.799102783203125,-0.1268312931060791,1013.6939239501952
3.4615419921875,0.0498420354031026,0.7433547534234821,1.620897320279479,0.6400699615478516,0.3016449809074402,-0.4624089300632477,0.0047714412725904,0.0642220356922578,2.382762366365952,-16.7635440826416,-14.389022827148438,-36.714752197265625,-0.1268312931060791,1013.6939239501952
3.471611083984375,0.2067904005676507,0.7038183503922074,2.0667314547657964,0.549588680267334,0.2787238657474518,-0.3562536239624023,0.0104903961379763,0.0671785162730078,2.378244437939277,-16.558353424072266,-14.951263427734377,-36.412200927734375,-0.1268312931060791,1013.6939239501952
3.48168017578125,0.3558069498196244,0.6970230642288923,2.299613743445277,0.4257408082485199,0.2754718959331512,-0.2094404548406601,0.0151994707830384,0.0700147384069245,2.3750596552205425,-16.289634704589844,-14.98296356201172,-36.566497802734375,-0.1268312931060791,1013.6939239501952
3.491749267578125,0.4198346008330583,0.8070909472096711,2.4288205535948277,0.2904036939144134,0.3086399734020233,-0.0516554303467273,0.0187180887810639,0.0729277971619239,2.373476792993064,-16.080808639526367,-15.239753723144531,-36.634124755859375,-0.1268312931060791,1013.6939239501952
3.501818115234375,0.4154385578311979,0.935973566906154,2.412730419537425,0.1868178993463516,0.3203563094139099,0.1075616553425788,0.0211034930248396,0.0760898114341655,2.3735807485143363,-16.233592987060547,-15.333702087402344,-36.40347290039063,-0.1268312931060791,1013.6939239501952
3.51188720703125,0.4279901424989104,1.06707247441262,2.026754249164462,0.1277938485145568,0.3556267321109772,0.2874634563922882,0.0228298126749663,0.0794166022445756,2.3754302112382426,-16.033302307128906,-15.079421997070312,-35.919891357421875,-0.1268312931060791,1013.6939239501952
3.5219560546875,0.6456454167563468,1.4353241875246163,1.7777315575450658,0.0943298935890197,0.4519681930541992,0.4571203887462616,0.0242333538579661,0.0833618235630027,2.379100000734031,-15.785528182983398,-15.383377075195312,-36.181549072265625,-0.1268312931060791,1013.6939239501952
3.53202392578125,0.9095316963128744,1.6597040207967162,1.5363830538153649,0.0791045725345611,0.5558850765228271,0.5702676177024841,0.0255382049761088,0.0883052559222497,2.38422114552288,-15.886943817138672,-15.6461181640625,-36.53756713867188,-0.1268312931060791,1013.6939239501952
3.54209326171875,1.0731181843176485,1.642550787552446,1.1163567298024892,0.0898722633719444,0.6209887266159058,0.6564853191375732,0.0269328525827224,0.0940991672454977,2.3903155432956478,-15.682865142822266,-15.415245056152344,-36.598541259765625,-0.1268312931060791,1013.6939239501952
3.552161865234375,1.2843879222564398,1.6079218111112712,0.6383125165849923,0.1021249517798423,0.6547231078147888,0.7108691334724426,0.0285597820872476,0.1003476828869035,2.397103574070281,-15.447418212890623,-15.430130004882812,-36.949005126953125,-0.1268312931060791,1013.6939239501952
3.562231201171875,1.563582903169095,1.7036676656857133,0.1640039827644825,0.1241338476538658,0.6140505075454712,0.709943413734436,0.0304351555745414,0.1065721293992052,2.404129253591399,-15.341602325439451,-15.55682373046875,-36.89712524414063,-0.1268312931060791,1013.6939239501952
3.57230029296875,1.6400252145975829,1.756652529159188,-0.2893126164317131,0.1441960632801056,0.5118834972381592,0.6535431146621704,0.0325279922356034,0.1120491258407626,2.4108384304113093,-15.184684753417969,-15.540252685546877,-37.04074096679688,-0.1268312931060791,1013.6939239501952
3.582369140625,1.6094466825909912,1.7492527742967008,-0.611212912735343,0.1556684374809265,0.3578054904937744,0.559343159198761,0.034719611655385,0.1162582918655211,2.4167600337963373,-15.176942825317385,-15.276329040527344,-37.008819580078125,-0.1268312931060791,1013.6939239501952
3.592437255859375,1.631322560442984,1.6384364841014143,-0.8214104913979768,0.1738823652267456,0.1492531299591064,0.4437355399131775,0.0369707503464856,0.118663278740891,2.421584482080569,-15.137985229492188,-15.36640167236328,-37.30392456054688,-0.1268312931060791,1013.6939239501952
3.602506103515625,1.580761709246039,1.4758656028799713,-0.9597890345185994,0.1894325613975525,-0.0678877085447311,0.3167469799518585,0.0392546602447001,0.1189333954625698,2.4251742049679663,-15.01174545288086,-15.33709716796875,-37.045196533203125,-0.1268312931060791,1013.6939239501952
3.6125751953125,1.459695243193209,1.335635148282349,-0.8927426202058791,0.2062604129314422,-0.2455606311559677,0.1963019371032714,0.0415433066760749,0.117238364313768,2.4275025377492883,-15.005834579467772,-15.29460906982422,-37.000091552734375,-0.1268312931060791,1013.6939239501952
3.62264404296875,1.2915879167631268,1.1935511017072946,-0.6490203730821609,0.2274487912654876,-0.3457687497138977,0.0974986553192138,0.0438720686446612,0.114166070573318,2.4287040926274925,-15.21796417236328,-15.22607421875,-36.94351196289063,-0.1268312931060791,1013.6939239501952
3.632713134765625,1.0818156508404762,1.0143583907045424,-0.2952776623159647,0.2602411210536957,-0.3518767356872558,0.0245432276278734,0.0463692561112749,0.1105798700205366,2.429008785072741,-15.423553466796877,-15.551055908203123,-37.17770385742188,-0.1268312931060791,1013.6939239501952
3.6427822265625,0.8243775245100259,0.8552877726890146,0.1554179407268762,0.2977812886238098,-0.2719267606735229,-0.0304483864456415,0.049164202306886,0.1074043878732378,2.4286783025363072,-15.399389266967772,-15.576148986816406,-36.89181518554688,-0.1268312931060791,1013.6939239501952
3.65285107421875,0.552586901569739,0.7442109318614005,0.654559302508831,0.3238595128059387,-0.1581032574176788,-0.0628907531499862,0.0522305050037554,0.1052748618769951,2.427861907044284,-15.691980361938477,-15.75946807861328,-36.737823486328125,-0.1268312931060791,1013.6939239501952
3.662919189453125,0.3368354151070117,0.6236652748122811,1.1056178936451673,0.3395468592643738,-0.0507997050881385,-0.0663355514407157,0.0554764207957628,0.1042918649474637,2.4268470557732846,-15.593307495117188,-15.843109130859377,-36.406280517578125,-0.1268312931060791,1013.6939239501952
3.672988037109375,0.1592488241266459,0.5143345104670152,1.4124603215485811,0.3381701111793518,0.0359628871083259,-0.0655195340514183,0.0588138219714846,0.1042930659534226,2.4258264742162017,-15.656700134277344,-15.948753356933594,-36.42355346679688,-0.1268312931060791,1013.6939239501952
3.683057373046875,-0.0249134189169853,0.4404110134590417,1.6566946098476647,0.3119672536849975,0.1031336635351181,-0.0565417483448982,0.0620084815469508,0.1050622588927048,2.424862735577649,-15.692251205444336,-15.959007263183594,-36.50796508789063,-0.1268312931060791,1013.6939239501952
3.6931259765625,-0.0875939661704003,0.3736895933169871,1.8500030130296945,0.2772448658943176,0.1470780670642852,-0.0344559997320175,0.0649152216959479,0.1063869585152482,2.424082654341783,-15.380826950073242,-16.186630249023438,-36.502532958984375,-0.1268312931060791,1013.6939239501952
3.7031953125,-0.0767255122840404,0.2787431454919278,1.93416013661921,0.2602099478244781,0.1559248119592666,-0.0119879767298698,0.0675683110668585,0.1079803838771047,2.423563374009094,-15.454011917114258,-16.47997283935547,-36.56411743164063,-0.1268312931060791,1013.6939239501952
3.71326416015625,-0.1091473340697586,0.2336491083335131,1.9010171609520912,0.2460513114929199,0.1317783147096634,0.0126512190327048,0.0701018518565034,0.1094098473022102,2.42329154945276,-15.220947265625,-16.474884033203125,-36.40304565429688,-0.1268312931060791,1013.6939239501952
3.72333203125,-0.0447224273670464,0.1815112901434302,1.8823194747447969,0.241968959569931,0.1321327835321426,0.0383179672062397,0.0725735480553661,0.110729286723994,2.4232657655007173,-15.162866592407228,-16.464874267578125,-36.213165283203125,-0.1268312931060791,1013.6939239501952
3.7334013671875,-0.0035276626694947,0.1582397201493382,1.8516981265097856,0.2425123751163482,0.1386930793523788,0.0614369846880435,0.0750289637804725,0.1120844716009709,2.423493776350777,-15.153976440429688,-16.64189910888672,-36.30825805664063,-0.1268312931060791,1013.6939239501952
3.743469970703125,-0.0140047060854732,0.1630683093495666,1.764759847769141,0.2366635352373123,0.1260388046503067,0.0823720917105674,0.0775122123075578,0.1133998942624516,2.4239233395682445,-15.171106338500977,-16.598533630371094,-36.43569946289063,-0.1268312931060791,1013.6939239501952
3.753539306640625,0.0285581320948898,0.1414161572508513,1.7482786685675382,0.2162811458110809,0.0967007800936698,0.1088397651910781,0.079904608074993,0.1144623243517613,2.424630199975069,-15.167631149291992,-16.58202362060547,-36.478118896484375,-0.1268312931060791,1013.6939239501952
3.763608154296875,0.0531433419708162,0.0674249653015285,1.776498800879717,0.1878106296062469,0.0766996368765831,0.1278813779354095,0.082071290203359,0.1152639488977375,2.425599851118191,-15.191104888916016,-16.495445251464844,-36.231353759765625,-0.1268312931060791,1013.6939239501952
3.773677001953125,0.0180816001355648,-0.0380354969490319,1.79717567820549,0.1491793394088745,0.0381949618458747,0.1275283992290496,0.0839121604881046,0.115779778355246,2.426684812945536,-15.12138557434082,-16.73003387451172,-36.18649291992188,-0.1268312931060791,1013.6939239501952
3.7837451171875,0.008231091120094,-0.1196598141252994,1.8099433898419144,0.1005585268139839,-0.0211908668279647,0.1239326074719429,0.0853136617547366,0.1157755451564518,2.427815803472939,-15.29840087890625,-16.74536895751953,-35.865814208984375,-0.1268312931060791,1013.6939239501952
3.793814208984375,0.0140036831721663,-0.1434207020062953,1.835876287999749,0.032772772014141,-0.0815445408225059,0.1169823110103607,0.086113261834265,0.1151424933138024,2.4289700797040648,-15.413654327392578,-16.939437866210938,-35.956634521484375,-0.1268312931060791,1013.6939239501952
3.80388330078125,-0.0275369723536074,-0.0758144618537277,1.7969921383321283,-0.043367002159357,-0.1286361664533615,0.097606748342514,0.086186770704964,0.1139963440574401,2.4300641313507643,-15.499061584472656,-16.87029266357422,-35.900054931640625,-0.1268312931060791,1013.6939239501952
3.8139521484375,-0.0580069294191896,-0.0304656462166458,1.6750491817057132,-0.1109086722135543,-0.1564721167087555,0.0815903395414352,0.0854984713546977,0.1124732767399901,2.43104173337665,-15.438671112060549,-16.93065643310547,-35.968963623046875,-0.1268312931060791,1013.6939239501952
3.824021240234375,-0.0216211724385619,-0.0323270561743527,1.5062825145840644,-0.1686049848794937,-0.176848754286766,0.0670614689588546,0.0841594263915046,0.1107167543254878,2.4319340509640317,-15.331634521484377,-16.427040100097656,-35.970550537109375,-0.1268312931060791,1013.6939239501952
3.834090087890625,-0.0159426884107291,-0.0459772497337311,1.301421620774269,-0.1975991278886795,-0.1748986691236496,0.0561245344579219,0.0823645580603631,0.1088679001262571,2.432752879931739,-15.54770851135254,-16.476295471191406,-36.033782958984375,-0.1268312931060791,1013.6939239501952
3.8441591796875,-0.0293958980932831,-0.0777639884863048,1.1529910547167062,-0.1950427591800689,-0.1758568733930587,0.0424348190426826,0.0804290542746839,0.1070476207397772,2.4334766885086245,-15.420053482055664,-16.39124298095703,-36.113800048828125,-0.1268312931060791,1013.6939239501952
3.85422705078125,-0.0673258888412267,-0.1321384066220373,1.084040268087387,-0.1866684406995773,-0.1702168434858322,0.0277616027742624,0.0785558665781734,0.1052380366349093,2.43402444230486,-15.441608428955078,-16.138938903808594,-35.971954345703125,-0.1268312931060791,1013.6939239501952
3.864296142578125,-0.112113782659918,-0.2161236807759851,1.0934253515481949,-0.1843778640031814,-0.1576397866010666,0.0106196347624063,0.0767306397920331,0.1035505491429676,2.434410004153662,-15.721321105957031,-16.221641540527344,-35.690338134765625,-0.1268312931060791,1013.6939239501952
3.874365478515625,-0.1297942546486854,-0.3172470636703073,1.1230851612746715,-0.1906973719596862,-0.1641469299793243,-0.0093948123976588,0.0748669299171254,0.1019076525407889,2.43462227735291,-15.771280288696287,-15.99517059326172,-35.805633544921875,-0.1268312931060791,1013.6939239501952
3.88443408203125,-0.1204711305081844,-0.3908920725304633,1.159321426782012,-0.2157771587371826,-0.1769602000713348,-0.0314282104372978,0.0728142785157562,0.1001958877548093,2.4346337934091458,-15.589231491088867,-16.041107177734375,-35.805206298828125,-0.1268312931060791,1013.6939239501952
3.894503173828125,-0.108732615789026,-0.4645310169760137,1.1657570127874612,-0.2476442456245422,-0.1904851049184799,-0.055248312652111,0.0704566329247706,0.0983427054451385,2.434433855110098,-15.665494918823242,-16.036880493164062,-35.649078369140625,-0.1268312931060791,1013.6939239501952
3.904572021484375,-0.0617977000042796,-0.5349499764617532,1.1138999843001365,-0.2693724632263183,-0.2006690353155136,-0.0778814554214477,0.0678014064450622,0.0963782584085887,2.4340186705741536,-15.898643493652344,-15.87250518798828,-35.904998779296875,-0.1268312931060791,1013.6939239501952
3.91464013671875,-0.0303363938137888,-0.5809902814943343,1.0289876584291455,-0.2792794406414032,-0.1936421543359756,-0.1036055833101272,0.0649466271126889,0.0944206114048383,2.433372900417464,-16.08439826965332,-15.789810180664062,-36.541534423828125,-0.1268312931060791,1013.6939239501952
3.924709228515625,-0.0522682396367192,-0.6406308765299618,0.940453634929657,-0.2588562071323395,-0.162270650267601,-0.1300345361232757,0.0621246669667761,0.0926771424581081,2.4324610613409554,-16.08709716796875,-15.755653381347656,-36.587432861328125,-0.1268312931060791,1013.6939239501952
3.934778076171875,-0.1050120608959346,-0.7491660700507462,0.8644745570987462,-0.2315517514944076,-0.1144037395715713,-0.1510943323373794,0.0595362601136272,0.0913496458379815,2.431283907339465,-16.06795310974121,-15.583908081054688,-36.288970947265625,-0.1268312931060791,1013.6939239501952
3.944847412109375,-0.1705229362044483,-0.8883516917705535,0.8450999945431947,-0.1832390874624252,-0.0713031366467475,-0.1788412779569625,0.0573023601681892,0.0905058128274178,2.429828993919731,-16.370140075683594,-15.550933837890623,-36.717376708984375,-0.1268312931060791,1013.6939239501952
3.954916015625,-0.2167912778392434,-1.0014636186223476,0.901827259415388,-0.1494091004133224,-0.0281538404524326,-0.2056172043085098,0.055454543450142,0.0901158413644883,2.42805627518472,-16.0930233001709,-15.32550811767578,-36.60714721679688,-0.1268312931060791,1013.6939239501952
3.964985107421875,-0.2129238618213683,-1.1358061111599207,1.0372568896025418,-0.1283855885267257,-0.0059417458251118,-0.228186160326004,0.0538685276371237,0.090048992321364,2.426003361074091,-16.199825286865234,-15.655189514160156,-36.283233642578125,-0.1268312931060791,1013.6939239501952
3.97505322265625,-0.1410430861547589,-1.2841726720705628,1.127940784612298,-0.1265351325273513,0.0217407681047916,-0.2476578801870346,0.052363337740015,0.0902509541639094,2.423736699540536,-16.119718551635742,-15.634353637695312,-36.481842041015625,-0.1268312931060791,1013.6939239501952
3.985122314453125,-0.0647100072544068,-1.3779562866613269,1.1908563827306031,-0.130163162946701,0.0390294753015041,-0.2499503344297409,0.050869970201045,0.0906870276674343,2.4213505208390784,-16.364545822143555,-15.849876403808594,-36.127532958984375,-0.1268312931060791,1013.6939239501952
3.995191162109375,0.0125897977862507,-1.4415939154438673,1.1908476149022578,-0.1562063992023468,0.0543718636035919,-0.2474420964717865,0.0492157072853662,0.0912688850855992,2.418984484193778,-16.37373161315918,-15.790611267089844,-36.51364135742188,-0.1479697227478027,1013.6963653564452
4.00526025390625,0.1286849051672965,-1.5135150961861012,1.1725146703541278,-0.1853632181882858,0.0811371654272079,-0.2368778586387634,0.0472658736410314,0.0920450541370611,2.4167261220768963,-16.257709503173828,-15.757118225097656,-36.658233642578125,-0.1479697227478027,1013.6963653564452
4.015328857421875,0.2686108969256282,-1.5789020528540014,1.0914753865242004,-0.1915438771247863,0.0960446447134018,-0.2231193482875824,0.0451431085245436,0.0930315749123017,2.4145934137162697,-15.866338729858398,-15.703109741210938,-36.428985595703125,-0.1479697227478027,1013.6963653564452
4.025398193359375,0.3726300012614578,-1.6286850515462457,0.9623796355336904,-0.1750754117965698,0.1008492559194564,-0.1943012923002243,0.0431011697438847,0.0941101592934299,2.412659551196465,-16.092723846435547,-15.36786651611328,-36.407318115234375,-0.1479697227478027,1013.6963653564452
4.035466064453125,0.5539433576799929,-1.7549075851880014,0.838057090294361,-0.1443274021148681,0.0998600274324417,-0.1509600281715393,0.0413216039393668,0.0951970941828775,2.411097520557022,-15.919776916503906,-15.387619018554688,-36.283599853515625,-0.1479697227478027,1013.6963653564452
4.04553515625,0.5792002562724053,-1.857849927137792,0.6923346141517162,-0.1062572449445724,0.0927765518426895,-0.1273356676101684,0.0399327625037951,0.0962381702118632,2.409816616381296,-15.777986526489258,-15.304527282714844,-36.23654174804688,-0.1479697227478027,1013.6963653564452
4.055604248046875,0.5686025821514428,-1.893906159903109,0.6286041925191879,-0.0771026089787483,0.068692035973072,-0.1010391488671302,0.0389255456410284,0.0971061029740512,2.4087562335665136,-15.92938232421875,-15.34868621826172,-36.27633666992188,-0.1479697227478027,1013.6963653564452
4.065673095703125,0.5741464069489389,-1.964524587483704,0.5937140809237956,-0.0585582181811332,0.0494187325239181,-0.0790590196847915,0.0381631270983293,0.0977468883273782,2.407930483441738,-15.565900802612305,-15.22796630859375,-36.48287963867188,-0.1479697227478027,1013.6963653564452
4.0757421875,0.5500353904560208,-2.024756937867403,0.5364490559130907,-0.0626195222139358,0.0147151611745357,-0.0688242763280868,0.0375290951623486,0.0980994021418838,2.4072672647468982,-15.706371307373049,-15.24433135986328,-36.416778564453125,-0.1479697227478027,1013.6963653564452
4.08581103515625,0.5377652530781925,-2.0352757015332577,0.4477157104492187,-0.0910639464855194,-0.0240551382303237,-0.0674705877900123,0.0367458651698129,0.0980811926097808,2.406679349072594,-15.684818267822266,-15.245841979980469,-36.58834838867188,-0.1479697227478027,1013.6963653564452
4.095880126953125,0.5545698190152645,-1.987416656640917,0.3010340338855982,-0.1327065676450729,-0.047870822250843,-0.0731374695897102,0.0356286863103999,0.0977504024401761,2.4060775680316357,-15.62213897705078,-15.37750244140625,-36.41714477539063,-0.1479697227478027,1013.6963653564452
4.105947998046875,0.5557436120349913,-1.9449192849121983,0.004647533544898,-0.1644120216369629,-0.0817219913005828,-0.089718572795391,0.0341019073883867,0.0971492859035796,2.4054092503723177,-15.722782135009766,-15.347557067871094,-36.429229736328125,-0.1479697227478027,1013.6963653564452
4.116017333984375,0.5192122360385955,-1.8237158946067091,-0.437657257771492,-0.1736805289983749,-0.1284074783325195,-0.1056021675467491,0.0323763981246963,0.096133391496912,2.4045938437538434,-15.703100204467772,-15.271354675292969,-36.364837646484375,-0.1479697227478027,1013.6963653564452
4.126086181640625,0.5002679546590895,-1.6697998828753828,-0.9313532136291264,-0.136541947722435,-0.177499920129776,-0.1195190548896789,0.0307366715162943,0.0946347251868467,2.403614562261056,-15.83746337890625,-15.120643615722656,-36.289886474609375,-0.1479697227478027,1013.6963653564452
4.136155029296875,0.4328086486965418,-1.4636080327227712,-1.4752426486760375,-0.0577670373022556,-0.2229675501585006,-0.1184098348021507,0.0296518997138991,0.0926509061165494,2.4024995437346583,-15.800363540649414,-14.880279541015623,-36.285491943359375,-0.1479697227478027,1013.6963653564452
4.14622412109375,0.2632032657284289,-1.4535535255677998,-1.9634534511208528,0.0662542432546615,-0.258637398481369,-0.0983913838863372,0.0295937816200138,0.0902660968932566,2.401394639536408,-15.898265838623049,-15.16631317138672,-36.217071533203125,-0.1479697227478027,1013.6963653564452
4.15629296875,-0.0448502184651792,-1.9370947287663816,-2.129544177031517,0.192642867565155,-0.2739976048469543,-0.0889415293931961,0.0308086979526816,0.087612751974746,2.400361388109041,-15.876123428344728,-14.999992370605469,-36.066314697265625,-0.1479697227478027,1013.6963653564452
4.166361328125,-0.3967817881561815,-2.381200432024896,-1.8101403737187385,0.2762115597724914,-0.2712430953979492,-0.1375892162322998,0.0331311277017812,0.0848899406298435,2.399054356449817,-16.090116500854492,-15.100570678710938,-35.936065673828125,-0.1479697227478027,1013.6963653564452
4.17643017578125,-0.4388320737045258,-2.280732078973204,-1.3893074094980955,0.2648839652538299,-0.2364918738603592,-0.1564134359359741,0.0358092839354191,0.0824464562905091,2.3973073548350228,-16.44304656982422,-15.313148498535156,-35.826019287109375,-0.1479697227478027,1013.6963653564452
4.186499267578125,-0.1820298341248184,-1.790593231075257,-1.139497951415181,0.1137189343571662,-0.2201203554868698,-0.1748169511556625,0.037664572515639,0.0802128758093222,2.395489456343009,-16.363618850708008,-15.759567260742188,-35.643402099609375,-0.1479697227478027,1013.6963653564452
4.196568359375,-0.0965114321194589,-0.9716365625701844,-1.3754618394970892,-0.1508872210979461,-0.2399729937314987,-0.2450459748506546,0.0373734272522169,0.0780138906747241,2.3934516262007257,-16.38201332092285,-15.608184814453123,-36.020660400390625,-0.1479697227478027,1013.6963653564452
4.20663720703125,-0.1821709961611777,-0.1087299489079043,-2.1769377963691947,-0.475629597902298,-0.2994288504123688,-0.362488716840744,0.0340241772849475,0.0754082433897821,2.390657882272365,-16.2835693359375,-15.553268432617188,-35.885955810546875,-0.1479697227478027,1013.6963653564452
4.216706298828125,-0.2408860738497227,0.6091814799729734,-3.250868758374452,-0.7818001508712769,-0.3712088465690613,-0.4432335793972015,0.0273783791833517,0.0721384564483133,2.387029550609275,-16.29460906982422,-15.522377014160156,-35.790924072265625,-0.1479697227478027,1013.6963653564452
