Timestamp,Acc x (m/s^2),Acc y (m/s^2),Acc z (m/s^2),Gyro x (rad/s),Gyro y (rad/s),Gyro z (rad/s),Beccheggio/Pitch (rad/s),Rollio/Roll (rad/s),Imbardata/Yaw (rad/s),Mag x (microTesla),Mag y (microTesla),Mag z (microTesla),Altitudine (m),Pressione (milliBar)
0.017720703125,0.1287115739785134,-0.0538372059864923,0.007025368592143,-0.010191704146564,0.0122908800840377,0.0240717977285385,0.0579122512278545,0.0414455338517164,0.8615294526764493,14.972972869873049,-19.26582336425781,-34.593170166015625,0.0,1013.6798095703124
0.027789794921875,0.1203890417153015,-0.0439368299473077,0.0002384849309921,-0.010292106308043,-0.0236990787088871,0.0122492257505655,0.0578230253007372,0.0413323928558592,0.8616977103546644,14.977359771728516,-18.907730102539062,-34.100067138671875,0.0,1013.6798095703124
0.037858642578125,0.1396757433243095,-0.0374465911451727,-0.0326402868419885,-0.0045886794105172,-0.0482574179768562,0.0117890313267707,0.057767585990187,0.0409362177780047,0.8618236006216243,14.85624885559082,-19.18182373046875,-34.249053955078125,0.0,1013.6798095703124
0.0479267578125,0.172256737727113,-0.031451369318366,-0.0538514171749353,0.0040872832760214,-0.0507119782269001,0.005238905083388,0.057799150155107,0.0404202929731818,0.8619053256944468,15.0078125,-19.76935577392578,-34.230072021484375,0.0,1013.6798095703124
0.05799560546875,0.1132461842233315,0.0251518307827413,-0.0168868373930454,0.0016036191955208,-0.0501993186771869,0.0017387121915817,0.0578643886882471,0.0399363950661245,0.8619362759177075,14.796411514282228,-19.993194580078125,-34.438690185546875,0.0,1013.6798095703124
0.068064697265625,0.0734794430349022,0.0468023023810237,0.0431470678091049,-0.0139995422214269,-0.0366990864276886,0.0054938928224146,0.057844310069077,0.0395042855916347,0.8619795134815375,14.857717514038086,-19.826637268066406,-34.168365478515625,0.0,1013.6798095703124
0.078134033203125,0.0954093526290729,0.0731601479526609,0.0603799421608448,-0.0239333994686603,-0.0082911476492881,0.0070132254622876,0.0576783910989708,0.0392965906374696,0.8620401858172952,14.920717239379885,-19.931785583496094,-34.486541748046875,0.0,1013.6798095703124
0.088201904296875,0.0639446854377165,0.0977482439054176,0.0313140066742897,-0.0220245644450187,0.0087101003155112,0.0105646923184394,0.05745398234359,0.039330841777944,0.8621411760030515,14.912603378295898,-19.966758728027344,-34.412689208984375,0.0,1013.6798095703124
0.098270751953125,0.0273307822570204,0.1498277925696224,-0.0184638774514198,-0.0173336714506149,0.0056045874953269,0.007184075191617,0.0572711552243852,0.0394632534037964,0.8622339039352009,14.962177276611328,-19.598876953125,-34.289398193359375,0.0,1013.6798095703124
0.10833984375,0.0029497166510671,0.119129762369208,-0.0768044227391481,-0.0045378440991044,0.0062680440023541,0.0107464650645852,0.0571771687508586,0.0395538044727108,0.8623249846299943,14.612619400024414,-19.5767822265625,-34.070159912109375,0.0,1013.6798095703124
0.11840869140625,0.0124655138194561,0.0671022726858034,-0.0645861616790294,0.0067172059789299,0.0037641394883394,0.0119771109893918,0.0572124791271418,0.0396366052719255,0.8624290246432522,14.61117935180664,-19.56137084960937,-34.211639404296875,0.0,1013.6798095703124
0.1284765625,0.0199652219250798,0.0373322075178846,-0.0001963993549346,0.0154271889477968,-0.0001602708362042,0.0060707726515829,0.0573355508383839,0.039726839707998,0.8625171986593706,14.714559555053713,-19.58959197998047,-34.078643798828125,0.0,1013.6798095703124
0.1385458984375,-0.0084479852737858,0.0367461147256195,0.0865098241955041,0.0151760531589388,-0.0041550127789378,-0.0021221756469458,0.0574743779117051,0.039740615799429,0.8625306200378348,14.636482238769531,-19.7711181640625,-34.312896728515625,0.0,1013.6798095703124
0.148614501953125,0.0035634281026199,0.0269451074076816,0.1264233169108629,0.0065721115097403,-0.0055941957980394,-0.0048305909149348,0.0575584674723977,0.0397213837980209,0.8624953049420725,14.825441360473633,-19.80943298339844,-34.081756591796875,0.0,1013.6798095703124
0.158683837890625,0.0183331637438386,-0.0317103125154972,0.0890413884997367,0.0001067547127604,-0.0133357383310794,-0.0135830696672201,0.0575587222141267,0.0396494405201979,0.862407177716121,14.943439483642578,-19.550506591796875,-33.631561279296875,0.0,1013.6798095703124
0.1687529296875,0.0332288638522848,-0.0463216427246108,0.0738689538091421,-0.0130950678139925,-0.007563336752355,-0.0190795678645372,0.0574571589060686,0.0395643869055439,0.8622320697390053,14.84992790222168,-19.721778869628903,-33.621978759765625,0.0,1013.6798095703124
0.178820556640625,0.0184406427063047,-0.0359939446514472,0.0706949999481439,-0.0214715078473091,0.0087695643305778,-0.0241696666926145,0.0572281765739711,0.0395918088079546,0.8620158035682378,14.854598999023438,-19.533920288085938,-33.957183837890625,0.0,1013.6798095703124
0.188889892578125,-0.0168335363032296,-0.0222428480008617,0.0966553706347942,-0.0238845162093639,0.0277631524950265,-0.0260750763118267,0.056951484643426,0.0398012057308321,0.8617700512223366,14.833505630493164,-19.586898803710938,-34.029266357421875,0.0,1013.6798095703124
0.198958740234375,-0.0147636346939951,-0.0156323803525418,0.0971259107559919,-0.0278214663267135,0.0424329116940498,-0.0189439319074153,0.0566637960566326,0.0401549119776042,0.8615578868790396,14.786731719970703,-19.563438415527344,-34.110443115234375,0.0,1013.6798095703124
0.20902783203125,-0.0019965441120788,-0.0532944774119183,0.0973871920406818,-0.0199863910675048,0.0501167997717857,-0.0198461469262838,0.0564087405237754,0.0406083025829053,0.8613615960121894,14.724864959716797,-19.86539459228516,-33.825775146484375,0.0,1013.6798095703124
0.219095703125,-0.0114400432292371,-0.0276913957303389,0.1121305876642465,-0.0185850374400615,0.0472594946622848,-0.0214333906769752,0.0561810333070761,0.0410989130779705,0.8611540553664191,15.003484725952148,-19.654220581054688,-33.967315673828125,0.0,1013.6798095703124
0.229164794921875,-0.022192725248821,-0.0159836414756253,0.0779231976360082,-0.0116507010534405,0.0367253199219703,-0.0183600224554538,0.0560318825355836,0.0415246804643464,0.8609693919949337,14.93842887878418,-19.95105743408203,-33.811614990234375,0.0,1013.6798095703124
0.239233642578125,-0.009331782370992,-0.0311791647808626,0.0630202275365591,-0.0107026165351271,0.0318272337317466,-0.0176396369934082,0.0559317972756534,0.0418770577195855,0.8607862730316725,14.84720230102539,-19.730995178222656,-34.159942626953125,0.0,1013.6798095703124
0.249302734375,-0.0107501612689346,-0.0651643634257838,0.053685997480154,-0.0176305305212736,0.0210383739322423,-0.025279588997364,0.0558230351039727,0.0421594582513177,0.860576528876371,14.556459426879885,-19.873992919921875,-33.738739013671875,0.0,1013.6798095703124
0.259370849609375,-0.004211553280428,-0.0504955308757722,0.0590057311981916,-0.0392183810472488,0.0049041449092328,-0.0309971291571855,0.0555636806872696,0.0423011571763878,0.8602926223187153,14.735456466674805,-19.57630157470703,-34.287811279296875,0.0,1013.6798095703124
0.269439697265625,0.0052973392231389,-0.0493535577664151,0.0561316370666027,-0.0527416616678237,-0.010633148252964,-0.0341166779398918,0.0550995816850484,0.0422611275114966,0.8599728989667382,14.817686080932615,-19.378883361816406,-34.101593017578125,0.0,1013.6798095703124
0.279509033203125,-0.0145801313532516,-0.0332936727168038,0.0289642286777496,-0.0579598546028137,-0.0210365206003189,-0.03696945682168,0.0545391263631944,0.0421043843556279,0.8596269635489452,14.66314697265625,-19.64190673828125,-34.128936767578125,0.0,1013.6798095703124
0.28957763671875,-0.0046459626423195,-0.0425891051327809,-0.0218418294519186,-0.0495451353490352,-0.0247801728546619,-0.0380226299166679,0.0540024521383238,0.0418983900302233,0.8592712527639983,14.91650390625,-19.441978454589844,-33.872650146484375,0.0,1013.6798095703124
0.299645751953125,-0.0290352480873465,-0.0464873912129551,-0.0634270547717809,-0.0378131121397018,-0.0209026094526052,-0.0354737192392349,0.05357380502331,0.0416831392954623,0.8589198802513872,15.030376434326172,-19.66680908203125,-33.836883544921875,0.0,1013.6798095703124
0.30971484375,-0.0557563009481877,-0.0347520548315718,-0.0738198539704084,-0.0272251646965742,-0.0075144516304135,-0.0312298685312271,0.0532441261954502,0.0415382146097285,0.8585908455420247,14.799612045288086,-19.50605010986328,-34.081146240234375,0.0,1013.6798095703124
0.31978369140625,-0.0465818645633757,0.007527911286801,-0.0786544345200061,-0.0152867473661899,0.003528079483658,-0.0276303403079509,0.0530385868304881,0.0415482933524664,0.8583092578345007,14.671375274658203,-19.47425842285156,-34.022796630859375,0.0,1013.6798095703124
0.329852783203125,-0.0259455019110813,0.0025395284149795,-0.1265314534604549,-0.0003360277041792,0.0016564093530178,-0.0233985781669616,0.052987609510424,0.0415954545369635,0.8580482210093477,14.91832160949707,-19.65234375,-34.162811279296875,0.0,1013.6798095703124
0.3399208984375,0.016002273110859,-0.030442849862948,-0.14185235671103,0.00733787054196,0.011126609519124,-0.0180693268775939,0.0530423870446485,0.0416670111430224,0.857834212198899,15.15017318725586,-19.584228515625,-33.916900634765625,0.0,1013.6798095703124
0.349989501953125,0.0014693053675815,-0.0380425477443262,-0.0894610752165317,0.0070990202948451,0.0236601587384939,-0.0150900073349475,0.0531373196278905,0.0418678921498093,0.8576682133075253,14.907302856445312,-19.603515625,-34.081817626953125,0.0,1013.6798095703124
0.360058837890625,-0.0139738725557923,-0.0344723976399749,-0.0506909073173999,0.0069221863523125,0.0183729846030473,-0.0090824496001005,0.0532268385485608,0.0420853232889929,0.8575358574041851,14.70937156677246,-19.505599975585938,-34.365509033203125,0.0,1013.6798095703124
0.3701279296875,0.0074835606884211,-0.0257551669707521,-0.0388116689532995,-0.003840796649456,0.0167394746094942,-0.0115843042731285,0.0532613088115114,0.0422628716882754,0.8574283377921326,14.657600402832031,-19.5970458984375,-33.993377685546875,0.0,1013.6798095703124
0.38019580078125,0.0294579670114442,-0.0405572339789941,-0.0277092601805925,-0.0190873946994543,-0.0031319686677306,-0.0108870891854166,0.053155578089078,0.0423260936740616,0.8573373704993469,14.75364112854004,-19.593170166015625,-34.124176025390625,0.0,1013.6798095703124
0.390260986328125,0.0372906699310988,-0.0671064739368856,-0.020505612412095,-0.0325559303164482,-0.0133326929062604,-0.0115150213241577,0.0529046195474348,0.0422284953871503,0.8572221107610591,14.64271354675293,-19.48892974853516,-33.958892822265625,0.0,1013.6798095703124
0.400330078125,0.0512297999670729,-0.0420980702128261,-0.0415045612990856,-0.0323564633727073,-0.0200377330183982,-0.0095884902402758,0.0525703939607693,0.0420418932779534,0.8571289582801905,14.79441261291504,-19.41181182861328,-34.016754150390625,0.0,1013.6798095703124
0.41039892578125,0.0395557287862524,-0.0389762849304825,-0.092023034659028,-0.0125111192464828,-0.0158118717372417,-0.0073343096300959,0.0523238078245984,0.0418427783371631,0.8570646010796603,14.88324737548828,-19.35248565673828,-34.180389404296875,0.0,1013.6798095703124
0.420467041015625,0.0176382402822375,-0.0477830205140635,-0.1061865845680236,0.0126363113522529,-0.0118384342640638,-0.0089668277651071,0.052326043654633,0.0417123400460592,0.8569715878902449,14.774188995361328,-19.40126037597656,-33.970123291015625,0.0,1013.6798095703124
0.4305361328125,0.0167537125326693,-0.0424919649012386,-0.0520884991556406,0.0318256542086601,-0.0128330942243337,-0.0062922751531004,0.0525607308119489,0.0415891500765404,0.8568616022253827,14.63637924194336,-19.71276092529297,-34.270111083984375,0.0,1013.6798095703124
0.440605224609375,0.0269047753972932,-0.0506050921974703,0.0222983410477638,0.0369913876056671,-0.013469323515892,-0.0086739398539066,0.0529241104728481,0.0414547937474971,0.8567787049094933,14.820531845092772,-19.72865295410156,-33.847991943359375,0.0,1013.6798095703124
0.450674072265625,0.0244091591892763,-0.060276043394953,0.0850257231175899,0.0295753329992294,-0.0179870557039976,-0.0105730816721916,0.0532659474161037,0.0413129761062337,0.8566786182625371,14.993892669677734,-19.76602935791016,-34.259552001953125,0.0,1013.6798095703124
0.4607431640625,0.0248388193108141,-0.0556037042023614,0.1654945135831833,0.0151519188657403,-0.027209049090743,-0.012942761182785,0.0534985833074967,0.0411013448172196,0.85653836569309,15.13811492919922,-19.397972106933597,-34.384674072265625,0.0,1013.6798095703124
0.47081103515625,0.015767624104768,-0.0481764768110588,0.2284177104860544,-0.0019161645323038,-0.0327659361064434,-0.0131462886929512,0.0535694065221418,0.0408204273332545,0.8563967055074245,15.061029434204102,-19.46099853515625,-34.199066162109375,0.0,1013.6798095703124
0.480880126953125,-0.0036533714083954,-0.0395916768824681,0.2657242355734109,-0.0185545310378074,-0.0409825891256332,-0.0155766904354095,0.0534528233654337,0.0404804596759518,0.8562548417360868,15.101856231689451,-19.503013610839844,-34.450286865234375,0.0,1013.6798095703124
0.49094921875,0.0337558468684554,-0.0143204575037583,0.2430295886844396,-0.0405819490551948,-0.0527164153754711,-0.0140241291373968,0.0531301416499746,0.0400209975054479,0.856105531880682,14.980585098266602,-19.434478759765625,-34.217681884765625,0.0,1013.6798095703124
0.50101806640625,0.0530227112658321,-0.0269025469075888,0.1686760662287473,-0.0535443574190139,-0.0594954900443553,-0.0155501198023557,0.0526551768014331,0.0394579044713536,0.8559716339018996,15.106491088867188,-19.4873046875,-34.328216552734375,0.0,1013.6798095703124
0.5110859375,0.0543027776716276,-0.0212420369278639,0.0915127470493316,-0.0688411369919776,-0.0388550348579883,-0.0139395659789443,0.0520566425155284,0.0389588694007857,0.8558365049358289,15.132469177246094,-19.72553253173828,-34.134063720703125,0.0,1013.6798095703124
0.5211552734375,0.0488626324443146,0.0107142131727188,0.0577197830408811,-0.0731458738446235,-0.0235756784677505,-0.0188986379653215,0.0513470379011387,0.0386570631363117,0.8557043312208547,14.958852767944336,-19.668960571289062,-34.637725830078125,0.0,1013.6798095703124
0.53122412109375,0.0360571826133877,0.0529603135541081,-0.0027834932386875,-0.071569874882698,-0.0005890633910894,-0.0206585973501205,0.0506338752216913,0.0385421501899883,0.8555401778896592,15.352880477905272,-19.476776123046875,-34.254302978515625,0.0,1013.6798095703124
0.541293212890625,0.0902990969432517,0.099490265267156,-0.049070028117299,-0.0578918792307376,0.0298900157213211,-0.0165338926017284,0.0499914438376827,0.0387169025891198,0.8553601195921695,14.897218704223633,-19.461952209472656,-34.218048095703125,0.0,1013.6798095703124
0.551361328125,0.1443503110066056,0.1193632788641378,-0.1029004025042056,-0.0258302669972181,0.0492764227092266,-0.0109662041068077,0.0495912836004408,0.0391256663229415,0.8552446784808417,14.920814514160156,-19.527069091796875,-34.148223876953125,0.0,1013.6798095703124
0.561429931640625,0.1587946871509775,0.0932883418871089,-0.1491588803321123,0.0039004636928439,0.0533497259020805,-0.0085901319980621,0.0495110161456946,0.0396678370625409,0.8551611653152974,14.95479965209961,-19.398094177246094,-34.190460205078125,0.0,1013.6798095703124
0.571499267578125,0.1305622798791155,0.0777526633746922,-0.1434235515505075,0.0178293958306312,0.0327379368245601,-0.0107835326343774,0.0496359551245358,0.0401523386805035,0.8550602071146175,15.163928985595703,-19.37555694580078,-34.193084716796875,0.0,1013.6798095703124
0.58156787109375,0.098108492052555,0.0341050986975431,-0.1176800384849309,0.0133496914058923,-0.0124330036342144,-0.0242258384823799,0.0498087673766585,0.0403037921880168,0.8548698229431082,14.96333122253418,-19.184608459472656,-34.228118896484375,0.0,1013.6798095703124
0.591635986328125,0.061978426866047,-0.0190641448995098,-0.0538274517774581,-0.0014573177322745,-0.0623772740364074,-0.0356868542730808,0.0498802643800768,0.0399438593644702,0.8545635002703139,14.940887451171877,-19.278732299804688,-34.069427490234375,0.0,1013.6798095703124
0.601705078125,0.0489415063668042,-0.0470373167132958,0.0602817424833774,-0.0331880822777748,-0.0923085436224937,-0.0419229120016098,0.0496978554676736,0.0391808970229127,0.854176147171966,15.086536407470703,-19.47014617919922,-34.215057373046875,0.0,1013.6798095703124
0.61177392578125,0.0364232394468039,-0.0904687544217333,0.1591968747437,-0.0615417212247848,-0.0907062590122222,-0.0436378419399261,0.0491746993370733,0.0382573263521198,0.8537604748040919,15.07533073425293,-19.60564422607422,-34.307952880859375,0.0,1013.6798095703124
0.621843017578125,0.0376494202408939,-0.1072619952471926,0.1534141996890306,-0.0820224955677986,-0.0710886120796203,-0.0399006307125091,0.0484073962777376,0.0374885367588593,0.853362939168638,14.83562469482422,-19.56853485107422,-34.284393310546875,0.0,1013.6798095703124
0.6319111328125,0.0345934667363762,-0.1326662298884242,0.1039186396360397,-0.0853255093097686,-0.053005464375019,-0.0401038117706775,0.0474943010320788,0.0369277455656785,0.8529860597966152,15.276437759399414,-19.378097534179688,-34.609649658203125,0.0,1013.6798095703124
0.64197998046875,0.019252762806788,-0.1015848994588479,0.0423491954296827,-0.0733633786439895,-0.0395810008049011,-0.0262178219854831,0.0466497202613342,0.0365367807716971,0.8526834558944674,15.398271560668944,-19.22815704345703,-34.359344482421875,0.0,1013.6798095703124
0.652049072265625,-0.0126624976962804,-0.065207070056349,-0.0292331087470054,-0.0477562248706817,-0.0289304740726947,-0.019915472716093,0.0460097794935308,0.0362496141181881,0.8524720395485963,14.848079681396484,-19.470703125,-34.563018798828125,0.0,1013.6798095703124
0.6621181640625,-0.0350497591365128,-0.0484768114645034,-0.0671820233911275,-0.0166955105960369,-0.0128204803913831,-0.0126588903367519,0.0456707578923971,0.0360902399610089,0.8523059504644322,14.710691452026367,-19.43763732910156,-34.157623291015625,0.0,1013.6798095703124
0.67218701171875,-0.0648895650723949,-0.0097460622603073,-0.117418757200241,0.015913899987936,-0.0178668536245822,-0.0109284706413745,0.0456681670810032,0.0359742851213467,0.8521862792318262,14.64779281616211,-19.39887237548828,-34.358673095703125,0.0,1013.6798095703124
0.682255126953125,-0.0666027987310662,0.0122659361267462,-0.1574327876806259,0.0440350174903869,-0.0355182848870754,-0.0139682022854685,0.0459904979309213,0.0357371234942335,0.8520485397337343,14.916980743408203,-19.33509826660156,-34.139495849609375,0.0,1013.6798095703124
0.69232421875,-0.0594147503904998,-0.0023516776926815,-0.1383855573832988,0.0525657013058662,-0.0496711060404777,-0.0195799767971038,0.0465299108639637,0.0353400506329658,0.851862480552259,14.995811462402344,-19.423179626464844,-34.512115478515625,0.0,1013.6798095703124
0.70239306640625,-0.0324423165844753,-0.0353381476238369,-0.078151161172986,0.0386887677013874,-0.0485405959188938,-0.0243819206953048,0.0470272487019499,0.034878477672085,0.8516167372147007,14.927774429321287,-19.529693603515625,-34.454498291015625,0.0,1013.6798095703124
0.7124619140625,0.0092662428541108,-0.0561280934026464,-0.0101806177526712,0.0133116552606225,-0.0531149059534072,-0.0249584335833787,0.0473184768369349,0.0343786692581143,0.8513662039907117,14.89808464050293,-19.539405822753903,-34.258026123046875,0.0,1013.6798095703124
0.7225302734375,0.003732574124448,-0.0543252817643806,0.0356423912674188,-0.0168347954750061,-0.0627257227897644,-0.0350859016180038,0.0473192042890289,0.0338281214569799,0.8510700641766463,14.717817306518556,-19.26866912841797,-34.627227783203125,0.0,1013.6798095703124
0.732598876953125,-0.0537514639317989,-0.0479325485199689,0.0576741903334856,-0.0380924642086029,-0.0631449595093727,-0.0399527885019779,0.0470399850107145,0.0332033859805454,0.8507034789018246,14.760114669799805,-19.183860778808597,-34.514312744140625,0.0,1013.6798095703124
0.742668212890625,-0.0457558620680123,-0.0468724815404042,0.0612006108939647,-0.0512732416391372,-0.0464810244739055,-0.0427967794239521,0.0465830072162657,0.0326611316173685,0.8502941780725178,14.667055130004885,-19.356231689453125,-34.995819091796875,0.0,1013.6798095703124
0.752737060546875,-0.0379504490140825,-0.0331081600820645,0.0147270290106534,-0.0540111400187015,-0.0275101587176322,-0.0401342324912548,0.0460328593377472,0.0323063061034683,0.8498862016739701,14.704208374023438,-19.423492431640625,-34.698516845703125,0.0,1013.6798095703124
0.762804931640625,-0.0339069823095574,-0.0278739126903936,-0.0062006082057952,-0.0521527864038944,-0.0193201396614313,-0.0416679456830024,0.0454673845551179,0.0320911856456522,0.8494828965671349,14.869823455810549,-19.3558349609375,-34.904937744140625,0.0,1013.6798095703124
0.772874267578125,-0.0143137355020269,-0.0338640564832836,0.0041074353188276,-0.0558259412646293,-0.008708618581295,-0.0341254696249961,0.0449170311316622,0.031969081081043,0.8491053702058476,14.669973373413086,-19.24647521972656,-35.213836669921875,0.0,1013.6798095703124
0.782943115234375,-0.0090752137940376,-0.0228967087997123,-0.0076133976131677,-0.0590124130249023,0.0031869234517216,-0.03684988245368,0.0443563631825884,0.0319528760638225,0.848757592635709,14.850374221801758,-19.24766540527344,-34.805816650390625,0.0,1013.6798095703124
0.79301220703125,0.032419702893868,0.0099751217758283,-0.0060731824338436,-0.0533955916762352,0.0163673888891935,-0.033697459846735,0.0438015688289765,0.0321002795837723,0.8484124676020407,14.728471755981444,-19.266624450683597,-34.580902099609375,0.0,1013.6798095703124
0.803080078125,0.0431541186043992,0.0299310644159093,-0.0116167880356311,-0.0479776561260223,0.0188137684017419,-0.0314156636595726,0.0433183467250328,0.032302287124157,0.8481040876746926,14.877351760864258,-18.884864807128903,-34.324310302734375,0.0,1013.6798095703124
0.813149169921875,0.062242484629713,0.014999964200519,-0.0249783739119768,-0.0354300960898399,0.0182913113385438,-0.0370552688837051,0.0429245860924906,0.0324917722285699,0.8477742135554475,14.981475830078123,-19.00697326660156,-34.731414794921875,0.0,1013.6798095703124
0.823218017578125,0.0762847827792167,-0.0021845774974673,-0.0461024104833602,-0.035054326057434,-0.0109286243095994,-0.0423094183206558,0.0425910147873861,0.0325395677048787,0.8473968306201352,14.865053176879885,-19.10027313232422,-34.656463623046875,0.0,1013.6798095703124
0.833287109375,0.0705128117816522,-0.0065271002138033,-0.0856973387688398,-0.0331029817461967,-0.038840364664793,-0.0476786568760871,0.0422699809443758,0.0323033882200799,0.8469602744506617,14.75469970703125,-19.08676147460937,-34.673248291015625,0.0,1013.6798095703124
0.843356201171875,0.0847988555591553,-0.0086687518849968,-0.0803524706095457,-0.0230791084468364,-0.0510544180870056,-0.0504621937870979,0.0419903119471681,0.0318526931415722,0.84648002076116,14.846183776855469,-18.94861602783203,-35.093231201171875,0.0,1013.6798095703124
0.853424072265625,0.0424088531950488,-0.0011707608124241,-0.0863876591205596,-0.015910429880023,-0.060134157538414,-0.0521980673074722,0.0417934162257641,0.0313067004786399,0.8459663494756401,14.867582321166992,-18.94586181640625,-35.058380126953125,0.0,1013.6798095703124
0.8634931640625,0.0238803860748186,-0.0154784684324637,-0.0703103845447301,-0.0069041531533002,-0.0546238124370574,-0.0489708483219146,0.0416771080909404,0.0307537751708127,0.8454625418993849,14.990264892578123,-19.276046752929688,-34.970245361328125,0.0,1013.6798095703124
0.87356201171875,0.0363133675978519,-0.0272252029906958,-0.048324178186059,0.0032192543148994,-0.0293160714209079,-0.0401677526533603,0.0416389069821034,0.0303398539870353,0.8450057518724257,15.218852996826172,-19.02569580078125,-34.999359130859375,0.0,1013.6798095703124
0.883631103515625,0.0633416780432686,-0.0179730982597917,-0.001508650997281,0.0106207113713026,0.0213340576738119,-0.0295001920312643,0.0416974013947802,0.0303303778295095,0.8446520118800067,15.037931442260742,-19.242172241210938,-34.706268310546875,0.0,1013.6798095703124
0.893698974609375,0.0332700361128896,-0.0065088704373687,0.0365051455765962,-0.001112493686378,0.0535808764398098,-0.0194834489375352,0.0417373123276924,0.0307576838382103,0.8444064962013391,15.082468032836914,-19.22985076904297,-34.671539306640625,0.0,1013.6798095703124
0.90376806640625,0.022836283849366,-0.0212183272587135,0.0144844524264335,-0.0091445865109562,0.0639656111598014,-0.0103165823966264,0.0416869076065683,0.0313951801825582,0.8442539820808149,15.121810913085938,-19.068191528320312,-34.951446533203125,0.0,1013.6798095703124
0.9138369140625,0.0308146423174068,-0.0117872857643291,-0.0388005630373954,-0.0020122118294239,0.0521687194705009,-0.0059741372242569,0.0416262110825681,0.0320014353405402,0.8441673708625971,15.055253982543944,-19.076904296875,-34.685150146484375,0.0,1013.6798095703124
0.92390625,0.0125388713166117,0.0029615897519513,-0.08513736679852,0.0015178089961409,0.0118697667494416,-0.0037850188091397,0.0416195529578564,0.0323243439843046,0.8441171031477142,15.12884521484375,-19.136154174804688,-34.576446533203125,0.0,1013.6798095703124
0.933973876953125,-0.0121384372895583,0.018058109662123,-0.054937458845973,0.0083591062575578,-0.007079261355102,-0.0112383216619491,0.0416636457116504,0.0323536405268308,0.8440490481572529,15.076238632202148,-19.39877319335937,-34.879974365234375,0.0,1013.6798095703124
0.944043212890625,-0.0078898034017533,0.0210543688686564,-0.0302379018753767,0.014414869248867,-0.0299440957605838,-0.0097272442653775,0.0417861815577684,0.0321644487353126,0.8439288133575761,15.103696823120115,-19.09027862548828,-34.778961181640625,0.0,1013.6798095703124
0.9541123046875,-0.0085643781950697,-0.0269020354509353,-0.0228431154489517,0.0138841979205608,-0.0456342734396457,-0.0134344501420855,0.0419315150969522,0.0317751216947296,0.8438055779546327,15.192365646362305,-18.843284606933597,-34.623016357421875,0.0,1013.6798858642578
0.964180908203125,0.0095940865689888,-0.0330415611192584,0.0140466455310583,0.0105256848037242,-0.0412065014243125,-0.0158541984856128,0.0420532501649346,0.0313573884899683,0.8436610164154428,15.290290832519531,-18.68724822998047,-34.318878173828125,0.0,1013.6798858642578
0.974250244140625,0.0271982053859159,-0.0292012157713994,0.025024551141262,0.0088958721607923,-0.0237774457782506,-0.009977638721466,0.0421550283452224,0.0310420719251167,0.843524497410684,14.95173454284668,-18.841835021972656,-34.785858154296875,0.0,1013.6798858642578
0.984318115234375,0.0465850429011508,-0.0134257371537387,0.0239665665209293,0.0111995059996843,0.0048390193842351,-0.0017463406547904,0.0422531469448576,0.0309419854522377,0.8434671139225889,15.109960556030272,-18.8277587890625,-34.491546630859375,0.0,1013.6798858642578
0.99438720703125,0.015651870504301,-0.0162345474967733,0.0004869067341089,0.0240429751574993,0.0289155319333076,-0.0027428618632256,0.0424399139533794,0.0311365994935347,0.8434411976213904,15.232528686523438,-18.91289520263672,-34.510955810546875,0.0,1013.6798858642578
1.0044560546875,-0.0280155496507883,-0.0106853524044156,-0.0002051671832799,0.0359142832458019,0.0448534861207008,0.0016921004280447,0.0427313835404233,0.0315315416270858,0.8434289942083545,14.936527252197266,-19.0281982421875,-34.642913818359375,0.0,1013.6798858642578
1.01452490234375,-0.0230339253133162,0.0127116706002503,0.0376782810091972,0.0373046472668647,0.0302324015647172,0.0024639749899506,0.0431033976774166,0.0319096103564127,0.8434370140153825,14.76792335510254,-19.06511688232422,-34.752655029296875,0.0,1013.6798858642578
1.024593017578125,-0.0280586216075345,0.0281955458601936,0.0711363139748573,0.0303655117750167,0.0087779741734266,-0.0005102432332932,0.0434466737791964,0.0321175864390402,0.843443654113824,15.023347854614258,-19.05017852783203,-34.584625244140625,0.0,1013.6798858642578
1.034662109375,-0.030663945267722,0.015579444588907,0.0857271493852138,0.0132540641352534,-0.0247133709490299,-0.0102074313908815,0.043671018480052,0.0320477713736498,0.8433593837174367,15.046289443969728,-18.928504943847656,-34.370269775390625,0.0,1013.6798858642578
1.04473095703125,-0.0231174388783052,0.0275317116566002,0.0373223071783781,0.003958567045629,-0.0484831482172012,-0.0131747256964445,0.0437607523518189,0.0316745533759552,0.8432353984969834,15.065546035766602,-19.161842346191406,-34.530548095703125,0.0,1013.6798858642578
1.054800048828125,-0.0220805518449284,0.0279188478106632,0.0178483759015798,0.0047511123120784,-0.0442219227552413,-0.0153407920151948,0.0438002633162729,0.0312019789526566,0.84309169539557,15.099966049194336,-19.01773834228516,-34.478057861328125,0.0,1013.6798858642578
1.064869384765625,-0.0118431258711032,0.0414492874478921,0.0138859020113945,0.0150242559611797,-0.0281918253749609,-0.0131663214415311,0.0438830691779592,0.0308290098070604,0.842955720988711,15.146768569946287,-18.887657165527344,-34.796661376953125,0.0,1013.6798858642578
1.07493701171875,-0.0026874307193793,0.0873825153768062,-0.0015823007553815,0.0369992703199386,-0.0110285114496946,-0.0112150777131319,0.0441421566792117,0.0306431540060153,0.84281652337422,15.101261138916016,-18.96404266357422,-34.585906982421875,0.0,1013.6798858642578
1.085006103515625,-0.0098259042971767,0.0818462162986397,-0.0113420627474784,0.0473586991429328,0.0164276137948036,-0.0075654815882444,0.0445545807958623,0.0306544890587701,0.8427094716529557,15.101299285888672,-19.079673767089844,-34.929229736328125,0.0,1013.6798858642578
1.0950751953125,-0.0153822780489921,0.0404731724247336,0.0148532857388257,0.0431503988802433,0.0412486270070076,-0.0043367356993258,0.0450053441576302,0.0309627590592414,0.8426366080103054,14.93783187866211,-18.89151763916016,-35.066925048828125,0.0,1013.6798858642578
1.10514404296875,-0.0260392080765217,0.0273957007193937,0.0637964726060628,0.025042500346899,0.0509305521845817,-0.0029811866115778,0.0453353565985871,0.0314250163388939,0.8425866734486133,15.06534194946289,-18.943283081054688,-34.593109130859375,0.0,1013.6798858642578
1.1152119140625,-0.0184724991492927,0.0409602983545511,0.1436404091715812,0.0013585593551397,0.0501267313957214,-0.00388711434789,0.0454674725939632,0.0319208518692715,0.8425412292580138,14.855825424194336,-18.863327026367188,-34.725250244140625,0.0,1013.6798858642578
1.12528125,0.003400236897543,0.0340637437738478,0.1966653123944997,-0.0233627650886774,0.0470337346196174,-0.0047521092928946,0.0453286569618844,0.0324223545603298,0.8425125305568358,14.927635192871094,-18.947303771972656,-34.723785400390625,0.0,1013.6798858642578
1.135349853515625,0.0507359155029058,0.0085696023594588,0.1575976228535175,-0.0247220583260059,0.0319861695170402,-0.0033748196437954,0.0450632983729999,0.0328294584142833,0.84248887497649,14.905031204223633,-19.014663696289062,-34.235137939453125,0.0,1013.6798858642578
1.145419189453125,0.0574920752322301,-0.0091733769388869,0.0728074620574712,-0.0238450765609741,0.0048197950236499,-0.0094873066991567,0.044794888374245,0.033025442332285,0.8424337476102438,15.060810089111328,-19.16705322265625,-34.460601806640625,0.0,1013.6798858642578
1.155488037109375,0.0581073941189795,-0.0016652297984808,-0.0163899937868118,-0.0173868909478187,-0.0235961712896823,-0.018272515386343,0.0445531848698003,0.0329316768622736,0.842301370890181,14.774641036987305,-19.14954376220703,-34.084930419921875,0.0,1013.6798858642578
1.165555908203125,0.0342668651305139,-0.0056069896942004,-0.0392541520237922,-0.0075145540758967,-0.0464141368865966,-0.021568177267909,0.0443952221249748,0.0325848779535505,0.8421236513414874,14.881452560424805,-19.04535675048828,-34.395355224609375,0.0,1013.6798858642578
1.175625244140625,0.0222878561863675,0.0096662750223651,0.014753917017579,0.0048793479800224,-0.029528971761465,-0.0199006926268339,0.0443657162643465,0.0321883255702351,0.8419147615713563,14.842971801757812,-19.189247131347656,-34.595611572265625,0.0,1013.6798858642578
1.185694091796875,0.0136429235683754,0.0151872669335454,0.0376700977027416,0.0122512439265847,-0.0038078946527093,-0.0185416806489229,0.0444404927773117,0.0320168583648576,0.8417346603401298,15.01565933227539,-18.93946075439453,-34.798126220703125,0.0,1013.6798858642578
1.19576318359375,0.0297185907090082,-0.0120456444395706,-0.0047381344377994,0.0161652844399213,0.0024262443184852,-0.0129566956311464,0.0445628017173919,0.032041014842615,0.8415681948865483,14.851739883422852,-19.21881866455078,-34.636077880859375,0.0,1013.6798858642578
1.20583203125,0.075447235976532,-0.021426782377623,-0.0395154333084821,0.0010089678689837,0.0091430032625794,-0.0074998787604272,0.0446438668409397,0.0321237142729258,0.841477967802696,15.087810516357422,-18.954124450683597,-34.839019775390625,0.0,1013.6798858642578
1.215900146484375,0.0791925599846988,-0.0336511809175834,-0.0531511599510908,-0.0079079708084464,0.01265449821949,-0.005021674092859,0.0445874587473583,0.0322607203702619,0.8414205640182205,15.26348114013672,-19.190513610839844,-34.559661865234375,0.0,1013.6798858642578
1.225968994140625,0.0538633268084377,-0.0251436109436675,-0.0524035564541816,-0.0043704928830266,0.0080411043018102,-0.0023161687422543,0.0445088624927094,0.0323717125006336,0.841385626949324,15.210531234741213,-19.05541229248047,-34.475372314453125,0.0,1013.6798858642578
1.2360380859375,0.0205420354323461,-0.0270977041535079,-0.0256657716542482,0.0102742202579975,0.0100986091420054,0.0024261926300823,0.0445537875895684,0.0324585807807974,0.8413772961578105,14.941904067993164,-18.98333740234375,-34.643463134765625,0.0,1013.6798858642578
1.246107177734375,-0.0102925902271643,-0.015353490345925,0.0405202264368534,0.0237026773393154,-0.0015716296620666,-0.0010212692432105,0.0447444747660712,0.0325209325119594,0.8413941478373871,15.043325424194336,-19.236427307128903,-34.556304931640625,0.0,1013.6798858642578
1.256175048828125,-0.0297026259548962,-0.0211601673306897,0.0670756404072046,0.0269162207841873,-0.0237646494060754,-0.0046002017334103,0.0450071164106994,0.032409965228778,0.8413476208944713,15.101741790771484,-18.958908081054688,-34.589752197265625,0.0,1013.6798858642578
1.266244140625,-0.0116612847644835,-0.0326634485218673,0.0834200414866209,0.0071611576713621,-0.0445082746446132,-0.0117023196071386,0.0451770526372438,0.0320653388640972,0.8412628632539317,15.000310897827148,-19.070045471191406,-34.454864501953125,0.0,1013.6798858642578
1.27631298828125,-0.0058700976097956,-0.0247172022251412,0.0750567022889852,-0.0101405065506696,-0.0551230050623416,-0.016588244587183,0.0451633565141558,0.0315502899616127,0.841110243718928,15.052972793579102,-19.05511474609375,-34.289215087890625,0.0,1013.6798858642578
1.286382080078125,0.0185744616864249,0.0068823799248784,0.0250198749661445,-0.0223393812775611,-0.0545237958431243,-0.0150745045393705,0.0449827205430789,0.0310249767882837,0.8409527939558795,14.84259033203125,-19.38397216796875,-34.745086669921875,0.0,1013.6798858642578
1.296450927734375,0.0305892360636964,0.0177282201206311,-0.0563227757245302,-0.0137142036110162,-0.0344944261014461,-0.0085167363286018,0.0447914989542357,0.0306076440670163,0.8408519027822319,15.06113624572754,-19.24974822998047,-34.472869873046875,0.0,1013.6798858642578
1.30651904296875,-0.0119428233859129,0.0490185536583885,-0.109552261608839,0.0116388238966465,0.0081081623211503,5.38490712642e-05,0.0447778665228786,0.030488947940666,0.8408158218402835,15.004352569580078,-19.13666534423828,-34.576202392578125,0.0,1013.6798858642578
1.316588134765625,-0.0390841657517477,0.0865296614071354,-0.1025526119798421,0.040740005671978,0.0348438657820224,0.0023290147073566,0.0450326369358466,0.0307243328181525,0.8408141051465178,14.804475784301758,-18.98706817626953,-34.310089111328125,0.0,1013.6798858642578
1.3266572265625,-0.0237148933148011,0.076901782166399,-0.0798603031784296,0.0615249127149581,0.0378215461969375,0.0082628037780523,0.0455620275977361,0.0311115508473869,0.8408555036368187,14.899768829345703,-19.18437957763672,-34.535369873046875,0.0,1013.6798858642578
1.336725830078125,-0.0020402371233329,0.0410808194616809,-0.0099579149127006,0.0654017925262451,0.0447286330163478,0.0077305412851274,0.0462282445882736,0.0315274628874283,0.8409182882485323,14.944475173950195,-19.256919860839844,-34.617340087890625,0.0,1013.6798858642578
1.346795166015625,0.0136699577057734,0.0183819713216274,0.0725344903349876,0.0473684668540954,0.0385343879461288,0.0085840839892625,0.046828684595891,0.0319564508098299,0.8409875571142229,14.955015182495115,-19.046958923339844,-34.556304931640625,0.0,1013.6798858642578
1.35686328125,0.0097692970054224,-0.0065627925816923,0.1222761341035366,0.013628751039505,0.0158951543271541,0.0018310733139514,0.0471540385696039,0.0322330784756738,0.8410328383744835,14.934295654296877,-19.138404846191406,-34.577545166015625,0.0,1013.6798858642578
1.36693212890625,0.0262772180834785,-0.0417949590804055,0.1759983719408512,-0.0179254468530416,-0.0106238052248954,-0.0009772302582859,0.0471318899351975,0.0322587318252491,0.8410293397469703,15.068395614624023,-19.08319854736328,-34.699310302734375,0.0,1013.6798858642578
1.377001220703125,0.0335149873172864,-0.0498877011757344,0.2022428202658891,-0.047605812549591,-0.0193697530776262,-0.0065859891474246,0.0467792944158406,0.0321150102967925,0.8410066928416285,15.07773208618164,-19.064002990722656,-34.385955810546875,0.0,1013.6798858642578
1.38706982421875,0.0152173698108643,-0.0410820250380784,0.1814689123064279,-0.0520988330245018,-0.0305196084082126,-0.0113831413909792,0.0462423147851953,0.0318586691664913,0.8409167881298506,15.047664642333984,-19.20204162597656,-34.403289794921875,0.0,1013.6798858642578
1.39713916015625,0.0096677728597074,-0.0782541466234251,0.1194137304097413,-0.039378099143505,-0.0399414636194705,-0.0112839424982666,0.0457319158527524,0.03149247109917,0.8408043901058601,15.255701065063477,-19.10674285888672,-34.560638427734375,0.0,1013.6798858642578
1.407207275390625,0.0039911519953981,-0.0566095567766576,0.070901920697093,-0.0221272055059671,-0.0372146517038345,-0.0143865253776311,0.0453904771699965,0.0311089511359639,0.8406842595417113,15.455116271972656,-18.972702026367188,-34.757598876953125,0.0,1013.6798858642578
1.417276123046875,-0.0299944485083222,0.0039292657403275,0.0124023854553699,-0.0019509475678205,-0.0309280566871166,-0.0165313724428415,0.0452617051634807,0.0307743949005311,0.8405357650243729,15.40207862854004,-18.912109375,-34.365264892578125,0.0,1013.6798858642578
1.427345458984375,-0.0643265974273905,-0.00702639150545,-0.0219411981731653,0.0072563984431326,-0.0232861153781414,-0.0125715192407369,0.0452889777414306,0.030490733935423,0.8403981695421296,15.373174667358398,-18.93798828125,-34.325775146484375,0.0,1013.6798858642578
1.437414306640625,-0.0378377276209183,-0.0155998663224279,-0.0162502930551767,0.0066066915169358,-0.0028986630495637,-0.0079383086413145,0.0453608468818032,0.0303682749469873,0.8403034023338014,15.21794319152832,-18.803512573242188,-34.715362548828125,0.0,1013.6798858642578
1.447483154296875,-0.0102029026497155,0.0234543792150914,0.0151315181583166,-0.005633994936943,0.0162896774709224,-0.0033376980572938,0.0453912708269169,0.0304649196856988,0.8402388903920097,15.061229705810549,-19.00115966796875,-34.999237060546875,0.0,1013.6798858642578
1.45755126953125,0.0078049929288215,0.0372066083768382,0.0315635975211858,-0.0114015098661184,0.0207186117768287,-0.0022099411580711,0.0453134308644238,0.0306735085889877,0.8402014820096022,15.079143524169922,-18.813766479492188,-34.769378662109375,0.0,1013.6798858642578
1.467620361328125,-0.0080291936061345,-0.0145370228638872,0.012239888370037,-0.0150990430265665,0.0236707255244255,-0.0025529561098665,0.0451943970228306,0.0309150504368339,0.840194576717753,15.007665634155272,-18.96036529541016,-34.743194580078125,0.0,1013.6798858642578
1.477689208984375,-0.0314590959670953,-0.0415693336309865,0.0247685305535793,-0.0070872362703084,0.0309518687427043,-0.0012288950383663,0.045092793716752,0.0311988060684007,0.84017755294869,14.966974258422852,-18.94554901123047,-34.518341064453125,0.0,1013.6798858642578
1.48775830078125,-0.0407134474540129,-0.0431307377288118,0.0389180519372224,-0.0135829523205757,0.0333159565925598,-0.0053498707711696,0.0450097863518991,0.0315325205720939,0.8401509762425398,15.122407913208008,-18.873817443847656,-34.225555419921875,0.0,1013.6798858642578
1.497826904296875,-0.0043079628596082,-0.0516635517418384,0.0476169066995382,-0.0311836805194616,0.0136135146021842,-0.0031835453119128,0.0447955919492715,0.0317722764492245,0.840110793818952,15.134706497192385,-18.645187377929688,-34.681427001953125,0.0,1013.6798858642578
1.507895263671875,0.0108377299545332,-0.0730443030206486,0.0446124641865491,-0.0346660315990448,-0.0068193213082849,-0.0113884788006544,0.0444613429310409,0.0317990692069615,0.8400407921550828,15.236669540405272,-18.938011169433597,-34.140777587890625,0.0,1013.6798858642578
1.517964111328125,0.0259184677736833,-0.0452321669874712,0.0481225181341171,-0.0405542775988578,-0.0226507484912872,-0.0176319926977157,0.0440774113127823,0.0316337714526093,0.8399075506889699,15.1104736328125,-18.853111267089844,-34.512603759765625,0.0,1013.6798858642578
1.528033203125,0.0263656635519117,0.0006182049635797,0.0030354221731424,-0.0344777405261993,-0.0325220189988613,-0.021931666880846,0.0436865505291894,0.0313583427882721,0.8397279683267967,14.937004089355469,-18.92070770263672,-34.714447021484375,0.0,1013.6798858642578
1.538102294921875,0.0083867931384593,-0.0204450047986581,-0.0468932686001062,-0.0141610316932201,-0.0313024669885635,-0.0230481587350368,0.0434458244512344,0.0310394047723327,0.8395149505457146,15.0316162109375,-18.88031005859375,-34.629730224609375,0.0,1013.6798858642578
1.548171142578125,-0.0183627916971221,-0.0476373649656772,-0.058889411342144,0.0012967539951205,-0.0313109867274761,-0.0186472833156585,0.043373710605078,0.0307300695973083,0.8393008419703604,14.982229232788086,-18.878189086914062,-34.683197021484375,0.0,1013.6798858642578
1.5582392578125,-0.0090844200138002,-0.0160271518237888,-0.0591080225288867,-0.0051952116191387,-0.0230749268084764,-0.017321266233921,0.0433774548483564,0.0304549439082389,0.839130041835307,14.988903045654297,-19.03486633300781,-34.445953369140625,0.0,1013.6798858642578
1.56830810546875,-0.0462672273899428,0.0118027025291696,-0.0207183783799409,-0.0134728476405143,-0.0032460950314998,-0.0207753852009773,0.043285537199082,0.0303094425305322,0.8389557796933936,15.303611755371094,-18.970687866210938,-34.302947998046875,0.0,1013.6798858642578
1.57837744140625,-0.0681557272614911,0.0072301339166238,0.0074672671407461,-0.0194459483027458,0.0108702555298805,-0.0190251562744379,0.0431242861965614,0.0303592962495883,0.8387616482549731,15.028039932250977,-19.08705139160156,-34.612396240234375,0.0,1013.6798858642578
1.588446044921875,-0.0510047042406164,-0.0035481940008699,0.0302250423938035,-0.0163401700556278,0.020065352320671,-0.0152708981186151,0.0429711079880659,0.0305330301531879,0.8386039173203395,14.859596252441406,-19.08314514160156,-34.535736083984375,0.0,1013.6798858642578
1.598515380859375,-0.0564708424257114,0.0031140768999233,0.0213794726371765,-0.0126296794041991,0.0232155136764049,-0.0163432583212852,0.0428416337717137,0.030770141713552,0.8384372738315187,14.930553436279297,-19.059646606445312,-34.788970947265625,0.0,1013.6798858642578
1.608583251953125,-0.0658366183978505,-0.0276995425041764,0.0072965867489576,-0.0132209016010165,0.0153101840987801,-0.0242528486996889,0.0427206511788596,0.0309929180735021,0.8382378821155299,15.162185668945312,-19.142173767089844,-34.378692626953125,0.0,1013.6798858642578
1.618652099609375,-0.0610274645504541,-0.0264289745790883,0.0037590602725744,-0.0155110349878668,-0.0090319868177175,-0.0275047533214092,0.0425601529601275,0.0310364241784092,0.8379856853398058,15.069538116455078,-19.115089416503903,-34.804351806640625,0.0,1013.6798858642578
1.628721435546875,-0.0364483008228242,-0.0082773048819974,0.0082359134256839,-0.0218682661652565,-0.0295633599162101,-0.0310978926718235,0.0423662560745895,0.0308488694707702,0.8377092184908023,15.066246032714844,-19.446502685546875,-35.086761474609375,0.0,1013.6798858642578
1.6387900390625,-0.0484800994001328,-0.0500092451961711,0.0364069458991289,-0.0233124773949384,-0.0324832797050476,-0.0355954058468341,0.042138896807053,0.0305339126089197,0.837375757386371,15.02684211730957,-19.45128631591797,-35.369110107421875,0.0,1013.6798858642578
1.648859375,-0.0338540282796137,-0.0692956545442342,0.0717266810834407,-0.0170018505305051,-0.0102331023663282,-0.0315945409238338,0.041926804924311,0.0303083716007168,0.8370471241222885,15.016576766967772,-19.05213928222656,-34.574493408203125,0.0,1013.6798858642578
1.65892822265625,-0.0170687332985922,-0.0519395556716248,0.0593254646718502,0.002226878888905,0.0164941269904375,-0.0293644238263368,0.0418502516537358,0.0303514701908852,0.8367404464096645,14.968866348266602,-19.23491668701172,-34.310821533203125,0.0,1013.6798858642578
1.66899609375,-0.0252705800578929,-0.0625896175669506,0.0313683672100305,0.0177906583994627,0.0368643812835216,-0.0182033833116292,0.0419545265953943,0.0306237502292122,0.8365042276139457,14.789691925048828,-19.35221099853516,-34.224456787109375,0.0,1013.6798858642578
1.679065185546875,-0.0765810805783607,-0.0225973605269566,0.0435731842666864,0.0187810882925987,0.0556425936520099,-0.0133625548332929,0.0421417748430366,0.0310808285045887,0.8363361809244382,15.130189895629885,-19.108078002929688,-34.174102783203125,0.0,1013.6798858642578
1.68913427734375,-0.080094038869068,0.0052615737900137,0.0418126043349504,0.0166401732712984,0.0626219436526298,-0.0121968891471624,0.0423430070619513,0.0316690120050365,0.8362001726710926,14.92067527770996,-19.297752380371094,-34.372039794921875,0.0,1013.6798858642578
1.699203369140625,-0.0518094630185514,-0.0054034299461171,0.0044371056646108,0.0263490825891494,0.0493080914020538,-0.010222784243524,0.0425679384293571,0.0322190966187263,0.836077357722477,14.759395599365234,-19.23786163330078,-34.645111083984375,0.0,1013.6798858642578
1.709272216796875,-0.0057526817752048,-0.0329103724876418,-0.0124321960717439,0.0307899042963981,0.0372346490621566,-0.0072927745059132,0.0428608053202394,0.0326505876318039,0.8359891950249831,14.840349197387695,-19.270591735839844,-34.819122314453125,0.0,1013.6798858642578
1.71934033203125,0.0206347552170977,-0.0421711354490369,0.0540717819273471,0.0348174721002578,0.0226373486220836,-0.006784657947719,0.0431985284881048,0.0329361806044323,0.8359141145015235,14.878070831298828,-19.44986724853516,-34.906158447265625,0.0,1013.6798858642578
1.7294091796875,0.0129873822690919,-0.0583415682010352,0.0763204386144876,0.0295044668018817,0.013516554608941,-0.0183915123343467,0.043533554384107,0.0331063702754413,0.8357892984436963,14.707405090332031,-19.514732360839844,-34.676544189453125,0.0,1013.6798858642578
1.739478271484375,0.0076376552715897,-0.073208699802123,0.0840033943325281,0.0113593908026814,-0.0076005551964044,-0.0291915852576494,0.0437419766530697,0.0331334367992342,0.8355558336464994,14.869684219360352,-19.342552185058597,-34.609710693359375,0.0,1013.6798858642578
1.749547119140625,0.0151170877741649,-0.0931921149710193,0.0831499923735857,-0.006999110803008,-0.023108409717679,-0.0406847260892391,0.0437641931671339,0.0329656194068114,0.8352075768799734,14.973617553710938,-19.30140686035156,-34.684051513671875,0.0,1013.6798858642578
1.7596162109375,0.0296053030602633,-0.1019058019762858,0.0845101748108863,-0.0265436843037605,-0.0244362689554691,-0.0431327074766159,0.0435773667310263,0.0327082837721668,0.8347894117778719,14.804548263549805,-19.084327697753903,-34.508209228515625,0.0,1013.6798858642578
1.76968408203125,0.0391565734008327,-0.1139751560850068,0.0628840339362621,-0.040396649390459,-0.0138840246945619,-0.0424879565834999,0.0432160478350828,0.0324964414815693,0.8343527512501873,14.578935623168944,-19.11293029785156,-34.398284912109375,0.0,1013.6798858642578
1.779753173828125,0.0062416343359276,-0.1167562381708994,0.0427273810923099,-0.0436593033373355,0.0070978836156427,-0.0416505746543407,0.0427794664382993,0.0324647228820515,0.8339410538394773,14.595785140991213,-19.184585571289062,-34.840911865234375,0.0,1013.6798858642578
1.789822265625,-0.0056483811505138,-0.0826791599914431,0.0170984343171119,-0.0346599519252777,0.026649747043848,-0.0350323542952537,0.0423629866944563,0.0326698030827327,0.8335588944140568,14.409147262573242,-19.259307861328125,-34.594635009765625,0.0,1013.6798858642578
1.799891357421875,0.004254880965501,-0.0639294513359665,-0.0283802913099527,-0.0218315497040748,0.0330860316753387,-0.0219857692718505,0.0420774070618484,0.0330028061875545,0.8332767937898236,14.655191421508787,-19.10504150390625,-34.728546142578125,0.0,1013.6798858642578
1.809960205078125,-0.0008175999931991,-0.0581069922601804,-0.0794482152462005,-0.0097410632297396,0.0283836852759122,-0.0212094560265541,0.0419385868138703,0.0333066707775604,0.8330529234637595,14.707185745239258,-18.742599487304688,-34.616302490234375,0.0,1013.6798858642578
1.820029296875,-0.0070779755622148,-0.0583054739743471,-0.0953963104844093,0.0005347253754734,0.0254488140344619,-0.0211537145078182,0.0419183340399156,0.0335944913621847,0.8328465512961138,14.880287170410156,-18.878883361816406,-34.330474853515625,0.0,1013.6798858642578
1.830097412109375,-0.0208901912828907,-0.0451226787310093,-0.1155114622741937,-0.0035747988149523,0.0071584894321858,-0.0254906713962554,0.041935106188763,0.0337672545881402,0.832617503165308,15.258943557739258,-19.089920043945312,-34.579559326171875,0.0,1013.6798858642578
1.840166015625,-0.0110180914901196,-0.0203642677126452,-0.1222018998235464,-0.0143670374527573,-0.0191123075783252,-0.030842512845993,0.0418657055736549,0.0337217217610698,0.8323381961579515,15.267038345336914,-19.121803283691406,-34.344573974609375,0.0,1013.6798858642578
1.8502353515625,-0.0130916098285466,-0.0363356342285871,-0.1507774214446544,-0.0257973223924636,-0.0346619710326194,-0.0388799309730529,0.0416865059761981,0.0334747934582871,0.8319916573868721,15.01424789428711,-19.194320678710938,-34.450531005859375,0.0,1013.6798858642578
1.860303955078125,-0.0295072129806503,-0.0543933054992929,-0.1628150652408599,-0.0329017974436283,-0.0351756513118743,-0.0416989363729953,0.0414012823946778,0.033118399031707,0.8315996878455777,15.003156661987305,-19.173507690429688,-34.524505615234375,0.0,1013.6798858642578
1.870373291015625,-0.0137475529866293,-0.0627105770654976,-0.1714420238107442,-0.0276111587882041,-0.0159867778420448,-0.0442332029342651,0.0411022223081103,0.0328686334399054,0.8311770527940184,15.047626495361328,-19.128700256347656,-34.458465576171875,0.0,1013.6798858642578
1.8804423828125,-0.0110828638220205,-0.0627534663591533,-0.1629565195381641,-0.0145322689786553,-0.0002899463288486,-0.0391419231891632,0.0408840433974275,0.0328101663533605,0.8307646390755515,14.983871459960938,-19.218231201171875,-34.360992431640625,0.0,1013.6798858642578
1.890510009765625,-0.0384624536568298,-0.0523992090726271,-0.1221148060619831,0.000741759315133,0.0210438389331102,-0.0395493879914283,0.0408106687563254,0.0329318853109355,0.8303730676076319,14.81515121459961,-19.34315490722656,-34.723419189453125,0.0,1013.6798858642578
1.900579345703125,-0.074620283633098,-0.0278337633430957,-0.0408580800890922,0.0176383182406425,0.0355118624866008,-0.0318484678864479,0.0409201134958699,0.033247351787788,0.830022402978628,15.104982376098633,-19.0928955078125,-34.437713623046875,0.0,1013.6798858642578
1.910648193359375,-0.1171998902851715,-0.0345378640916198,0.0114373398154973,0.030682748183608,0.0405577532947063,-0.0275229644030332,0.0411674770535058,0.0336381191161581,0.8297140028667388,15.088069915771484,-18.872901916503903,-34.347015380859375,0.0,1013.6798858642578
1.92071728515625,-0.1290461396951228,-0.0785011436544358,0.0789355895489454,0.0432345643639564,0.0420222394168376,-0.0222890693694353,0.0415370784251122,0.0340537524351818,0.8294496406343683,15.079130172729492,-18.92852783203125,-34.733001708984375,0.0,1013.6798858642578
1.9307861328125,-0.1234170842995867,-0.1071809293676167,0.1637590680927038,0.0485465042293071,0.0346103981137275,-0.0214994419366121,0.0420004169129554,0.0344422862360185,0.829213012523097,15.052068710327148,-19.07904815673828,-34.437469482421875,0.0,1013.6798858642578
1.940855224609375,-0.0905215075222775,-0.1148334899473935,0.2299006425201892,0.0393377989530563,0.0324271619319915,-0.0161585062742233,0.0424411676890505,0.0347816480444238,0.829015492274782,15.35045051574707,-19.09966278076172,-34.588897705078125,0.0,1013.6798858642578
1.950923095703125,-0.0551158841527998,-0.112411815758422,0.2539034493982792,0.0290548019111156,0.0227308608591556,-0.0111155435442924,0.0427952395520521,0.0350479369482696,0.8288729119081888,15.337095260620115,-19.248336791992188,-34.858062744140625,-0.0105693340301513,1013.6811065673828
1.9609921875,-0.0552596034724265,-0.1359410868406295,0.2694640066236257,0.0139293782413005,0.0122566483914852,-0.0130801573395729,0.0430053706459754,0.0352310420221977,0.8287600961056922,15.24200439453125,-19.20401763916016,-34.635223388671875,-0.0105693340301513,1013.6811065673828
1.971061279296875,-0.059321957540512,-0.1379138847509399,0.2593967861175537,-0.0029971404001116,-0.0025981978978961,-0.0172253679484128,0.0430636545180416,0.035279238024515,0.8286133872665372,15.27934455871582,-19.32787322998047,-34.313934326171875,-0.0105693340301513,1013.6811065673828
1.981130126953125,-0.0259207327960059,-0.1042125080160796,0.2449830608397722,-0.0271073598414659,-0.0134653141722083,-0.0208266638219356,0.0429142831862937,0.0351687613177867,0.8284306465495302,15.35174560546875,-19.129676818847656,-34.283599853515625,-0.0105693340301513,1013.6811065673828
1.99119921875,-0.0118839145392179,-0.1180216184642165,0.2602992879152297,-0.0480158329010009,-0.0008075758814811,-0.0276347678154706,0.0425281338602112,0.0350488999079617,0.8281907725938283,15.275320053100586,-18.991966247558597,-34.637664794921875,-0.0105693340301513,1013.6811065673828
2.00126708984375,-0.0121918114446103,-0.1365333901779726,0.2334364154309034,-0.06317600607872,0.0125396903604269,-0.0286718308925628,0.0419674725594967,0.0350795107731602,0.827925684534343,15.50358772277832,-18.798004150390625,-34.610687255859375,-0.0105693340301513,1013.6811065673828
2.011336181640625,-0.0275192540338262,-0.0932508959535509,0.1595657080560922,-0.0622122064232826,0.0204056035727262,-0.0326244942843914,0.0413451147756478,0.0352379908044387,0.8276199940233456,15.45623016357422,-18.92713165283203,-34.317413330078125,-0.0105693340301513,1013.6811065673828
2.0214052734375,-0.039759032806009,-0.0488227753579616,0.0876110634356737,-0.0535016395151615,0.0132528925314545,-0.0328852385282516,0.0407786130023036,0.0354021491720282,0.8273047367906454,15.586624145507812,-18.969383239746094,-34.457794189453125,-0.0105693340301513,1013.6811065673828
2.03147412109375,-0.0570471444763243,-0.0532049359649419,0.0150362410902976,-0.0432679094374179,0.0060043018311262,-0.0321763046085834,0.0403161199674815,0.0355013168069409,0.8269890018250954,15.525764465332031,-18.907188415527344,-34.733428955078125,-0.0105693340301513,1013.6811065673828
2.04154345703125,-0.0746931296736001,-0.0781578831747174,-0.0418365697324275,-0.0384599007666111,-0.0033088903874158,-0.0336507931351661,0.0399380654744421,0.0355301814435024,0.8266763618403475,15.412405014038086,-18.859230041503903,-34.839080810546875,-0.0105693340301513,1013.6811065673828
2.051612060546875,-0.0681595997190102,-0.0561971400508657,-0.0395779771506786,-0.0433220341801643,-0.0087518589571118,-0.0287034399807453,0.0395678979014139,0.0354737030449022,0.8263778081957182,15.493766784667969,-18.717796325683597,-34.801116943359375,-0.0105693340301513,1013.6811065673828
2.06168017578125,-0.044948600805737,-0.0659969417924061,-0.00956745429039,-0.0531971640884876,-0.0223660692572593,-0.0284423027187585,0.0391175614251918,0.0353032422485569,0.8260986891816708,15.410360336303713,-18.791061401367188,-34.290496826171875,-0.0105693340301513,1013.6811065673828
2.071749267578125,-0.0339734351418912,-0.1189362856237217,0.0348760830700397,-0.0650453045964241,-0.0269536301493644,-0.0253959130495786,0.0385405930880373,0.0350679826638192,0.8258346661869505,15.270498275756836,-19.05406188964844,-34.481414794921875,-0.0105693340301513,1013.6811065673828
2.081818115234375,-0.0179897936662659,-0.1349732281891629,0.0453600676834583,-0.0656823068857193,-0.0136437099426984,-0.0207987278699874,0.0379118975174952,0.0348560419039255,0.8256241327077871,15.504573822021484,-19.0552978515625,-34.561126708984375,-0.0105693340301513,1013.6811065673828
2.09188720703125,-0.0197728776907548,-0.1439264230387285,0.065064300584793,-0.0636170208454132,0.0040444727055728,-0.0213031321763992,0.0372731378427031,0.034808093473187,0.8254311310529002,15.613176345825195,-18.85810089111328,-34.576324462890625,-0.0105693340301513,1013.6811065673828
2.101956298828125,-0.0463998225273564,-0.1804851619660854,0.0484703086584806,-0.0530381239950656,0.0250962004065513,-0.0194628797471523,0.0366880948295594,0.0349439713755619,0.8252464265360829,15.259963989257812,-18.76036834716797,-34.848968505859375,-0.0105693340301513,1013.6811065673828
2.112025390625,-0.0235696761578321,-0.2009660417957231,0.0232592950344085,-0.0509238354861736,0.0350399129092693,-0.0174119789153337,0.0361862016301701,0.0352401871782743,0.8250850265445898,15.22640609741211,-18.83531188964844,-34.608306884765625,-0.0105693340301513,1013.6811065673828
2.12209326171875,-0.0189559718172997,-0.197278841182962,0.0282592952787876,-0.0541346296668052,0.0342911109328269,-0.0192949101328849,0.0356768527169488,0.0355782175185663,0.8249150254503528,15.2430419921875,-18.892066955566406,-34.714202880859375,-0.0105693340301513,1013.6811065673828
2.132162353515625,-0.0406476887414231,-0.2269789463872089,0.0301572378545999,-0.058796226978302,0.0190538335591554,-0.023950383067131,0.0351198662061517,0.0358366628756327,0.824716598116291,15.420085906982422,-18.57655334472656,-34.339080810546875,-0.0105693340301513,1013.6811065673828
2.142231201171875,-0.0473126265233382,-0.2319813577843829,0.0298790054351091,-0.0635536164045333,-0.0020070564933121,-0.0316479057073593,0.0345331126624085,0.0359205739176795,0.8244576424873346,15.69146728515625,-18.333251953125,-34.321075439453125,-0.0105693340301513,1013.6811065673828
2.15230029296875,-0.0553085206480696,-0.2240276588335633,0.026854104655981,-0.0540117733180522,-0.0379429534077644,-0.0350554212927818,0.0339552725602613,0.0357126272023957,0.8241445927980859,15.625825881958008,-18.277549743652344,-34.184173583984375,-0.0105693340301513,1013.6811065673828
2.162369140625,-0.0746332527125254,-0.2682830897433683,0.0409399131536483,-0.0482495203614234,-0.0546047315001487,-0.0345135033130645,0.0334857896102643,0.0352406707634889,0.8238174293641265,15.679922103881836,-18.29383850097656,-34.493133544921875,-0.0105693340301513,1013.6811065673828
2.172438232421875,-0.1066228936260566,-0.3198228324424475,0.0863379747599363,-0.0510927140712738,-0.0636927634477615,-0.0313488692045211,0.0330364643605747,0.0346257290114413,0.8235142002273782,15.323442459106444,-18.41382598876953,-34.526336669921875,-0.0105693340301513,1013.6811065673828
2.182506103515625,-0.1349190868491306,-0.3506330177804455,0.1725911938458681,-0.0588378682732582,-0.0562899149954319,-0.028917733579874,0.0325342014627497,0.0340309045568595,0.823231273994927,15.46568489074707,-18.39764404296875,-34.789520263671875,-0.0105693340301513,1013.6811065673828
2.1925751953125,-0.1336793889863416,-0.338123007232137,0.2179763959705829,-0.0611010193824768,-0.0502083227038383,-0.0164932869374752,0.0319937925004674,0.0335066029890544,0.8230405443625959,15.528392791748049,-18.490768432617188,-34.253692626953125,-0.0105693340301513,1013.6811065673828
2.20264404296875,-0.1537500075146556,-0.3459073044328019,0.1931575965344905,-0.0593244954943656,-0.0448870807886123,-0.009908340871334,0.0314591462131688,0.0330344711995474,0.8229211282996329,15.61570930480957,-18.585975646972656,-34.690032958984375,-0.0105693340301513,1013.6811065673828
2.21271337890625,-0.1638760820684954,-0.3503955922953784,0.1775795036524534,-0.0560293644666671,-0.0343100689351558,-0.0099211242049932,0.0309554475758389,0.0326317904187353,0.8228300879487818,15.538288116455078,-18.424766540527344,-34.739715576171875,-0.0105693340301513,1013.6811065673828
2.2227822265625,-0.1973064963748678,-0.3580807399705052,0.1517868907481432,-0.0605679340660572,-0.0272619109600782,-0.0140792075544595,0.0304614630839526,0.0323320640638039,0.8227411697772438,15.256650924682615,-18.316505432128903,-34.659881591796875,-0.0105693340301513,1013.6811065673828
2.232851318359375,-0.1892062285602092,-0.35104422892984,0.1171656592220068,-0.0671075880527496,-0.023246131837368,-0.0193248353898525,0.0298969917951762,0.032085111253356,0.822601469318092,15.460943222045898,-18.402671813964844,-34.479217529296875,-0.0105693340301513,1013.6811065673828
2.24291943359375,-0.1871426105612889,-0.3102349929511547,0.0731271955311298,-0.0687686055898666,-0.0210673995316028,-0.0300022475421428,0.0292821050014145,0.031843352045575,0.8223619872171902,15.633333206176758,-18.4814453125,-34.357269287109375,-0.0105693340301513,1013.6811065673828
2.252988037109375,-0.1822365356780588,-0.3244418340126052,0.0051414545416831,-0.0673326253890991,-0.0219670142978429,-0.0383009240031242,0.0286876524123899,0.0315864297376055,0.8220400531041175,15.77963638305664,-18.46601867675781,-34.600067138671875,-0.0105693340301513,1013.6811065673828
2.263057373046875,-0.2192013346556574,-0.3741594027858227,-0.0262128841429948,-0.0701447129249572,-0.0091891130432486,-0.0428190194070339,0.0281037192223832,0.0314030755758769,0.8216462370624614,15.554336547851562,-18.26915740966797,-35.123138427734375,-0.0105693340301513,1013.6811065673828
2.2731259765625,-0.2208172454196959,-0.4072819201868027,0.0149795424669981,-0.0767994225025177,0.0022089495323598,-0.0429804064333438,0.0274725008960824,0.0313383656867484,0.8212261012172217,15.40867042541504,-18.305625915527344,-34.939422607421875,-0.0105693340301513,1013.6811065673828
2.2831953125,-0.2203523678543046,-0.4296551531016826,0.1052221234500408,-0.0877882912755012,0.0214275140315294,-0.0313848853111267,0.0267471963740674,0.0314430193011842,0.8208812430189992,15.50520133972168,-18.229331970214844,-35.026763916015625,-0.0105693340301513,1013.6811065673828
2.29326416015625,-0.1902793742170557,-0.4304057888058945,0.1921153940051794,-0.0972528979182243,0.0542408563196659,-0.0200043991208076,0.0259226861241536,0.0317940107005171,0.8206446693879751,15.657052993774414,-18.04589080810547,-35.092254638671875,-0.0105693340301513,1013.6811065673828
2.303333251953125,-0.1700727812841534,-0.4303063470194116,0.2231014838993549,-0.0926676988601684,0.0816799774765968,-0.0087744295597076,0.0250933223138926,0.0324189023255371,0.8205334185649505,15.593238830566406,-18.01651763916016,-34.592742919921875,-0.0105693340301513,1013.6811065673828
2.3134013671875,-0.1231886093059554,-0.3989136856183409,0.1742670181035995,-0.0872207283973693,0.0821204707026481,-0.0015125223435461,0.0242811723617125,0.0331922437555231,0.8205163285461196,15.601079940795898,-17.91040802001953,-34.810638427734375,-0.0105693340301513,1013.6811065673828
2.32347021484375,-0.0826802194373682,-0.4289841219723224,0.0528793572723865,-0.0814180597662925,0.0543881878256797,-0.000321548897773,0.0235339646272012,0.0338222150122318,0.8205428138189454,15.69862937927246,-18.11998748779297,-34.563079833984375,-0.0105693340301513,1013.6811065673828
2.333539306640625,-0.0968056658256799,-0.4001791755095124,0.0019119711011648,-0.0761396810412406,0.0161268152296543,-0.0033263936638832,0.0228394774848183,0.0341179053728539,0.820553702448934,15.636859893798828,-18.1854248046875,-34.765167236328125,-0.0105693340301513,1013.6811065673828
2.343608154296875,-0.1062117190092802,-0.3956863576022907,0.0173415954232215,-0.079118400812149,-0.0149941183626651,-0.0023335614241659,0.0221835551366984,0.034054152255568,0.8205543906244596,15.854595184326172,-17.958351135253906,-34.785919189453125,-0.0105693340301513,1013.6811065673828
2.35367724609375,-0.1077012999799102,-0.4587660602411255,0.0586053337037563,-0.0977048724889755,-0.0289647951722145,0.0047906604595482,0.0214273082293454,0.0337474822408887,0.8206028542533703,15.95062255859375,-17.838348388671875,-34.653778076171875,-0.0105693340301513,1013.6811065673828
2.363746337890625,-0.0693812139358371,-0.4506584128376096,0.1331423960328102,-0.1130554229021072,-0.0319949239492416,0.0104118026793003,0.0204990904248784,0.0333637446592898,0.820710063451133,15.788408279418944,-17.84729766845703,-34.963775634765625,-0.0105693340301513,1013.6811065673828
2.373814208984375,-0.0261240368157625,-0.4324121236596256,0.1867319474011659,-0.1198190450668335,-0.0238677579909563,0.0201866701245307,0.0194603204416886,0.0330106277662114,0.8209018438048737,15.72791862487793,-17.589012145996094,-34.945465087890625,-0.0105693340301513,1013.6811065673828
2.38388330078125,-0.0430966893287375,-0.4660568017711862,0.19312135617733,-0.1138239428400993,-0.0026331995613873,0.0290039964020252,0.0184249601905785,0.0328179647469629,0.8211886206389933,15.755775451660156,-17.720718383789062,-34.746551513671875,-0.0105693340301513,1013.6811065673828
2.39395166015625,-0.0706409316733479,-0.4520776685183867,0.1583843893170356,-0.1110753044486045,-0.0843384489417076,0.0282295495271682,0.0174546492284272,0.032482582494995,0.8215284621752214,15.624818801879885,-17.510353088378906,-34.478546142578125,-0.0105693340301513,1013.6811065673828
2.40402099609375,-0.0498780930971726,-0.3238484712293371,-0.0598912818610668,-0.1303716599941253,-0.0971947908401489,0.0132537307217717,0.0164005981679203,0.0314627559027241,0.821778189708649,15.531702041625977,-17.844810485839844,-34.451629638671875,-0.0105693340301513,1013.6811065673828
2.414089599609375,-0.0606538454650901,-0.3870522751718759,0.0834375771433115,-0.1354180872440338,-0.0532268062233924,0.0214400216937065,0.0151892181090378,0.0306836787527573,0.8219947659952206,15.489883422851562,-17.758506774902344,-34.772125244140625,-0.0105693340301513,1013.6811065673828
2.424158935546875,-0.2085754938861355,-0.5974216302048415,0.1681090799957513,-0.1136721968650817,-0.0262511186301708,0.0340951196849346,0.0140773622493872,0.0302943588572105,0.8223083823209386,15.78662109375,-17.526123046875,-34.655670166015625,-0.0105693340301513,1013.6811065673828
2.434226806640625,-0.2135116351140663,-0.4262648165436461,0.0936234555929899,-0.0761264264583587,-0.0227935370057821,0.033975277096033,0.0132809135405668,0.0300342962368668,0.822676644030629,15.601722717285156,-17.585601806640625,-34.782989501953125,-0.0105693340301513,1013.6811065673828
2.444295654296875,-0.1793737118591554,-0.3186930612275376,0.0217699332594871,-0.0525750331580638,-0.0156096750870347,0.0380922257900238,0.0128213069054705,0.0298182821725388,0.8230565546635041,15.490873336791992,-17.557937622070312,-35.156646728515625,-0.0105693340301513,1013.6811065673828
2.45436474609375,-0.146420194349531,-0.4411156911296769,0.0595259556800127,-0.0491605959832668,0.0114395199343562,0.0404147692024707,0.0124836404150189,0.0297994974941547,0.8234810119052514,15.479978561401367,-17.515182495117188,-35.211944580078125,-0.0105693340301513,1013.6811065673828
2.46443359375,-0.1330681069538928,-0.4474216959387064,0.0855167215049266,-0.0541343688964843,0.0514227822422981,0.0468083545565605,0.0121305005439366,0.0301011975079002,0.823928649543571,15.37102508544922,-17.734573364257812,-34.941680908203125,-0.0105693340301513,1013.6811065673828
2.4745029296875,-0.1288750939771533,-0.4381434338532388,0.0871492911428213,-0.0541285127401351,0.090031161904335,0.0495418235659599,0.0117338135569109,0.0308030112638929,0.824429668403601,15.572547912597656,-17.294395446777344,-35.132110595703125,-0.0105693340301513,1013.6811065673828
2.48457177734375,-0.1604135935897007,-0.4407744399439543,0.0737251614242792,-0.046137198805809,0.1053612455725669,0.0485291630029678,0.0113586909835858,0.03177640820937,0.8249591779784512,15.908763885498049,-17.39472198486328,-35.019744873046875,-0.0105693340301513,1013.6811065673828
2.494640869140625,-0.1934619863085448,-0.4798383300926536,0.1081301198512315,-0.0506070517003536,0.1169739589095115,0.0417503528296947,0.0110221147785642,0.0328733670002181,0.8254288972204795,15.885665893554688,-17.628997802734375,-34.710968017578125,-0.0105693340301513,1013.6811065673828
2.504708740234375,-0.2309464252460747,-0.5318361187575384,0.1627373238295316,-0.0720135122537612,0.1106164380908012,0.0364746674895286,0.0106178624589208,0.033949652786603,0.8258417456094336,15.98284912109375,-17.417633056640625,-35.003265380859375,-0.0105693340301513,1013.6811065673828
2.51477783203125,-0.226506250841543,-0.5508500313071534,0.2390758826225996,-0.0996270254254341,0.1074853539466857,0.0328482389450073,0.0099149057466587,0.0349773930184112,0.8262144267445876,16.020998001098633,-17.62120819091797,-34.914886474609375,-0.0105693340301513,1013.6811065673828
2.5248466796875,-0.2188933281524106,-0.5152769424162805,0.2899801404297352,-0.1327497065067291,0.1182562038302421,0.0415102019906044,0.0088731185552068,0.0360325159683216,0.8266110803359805,16.059886932373047,-17.457603454589844,-34.736236572265625,-0.0105693340301513,1013.6811065673828
2.534915771484375,-0.1566665160158649,-0.550331085466966,0.2337088026314973,-0.1672040969133377,0.1228837147355079,0.0554627664387226,0.0074958105262779,0.0371948747532188,0.8271677085818061,16.006704330444336,-17.402999877929688,-34.874359130859375,-0.0105693340301513,1013.6811065673828
2.54498486328125,-0.0844549374923109,-0.5853701770789921,0.10652911439538,-0.1982402205467224,0.1008150801062583,0.0641263723373413,0.0057996092520433,0.0382698212201205,0.8278436929432348,16.00774574279785,-17.29883575439453,-34.848663330078125,-0.0105693340301513,1013.6811065673828
2.5550537109375,-0.1115701773025095,-0.5180945571202784,0.011848258703947,-0.2077274620532989,0.0937366709113121,0.0730527490377426,0.003916505206362,0.03918883598706,0.8286103284874236,15.859060287475586,-17.401329040527344,-35.190155029296875,-0.0105693340301513,1013.6811065673828
2.565121826171875,-0.0666126990705728,-0.4268671663509681,-0.087630937179923,-0.1926091313362121,0.0857996419072151,0.0833664014935493,0.0020801865368759,0.0400217584318941,0.8294774324952229,16.012554168701172,-17.319259643554688,-34.708831787109375,-0.0105693340301513,1013.6811065673828
2.575190673828125,-0.0600621814485639,-0.3680818729704245,-0.20326690261662,-0.1561129093170166,0.0691543594002723,0.0866293087601661,0.0005062538002265,0.0407428464894281,0.8304011728028077,16.102981567382812,-17.252243041992188,-35.105621337890625,-0.0105693340301513,1013.6811065673828
2.585259765625,-0.0810406720694154,-0.3494251398280262,-0.2811456765890121,-0.1159993186593055,0.0545874834060668,0.0934074595570564,-0.0006583037547075,0.041280343396062,0.8313417033266753,15.951911926269531,-17.242469787597656,-35.231536865234375,-0.0105693340301513,1013.6811065673828
2.595328857421875,-0.0848943518228828,-0.3525954404272139,-0.3266530437886715,-0.0768367424607276,0.0392324961721897,0.095172069966793,-0.0013783151042489,0.0416736782859109,0.8323136761016159,15.942996978759766,-17.314529418945312,-34.863128662109375,-0.0105693340301513,1013.6811065673828
2.605397705078125,-0.0490892077418044,-0.3244224351923913,-0.3454559439361095,-0.0467968173325061,0.0251883137971162,0.1016683205962181,-0.0017708470403718,0.0418985246856007,0.833333136220209,16.102811813354492,-17.10102081298828,-35.227081298828125,-0.0105693340301513,1013.6811065673828
2.615466796875,0.002860613595508,-0.3395410938691348,-0.247689397189021,-0.0346477404236793,0.033038780093193,0.1093283668160438,-0.0019392308888269,0.0421250083820575,0.8344143505901859,16.040916442871094,-17.213241577148438,-35.298370361328125,-0.0105693340301513,1013.6811065673828
2.62553564453125,0.0454889182275161,-0.3888429579809307,-0.1244002866506576,-0.04105219617486,0.0457182712852954,0.1078839674592018,-0.00208380809191,0.0425087155697049,0.8355298701746621,16.01381492614746,-17.189620971679688,-34.981597900390625,-0.0105693340301513,1013.6811065673828
2.635603759765625,0.0851860647784546,-0.4216228724893182,-0.0189665662765502,-0.0689181834459304,0.0556310899555683,0.102563239634037,-0.0024204491141949,0.0429930697546578,0.8366167737367901,16.073780059814453,-17.189727783203125,-35.037689208984375,-0.0105693340301513,1013.6811065673828
2.6456728515625,0.1618726698242127,-0.4172616085398942,0.0611409896612167,-0.0992543622851371,0.0558248050510883,0.0954756587743759,-0.0030896182164932,0.0435356148815773,0.8376464805730636,16.23334503173828,-17.25299835205078,-34.765655517578125,-0.0105693340301513,1013.6811065673828
2.65574169921875,0.2731082814101129,-0.3891458499176427,0.0243546890556812,-0.1251136511564254,0.0621370263397693,0.0902883484959602,-0.0040678289299479,0.0440952858856077,0.8386305863328553,16.240758895874023,-17.301849365234375,-34.423248291015625,-0.0105693340301513,1013.6811065673828
2.665810791015625,0.3844186387326568,-0.3362341247456148,-0.1025946975558996,-0.1440850496292114,0.0821641683578491,0.0846475735306739,-0.0052794042582263,0.0447849141503147,0.8395644293304049,16.352563858032227,-17.368698120117188,-34.923858642578125,-0.0105693340301513,1013.6811065673828
2.6758798828125,0.4377600240262225,-0.264552159586735,-0.2560363697737455,-0.1363331079483032,0.1213262230157852,0.093918040394783,-0.0065606004953147,0.0457709262005055,0.8405333026202667,16.212644577026367,-17.35187530517578,-35.043914794921875,-0.0105693340301513,1013.6811065673828
2.685948486328125,0.5291959064470604,-0.1852931650360114,-0.3390659506380558,-0.117279976606369,0.1651379168033599,0.1111564338207244,-0.0077252869439237,0.047191208440131,0.841615993718374,16.18712043762207,-17.2093505859375,-35.231292724609375,-0.0105693340301513,1013.6811065673828
2.696017822265625,0.6260674405831843,-0.2134146227466873,-0.3473661614716052,-0.0768116489052772,0.2148831039667129,0.1357331573963165,-0.0085940056153989,0.0490954618817021,0.8429000779705486,16.440902709960938,-17.213134765625,-34.706390380859375,-0.0105693340301513,1013.6811065673828
2.7060859375,0.6948840063735843,-0.3185778008174151,-0.2333563359320163,-0.0311529822647571,0.2560890018939972,0.1683007627725601,-0.0090027375801275,0.051480823795743,0.8444470807812251,16.48992347717285,-17.16278839111328,-35.385833740234375,-0.0105693340301513,1013.6811065673828
2.71615478515625,0.7763540828362107,-0.4518619068758562,0.0165881467074155,-0.0004166411235928,0.2936939299106598,0.1988504230976104,-0.0090136135206587,0.0542703505613511,0.8463039612992955,16.88189697265625,-17.178695678710938,-34.892608642578125,-0.0105693340301513,1013.6811065673828
2.726223876953125,0.824474920469895,-0.5544343560673296,0.2525596335738897,0.0198432467877864,0.3004906475543976,0.2192160189151764,-0.0087614133306103,0.0573332373837549,0.8484160203846377,16.830141067504883,-17.304466247558594,-35.172821044921875,-0.0105693340301513,1013.6811065673828
2.73629248046875,0.838505199388042,-0.6614480391092598,0.3154559424698352,0.0220949500799179,0.2467568665742874,0.2328828424215316,-0.0083669925098986,0.0601645407117105,0.850676777812275,16.763429641723633,-17.41199493408203,-35.187652587890625,-0.0105693340301513,1013.6811065673828
2.74636181640625,0.8647240748804063,-0.7859333736948668,0.3168435974359512,-0.0020201811566948,0.1310435384511947,0.242435410618782,-0.0080757302630393,0.062133234278712,0.853057378378764,16.98896026611328,-17.387229919433594,-35.242706298828125,-0.0105693340301513,1013.6811065673828
2.7564306640625,0.8962566196762025,-1.006083168181777,0.3337275122195482,-0.0687605962157249,0.0095892772078514,0.2368955016136169,-0.0082316753550405,0.0628866659803138,0.8554823542517608,16.932952880859375,-17.283737182617188,-35.272674560546875,-0.0105693340301513,1013.6811065673828
2.766498779296875,0.8954552401654422,-1.0615106025017798,0.3379337317377329,-0.1573580354452133,-0.101273737847805,0.2268970757722854,-0.0092145487647845,0.0624798348481466,0.8579008302017758,16.80828857421875,-17.56078338623047,-35.027557373046875,-0.0105693340301513,1013.6811065673828
2.776567626953125,0.8147550520967691,-1.2206692641269414,0.3136298960864543,-0.2325513213872909,-0.1922244280576706,0.2016918659210205,-0.0110400104096439,0.0610484856298034,0.8601861798877695,16.849023818969727,-17.50324249267578,-35.418243408203125,-0.0105693340301513,1013.6811065673828
2.786636962890625,0.7268328038200735,-1.1743319489091637,0.1665045674085617,-0.2879428267478943,-0.2676019370555877,0.1657068729400634,-0.0135172533275602,0.0588117400463905,0.8621912343451961,16.90643310546875,-17.345787048339844,-35.182952880859375,-0.0105693340301513,1013.6811065673828
2.796705810546875,0.635821576552093,-1.0628646474592387,-0.0233498959273099,-0.3072611391544342,-0.3212321400642395,0.1373229026794433,-0.0164485705245841,0.0558520777842061,0.8638918330628763,16.55218505859375,-17.195831298828125,-34.958221435546875,-0.0105693340301513,1013.6811065673828
2.806774658203125,0.513058718377538,-0.93941771601066,-0.2589817755758762,-0.300755888223648,-0.3364327847957611,0.1007232144474983,-0.0194554524582095,0.0525139992411667,0.8652561765679673,16.690542221069336,-17.130142211914062,-34.907501220703125,-0.0105693340301513,1013.6811065673828
2.81684375,0.3203406457714736,-0.8421888563368469,-0.4165706306010484,-0.2742920815944671,-0.3092320561408996,0.0604434385895729,-0.0223283617171095,0.0492757397344532,0.8662229297641957,16.63054084777832,-17.078125,-35.074981689453125,-0.0105693340301513,1013.6811065673828
2.82691259765625,0.0901197217883542,-0.7951323599990456,-0.5417337183177471,-0.2159254401922226,-0.2879919409751892,0.0246104802936315,-0.0248090693354114,0.0462762759373929,0.8667490171136419,16.27301597595215,-17.24974822998047,-35.060455322265625,-0.0105693340301513,1013.6811065673828
2.83698095703125,-0.0195897762088105,-0.7427491887457668,-0.6436439407408238,-0.1288222372531891,-0.2460745871067047,-0.0028288678731769,-0.0265633860034335,0.0435917179577466,0.8669293515287576,16.087656021118164,-17.214149475097656,-34.995635986328125,-0.0105693340301513,1013.6811065673828
2.847049560546875,-0.0891383095355704,-0.7284086748346686,-0.58072542001307,-0.0259978659451007,-0.1717631220817566,-0.0182287748903036,-0.0273596498141088,0.0414808830608414,0.8668441636302441,16.068401336669922,-17.183242797851562,-34.911346435546875,-0.0105693340301513,1013.6811065673828
2.85711865234375,-0.1033835463786497,-0.7823988428931683,-0.284978386619687,0.0565878264605999,-0.0583084635436534,-0.0171328838914632,-0.0272040434252714,0.0403073865418905,0.8666449404055769,16.061120986938477,-17.127647399902344,-35.054046630859375,-0.0105693340301513,1013.6811065673828
2.86718798828125,-0.0760627009937539,-0.8528948862031102,0.145718384489417,0.107203722000122,0.0663837864995002,-0.0026406457182019,-0.0263814861031626,0.0403740207482359,0.8665032096316685,16.121313095092773,-17.262969970703125,-35.176849365234375,-0.0105693340301513,1013.6811065673828
2.877256591796875,-0.0150617043251171,-0.9568151332743464,0.5449129328757524,0.1336244195699691,0.1759552955627441,0.0244642086327075,-0.0251524255036751,0.0416153547530192,0.8665685444786715,16.251893997192383,-17.302757263183594,-35.249420166015625,-0.0105693340301513,1013.6811065673828
2.887325927734375,0.0850225447798147,-1.0466099704898892,0.8453875793129205,0.1324434876441955,0.2589754164218902,0.0489905141294002,-0.023795243493334,0.0438162500525417,0.8668746623891579,16.121782302856445,-17.46459197998047,-35.307891845703125,-0.0105693340301513,1013.6811065673828
2.89739453125,0.152226962665841,-1.0961476161189376,1.0133294860482216,0.1161252334713935,0.3041373193264007,0.0603496991097927,-0.0225291951154708,0.0467160908583552,0.867381827668419,16.164525985717773,-17.687217712402344,-35.228363037109375,-0.0105693340301513,1013.6811065673828
2.907462646484375,0.1938784946875646,-1.1095447117000818,1.0774831015288828,0.0989663749933242,0.3089739978313446,0.0705111324787139,-0.0214078692981627,0.0498420232213951,0.8679908530339949,16.36985969543457,-17.832763671875,-35.515350341796875,-0.0105693340301513,1013.6811065673828
2.91753173828125,0.3107590533578768,-1.1518684804275632,1.0654057102441787,0.0869885459542274,0.2741158604621887,0.0646979957818985,-0.0204592018900297,0.0528196573618469,0.8686223139328254,16.19669532775879,-17.790931701660156,-35.534332275390625,-0.0105693340301513,1013.6811065673828
2.9276005859375,0.3062969228498637,-1.2139523038968445,1.0440624779641627,0.0819577574729919,0.2141183912754058,0.0531256794929504,-0.0196029304985451,0.0552920088713446,0.8691759064142908,16.65906524658203,-18.02831268310547,-35.145355224609375,-0.0105693340301513,1013.6811065673828
2.937669921875,0.3129033719101921,-1.229459523499757,0.9964104999512432,0.0807055383920669,0.1343971937894821,0.046349000185728,-0.0187579204193907,0.057061953089902,0.8696341132953318,16.283164978027344,-18.26268768310547,-35.410858154296875,-0.0105693340301513,1013.6811065673828
2.947738525390625,0.3234928992573171,-1.1990445114918054,0.9604156419843436,0.0801391154527664,0.0459304265677928,0.0337562821805477,-0.0179451342111389,0.0579971286004792,0.8699922652436668,16.23128318786621,-18.04412078857422,-35.512603759765625,-0.0105693340301513,1013.6811065673828
2.957807861328125,0.3152824125338345,-1.198869008794427,0.9440057744532824,0.0839290618896484,-0.0105347139760851,0.0242373459041118,-0.0171031396885854,0.0581624272113257,0.8702514743324684,16.25634002685547,-18.54509735107422,-35.553497314453125,-0.0105693340301513,1013.6811065673828
2.967876708984375,0.302208521025069,-1.2789600519888102,1.0002888026893135,0.0983776822686195,-0.0459690801799297,0.0175257995724678,-0.0161452594464911,0.0578767131579027,0.8704112270919435,16.084983825683594,-18.58965301513672,-35.235687255859375,-0.0105693340301513,1013.6811065673828
2.97794580078125,0.2236895129203796,-1.3727595948010682,1.0687076743990185,0.1040542125701904,-0.0649414435029029,0.0063487780280411,-0.0150899081309506,0.0573060203693825,0.8704614189932667,16.258638381958008,-18.65635681152344,-35.488739013671875,-0.0105693340301513,1013.6811065673828
2.988013671875,0.2327346969023346,-1.4092561186797916,1.096140455725789,0.1019363179802894,-0.0580247528851032,-0.0046656387858092,-0.0140201431182885,0.0566868913571347,0.870417460818263,16.117860794067383,-18.626235961914062,-35.625152587890625,-0.0105693340301513,1013.6811065673828
2.998082763671875,0.2193659506328404,-1.4654163973189889,1.0842816756278275,0.0955226272344589,-0.0395946130156517,-0.0226912442594766,-0.0130024146818594,0.0561869275006743,0.8702227977211372,16.024372100830078,-18.831771850585938,-35.113250732421875,-0.0105693340301513,1013.6811065673828
3.00815185546875,0.1532401217637583,-1.523278219179064,0.9911375279843808,0.0824875608086586,-0.0047977119684219,-0.0546353794634342,-0.0120971896292521,0.0559708895009862,0.8697883389337301,16.103801727294922,-18.63282012939453,-35.135711669921875,-0.0105693340301513,1013.6811065673828
3.018220703125,0.0968340516699478,-1.569950684635341,0.8339315347969531,0.059109803289175,0.0116249378770589,-0.0927396267652511,-0.0114090247137533,0.056000255387001,0.8690098307738084,16.061763763427734,-18.61241149902344,-34.916412353515625,-0.0105693340301513,1013.6811065673828
3.028289794921875,0.0215645103478804,-1.5939020535871389,0.6166957280606031,0.0371179804205894,-0.0110942088067531,-0.1331033706665039,-0.0109826987856306,0.0560154601383665,0.8678570222927766,15.947505950927734,-18.642311096191406,-34.843780517578125,-0.0105693340301513,1013.6811065673828
3.038358642578125,-0.0444024746976792,-1.5614768708005546,0.4289660017937421,0.0150576839223504,-0.0617706999182701,-0.1784796416759491,-0.0107890317984772,0.0556614467037309,0.8662637772728912,15.89765167236328,-18.969520568847656,-34.972747802734375,-0.0105693340301513,1013.6811065673828
3.048427978515625,-0.1038541960977017,-1.6028842553354798,0.3070166154265403,-0.0063366731628775,-0.101975604891777,-0.2213613539934158,-0.0108457679569389,0.0548102954552529,0.8642536198025397,15.859209060668944,-18.642318725585938,-34.825103759765625,-0.0105693340301513,1013.6811065673828
3.05849560546875,-0.1118070182656869,-1.6699970128826795,0.2294903081536292,-0.0290433168411254,-0.1227328106760978,-0.2548761963844299,-0.0111433550452432,0.0536512718652285,0.8618673869546288,16.008481979370117,-18.846023559570312,-34.985809326171875,-0.0105693340301513,1013.6811065673828
3.068564697265625,-0.181325119921565,-1.7181250839747488,0.165446582788229,-0.057693988084793,-0.1218572258949279,-0.2868177890777588,-0.011702344292932,0.0523767967391139,0.8591652773114924,15.972501754760742,-18.88661193847656,-34.951263427734375,-0.0105693340301513,1013.6811065673828
3.078634033203125,-0.2195449604615569,-1.7590674813464282,0.0978425345927476,-0.0807652175426483,-0.0969588011503219,-0.3074772655963897,-0.0125204323204999,0.0512376382275037,0.8561982620449458,15.893653869628906,-18.619354248046875,-34.451080322265625,-0.0105693340301513,1013.6811065673828
3.08870263671875,-0.2276025216456502,-1.7948606792613864,0.0059393269211053,-0.0958423614501953,-0.0586279034614563,-0.3184891939163208,-0.0135459000274119,0.0504261531891034,0.8531031579961149,15.90031623840332,-18.745819091796875,-34.699737548828125,-0.0105693340301513,1013.6811065673828
3.09877197265625,-0.2156395870534703,-1.7891611524455249,-0.1509393340080976,-0.1009633541107177,-0.0314125269651412,-0.3224580883979797,-0.0146737994649693,0.0499235525682087,0.8499333806075975,15.568422317504885,-18.79847717285156,-34.993011474609375,-0.0105693340301513,1013.6811065673828
3.108840576171875,-0.209963002721779,-1.7194548712737858,-0.4209241496354341,-0.0895071625709533,-0.0099949352443218,-0.3271899223327636,-0.0157293188707996,0.0496808659720007,0.8467120952727271,15.56119155883789,-18.668380737304688,-34.991607666015625,-0.0105693340301513,1013.6811065673828
3.11890966796875,-0.1725732563303783,-1.6372890676319598,-0.7360200266212225,-0.0620198734104633,0.0093430764973163,-0.3243986666202545,-0.0165976729379496,0.0496224441620204,0.8434868319468518,15.601072311401367,-18.735633850097656,-34.873992919921875,-0.0105693340301513,1013.6811065673828
3.128978759765625,-0.153674604190886,-1.58086794609949,-0.992996307593584,-0.0235771127045154,0.051735520362854,-0.327698290348053,-0.0171310236911788,0.0498475699008032,0.8402349460965556,15.461990356445312,-18.515365600585938,-34.837677001953125,-0.0105693340301513,1013.6811065673828
3.139046630859375,-0.1527672070223838,-1.5267102394543588,-1.183379763239622,0.0131209809333086,0.0866847187280654,-0.3332602977752685,-0.0173000226862093,0.0504885081033878,0.8369228405080716,15.635234832763672,-18.818832397460938,-35.312408447265625,-0.0105693340301513,1013.6811065673828
3.14911572265625,-0.1622057377034798,-1.5582482641428708,-1.2950205215603112,0.0338980257511138,0.117618516087532,-0.3429769873619079,-0.01717430854013,0.0514522576129414,0.8335162673187729,15.689170837402344,-18.660690307617188,-35.217803955078125,-0.0105693340301513,1013.6811065673828
3.159184814453125,-0.2527464248502626,-1.7439909082457423,-1.260344929498434,0.0064709279686212,0.1496068090200424,-0.3527065813541412,-0.017117586121368,0.0527216087846101,0.8300188307263585,15.741439819335938,-18.665679931640625,-35.535247802734375,-0.0105693340301513,1013.6811065673828
3.16925390625,-0.3025178427025675,-1.885349343959987,-1.1131354296684264,-0.0771960169076919,0.1801942288875579,-0.3766107559204101,-0.0176162003567843,0.0543361545124003,0.8263774919232229,15.605270385742188,-18.83343505859375,-35.590545654296875,-0.0105693340301513,1013.6811065673828
3.17932275390625,-0.2618713230049238,-1.7532601102419196,-1.085994324764609,-0.2290577143430709,0.1896878629922866,-0.4132073819637298,-0.0193296323693387,0.056147109499226,0.8225086694971575,15.796056747436523,-18.748817443847656,-35.201873779296875,-0.0105693340301513,1013.6811065673828
3.1893916015625,-0.0762698409384116,-1.4475171680130063,-1.43778940859437,-0.430910587310791,0.1464690566062927,-0.4613017737865448,-0.0228670615711933,0.057781876161817,0.8183199569645955,15.965673446655272,-18.35801696777344,-35.338836669921875,-0.0105693340301513,1013.6811065673828
3.199460693359375,0.187401188432239,-1.003530634154752,-2.202315983253717,-0.6564151048660278,0.056485366076231,-0.5170960426330566,-0.0286050753975918,0.0587069016336523,0.8137274287149854,15.987543106079102,-18.250572204589844,-35.569976806640625,-0.0105693340301513,1013.6811065673828
3.20952978515625,0.3741507080227136,-0.3621890520721674,-3.1781355305969714,-0.8693460822105408,-0.0091418419033288,-0.575427770614624,-0.0366207557867057,0.058737391916051,0.8086757447364213,16.2194881439209,-18.10242462158203,-35.239410400390625,-0.0105693340301513,1013.6811065673828
3.21959765625,0.4095768992561847,0.2858554982477799,-4.033278195726871,-1.0159070491790771,0.0062229996547102,-0.6045006513595581,-0.0464901535802741,0.0584593736550764,0.8032903919162947,16.077415466308594,-17.402755737304688,-35.719390869140625,-0.0105693340301513,1013.6811065673828
3.229666748046875,0.3811700487328693,0.925524069084227,-4.675385428419709,-1.043176293373108,0.0844789370894432,-0.6252284049987793,-0.0572807136306005,0.0585815509316935,0.7977094766603904,16.065824508666992,-16.703903198242188,-35.930023193359375,-0.0105693340301513,1013.6811065673828
3.23973583984375,0.1825007395721972,1.5882413974769412,-5.132605464795232,-0.9135800004005432,0.2215180099010467,-0.6145249009132385,-0.0675727880911665,0.0597479537298965,0.792019631380217,16.065975189208984,-16.53601837158203,-35.770538330078125,-0.0105693340301513,1013.6811065673828
3.2498046875,0.0808805496042594,2.0553030289091168,-5.315455602326989,-0.6523217558860779,0.3594924807548523,-0.5567167401313782,-0.0758600345093784,0.0622842549856562,0.7865634266026271,16.18586540222168,-16.10247039794922,-36.058868408203125,-0.0105693340301513,1013.6811065673828
3.259873779296875,0.1195052080854773,2.3060215646609663,-5.120613998228311,-0.3161400258541107,0.4796609580516815,-0.4544543027877807,-0.0810869211044449,0.0661278709877321,0.7817478417052863,16.32759666442871,-15.486412048339844,-36.020721435546875,-0.0105693340301513,1013.6811065673828
3.269942626953125,0.1939343530606478,2.324736202003061,-4.601683647871017,0.029931828379631,0.5980256795883179,-0.3222734630107879,-0.0827853186465838,0.0712570762775523,0.777923023062079,16.62565040588379,-15.677459716796877,-35.919830322265625,-0.0105693340301513,1013.6811065673828
3.28001171875,0.234202212171629,2.189245489278436,-3.825972831374407,0.3331233859062195,0.6568858027458191,-0.1969280540943145,-0.0811388548830922,0.0774171840336151,0.7752059464226133,17.02627944946289,-15.865211486816406,-35.842071533203125,-0.0105693340301513,1013.6811065673828
3.290079833984375,0.2181076211348175,1.9301798348113892,-2.8760318216532466,0.6004998087882996,0.6222129464149475,-0.1188866645097732,-0.0765513587288038,0.083753952317978,0.7732493321096975,17.12017250061035,-15.91301727294922,-35.729400634765625,-0.0105693340301513,1013.6811065673828
3.300148681640625,0.150851436528936,1.5802170809753238,-1.717603544318676,0.8033522367477417,0.5735066533088684,-0.0838519781827926,-0.0696318490150612,0.0896603075446335,0.7717051610946818,17.325469970703125,-15.95184326171875,-35.502471923828125,-0.0105693340301513,1013.6811065673828
3.3102177734375,0.0424210916221141,1.1738956033185124,-0.4556856664150953,1.003834247589111,0.4779239594936371,-0.0513725988566875,-0.0605545218832828,0.0948670608453231,0.7701531378048677,17.01116371154785,-16.436134338378906,-35.839630126953125,-0.0105693340301513,1013.6811065673828
3.320286865234375,-0.0496175789974629,0.7085523201115429,0.6636527095466852,1.1029168367385864,0.4341684877872467,-0.0440845936536788,-0.050067887349952,0.0993566807714698,0.7686991917187467,17.334823608398438,-16.763282775878906,-35.305450439453125,-0.0105693340301513,1013.6811065673828
3.330355712890625,-0.0797449331704527,0.3177055845601484,1.7775602926313876,1.167330265045166,0.3499496281147003,-0.0652936175465583,-0.0386728705692632,0.1032714148833483,0.7669771841036296,17.607730865478516,-17.284156799316406,-35.085540771484375,-0.0105693340301513,1013.6811065673828
3.3404248046875,-0.1776972848132252,-0.0443671293896622,2.399886135533452,1.131397008895874,0.2340486049652099,-0.1110198274254798,-0.0271868415449893,0.1061575871944643,0.764900574067704,17.781082153320312,-17.429039001464844,-34.504058837890625,-0.0105693340301513,1013.6811065673828
3.35049365234375,-0.3037492841936647,-0.1171662254775874,2.742925081455708,0.9999529123306274,0.0752081051468849,-0.2076374441385269,-0.0166328441597955,0.1076736586845709,0.7621826302279348,17.747556686401367,-18.018722534179688,-34.740875244140625,-0.0105693340301513,1013.6811065673828
3.36056298828125,-0.454776150354743,-0.0222782572409603,2.7828420813024044,0.7976821064949036,-0.119940347969532,-0.337290495634079,-0.0079023276554485,0.107420868754954,0.7585024242310827,17.666799545288086,-18.263282775878903,-34.300323486328125,-0.0105693340301513,1013.6811065673828
3.370630859375,-0.6016706659514457,0.162413754430972,2.4118232415646315,0.5685251951217651,-0.356154590845108,-0.4872178435325622,-0.0014742966866308,0.105034012133984,0.7536450398269388,17.37000846862793,-18.41881561279297,-34.535736083984375,-0.0105693340301513,1013.6811065673828
3.380699462890625,-0.7291095165804028,0.4432965423000976,1.7872715393066405,0.3437074720859527,-0.594917356967926,-0.6275635361671448,0.0025095780282439,0.1002122354682433,0.7475779449737247,17.36714744567871,-18.67060089111328,-34.309234619140625,-0.0105693340301513,1013.6811065673828
3.390768798828125,-0.7400300659801811,0.7336418993130326,1.1818097374439238,0.1461348086595535,-0.7512462139129639,-0.721900999546051,0.0042998028006973,0.0933903616370553,0.7405412766056052,17.323848724365234,-18.89007568359375,-34.259063720703125,-0.0105693340301513,1013.6811065673828
3.40083837890625,-0.7011103335425257,0.9672392043940722,0.6493155566364527,0.0040069660171866,-0.8254599571228027,-0.7836802005767822,0.0043316466260712,0.0854531051711356,0.7329137665846436,17.27590560913086,-18.809791564941406,-34.383575439453125,-0.0105693340301513,1013.6811065673828
3.4109072265625,-0.7336057320211082,1.1999839112337678,0.0037158056527376,-0.0798122063279151,-0.8683860301971436,-0.8099367022514343,0.0032542013771923,0.0769279063697319,0.7249255392848073,17.31768035888672,-18.380599975585938,-34.288238525390625,-0.0105693340301513,1013.6811065673828
3.420976318359375,-0.6990439025320112,1.365160225713253,-0.5132306774109602,-0.1067410260438919,-0.841171145439148,-0.768261194229126,0.0017106606695401,0.068284039196604,0.7170347097131778,16.962160110473633,-18.414962768554688,-34.594085693359375,-0.0105693340301513,1013.6811065673828
3.43104541015625,-0.6423921871140599,1.499226166331768,-0.8030588421493768,-0.0881614834070205,-0.7008278965950012,-0.6646645069122314,0.0002296023741297,0.0604461396673126,0.7098764390680598,16.68117904663086,-18.25927734375,-34.832672119140625,-0.0105693340301513,1013.6811065673828
3.4411142578125,-0.6647397741310298,1.5877112361229957,-0.9447212292462588,-0.0200812332332134,-0.4627900421619415,-0.5165940523147583,-0.000680901117983,0.0545212117229564,0.703955565008827,16.425548553466797,-18.16967010498047,-34.968292236328125,-0.0105693340301513,1013.6811065673828
3.451183349609375,-0.7796497633807361,1.605620548431575,-0.9943658423811196,0.0896800756454467,-0.183779090642929,-0.3579483032226562,-0.0005941684565983,0.0512806080144682,0.6995464638926356,16.280508041381836,-18.002647399902344,-34.309356689453125,-0.0105693340301513,1013.6811065673828
3.461251220703125,-0.8834509141169488,1.5931038889467717,-1.0369605370044708,0.2327328324317932,0.0339487120509147,-0.2268427610397339,0.0008455513023452,0.0505729748189435,0.6965392920220883,16.350614547729492,-18.33716583251953,-34.670928955078125,-0.0105693340301513,1013.6811065673828
3.471320556640625,-0.9028618631601332,1.4495942665480075,-0.9959458050489424,0.40962615609169,0.155103400349617,-0.1326790153980255,0.003972878959268,0.0515927591862938,0.6945880357022456,16.33338737487793,-18.343292236328125,-34.545928955078125,-0.0105693340301513,1013.6811065673828
3.48138916015625,-0.8101571298472583,1.140256222436577,-0.7056161205291748,0.577640175819397,0.1628268361091613,-0.063943900167942,0.0089130559988242,0.0532518907075498,0.69334784160743,16.192733764648438,-18.51948547363281,-34.546417236328125,-0.0105693340301513,1013.6811065673828
3.491458251953125,-0.65063993710801,0.7822253129571676,-0.1123100358843803,0.7022402882575989,0.1112650111317634,-0.0082075539976358,0.0153580383148543,0.0546464421690554,0.6926394220781897,16.15689468383789,-18.79432678222656,-34.718292236328125,-0.0105693340301513,1013.6811065673828
3.50152734375,-0.5149312707837671,0.424648723116517,0.6022820027828216,0.7869356870651245,0.0600268542766571,0.0284585803747177,0.0228725934108344,0.0555115964666053,0.6923376997376487,16.197288513183594,-18.88732147216797,-34.448211669921875,-0.0105693340301513,1013.6811065673828
3.51159619140625,-0.4037984254525974,0.1823955986972898,1.232602936092019,0.8135508298873901,0.0133136808872222,0.0419773198664188,0.0309790072203746,0.0558955830550257,0.6922508467467713,16.337190628051758,-19.126998901367188,-34.077178955078125,-0.0105693340301513,1013.6811065673828
3.52166552734375,-0.3244982769075781,0.0445369147323071,1.7750258057177066,0.7810570597648621,-0.0356450751423835,0.0504773296415805,0.0390668174922214,0.0557745890143655,0.6922665252923761,16.340024948120117,-19.375045776367188,-33.534759521484375,-0.0105693340301513,1013.6811065673828
3.531734130859375,-0.224130826947093,-0.130015240455605,2.2191402768045663,0.6945491433143616,-0.0642820596694946,0.0485560707747936,0.046542873042626,0.0552610361502493,0.6923629109417304,16.148841857910156,-19.60435485839844,-33.786102294921875,-0.0105693340301513,1013.6811065673828
3.541803466796875,-0.111380098090507,-0.2710460516506806,2.4838433526366948,0.5634547472000122,-0.0791377052664756,0.0255349092185497,0.0528910169013336,0.0545364237097751,0.6924045110994711,16.028430938720703,-20.03521728515625,-33.753326416015625,-0.0105693340301513,1013.6811065673828
3.551871337890625,-0.0583823386028408,-0.3611358532248064,2.5543226640075445,0.4279535710811615,-0.0912638008594513,-0.0121144484728574,0.0578722133041853,0.0536763518122605,0.6922067384048896,15.997642517089844,-20.25298309326172,-33.742340087890625,-0.0105693340301513,1013.6811065673828
3.561940185546875,0.011269472435303,-0.3818504687450826,2.492092125543952,0.297911673784256,-0.09375811368227,-0.058669701218605,0.0614731109762268,0.052762157346841,0.6916644438424331,15.853424072265623,-20.25293731689453,-33.354400634765625,-0.0105693340301513,1013.6811065673828
3.572009521484375,0.0754254260035231,-0.376756360476464,2.345690434965491,0.193661943078041,-0.0663014873862266,-0.1061586886644363,0.0638893951808773,0.0520238701997489,0.6906986385978583,15.842527389526367,-20.42815399169922,-33.166229248046875,-0.0105693340301513,1013.6811065673828
3.582078125,0.1291736385323107,-0.3085288466203957,2.0877374179154637,0.1239643618464469,-0.0400536395609378,-0.1399012058973312,0.0654024479627587,0.051566720251036,0.6893790711934423,15.830026626586914,-20.51512908935547,-33.060882568359375,-0.0105693340301513,1013.6811065673828
3.5921474609375,0.1260662836341187,-0.2436030777234584,1.7654934227406978,0.0838672742247581,-0.0123881883919239,-0.1693871915340423,0.0663335214188791,0.0514131738059253,0.687769727000943,15.450206756591797,-20.627723693847656,-33.467437744140625,-0.0105693340301513,1013.6811065673828
3.60221630859375,0.1078125783346593,-0.1982758893962949,1.5146803405731917,0.0763110890984535,-0.0006319303065538,-0.1922797262668609,0.0670050663476028,0.05147651935344,0.6859086999905851,15.572093963623049,-20.593902587890625,-33.351104736328125,-0.0105693340301513,1013.6811065673828
3.612285400390625,0.1138280392318964,-0.1265686436656862,1.3429285201609134,0.0900827050209045,0.0167615916579961,-0.1996637135744094,0.0677117304549501,0.0516750022632906,0.6838891637608794,15.682968139648438,-20.816261291503903,-33.129547119140625,-0.0105693340301513,1013.6811065673828
3.622354248046875,0.1075944055393338,-0.0875517344638705,1.2785966255038976,0.1195151582360267,0.0539065636694431,-0.1951272934675216,0.0686560363847729,0.0521785073270407,0.6818390882351534,15.707023620605469,-20.86738586425781,-33.171905517578125,-0.0105693340301513,1013.6811065673828
3.63242236328125,0.0934218686062842,-0.1262092357687652,1.3081681724250316,0.1438696533441543,0.0776077881455421,-0.1806947737932205,0.0698897562727556,0.0529903921691103,0.6798737125306447,15.7020263671875,-20.87934875488281,-33.081451416015625,-0.0105693340301513,1013.6811065673828
3.6424912109375,0.0714428591733798,-0.1661959398508072,1.385091253107786,0.1561388373374939,0.0852425321936607,-0.1596291661262512,0.0713089525324652,0.0539590329945134,0.6780687438952852,15.693815231323242,-20.84947204589844,-33.152374267578125,-0.0105693340301513,1013.6811065673828
3.652560302734375,0.0430794094003736,-0.167524631171301,1.4836521651029586,0.1497023254632949,0.0843183845281601,-0.132452055811882,0.0727641489231247,0.0549383845660521,0.676510271544428,15.547735214233398,-20.912841796875,-32.985260009765625,-0.0105693340301513,1013.6811065673828
3.66262939453125,0.0626977175839245,-0.1922296680346131,1.534403862696886,0.1374027729034423,0.0785481110215187,-0.0932452678680419,0.074139635741826,0.0558311407189216,0.6752892631386476,15.75151824951172,-20.986328125,-32.737518310546875,-0.0105693340301513,1013.6811065673828
3.6726982421875,0.0462081358801573,-0.2442616877626627,1.530073140016198,0.12190543115139,0.05607770383358,-0.0615036524832248,0.0753986463743991,0.0565904253997987,0.6744288088315259,15.71083641052246,-20.942153930664062,-32.558502197265625,-0.0105693340301513,1013.6811065673828
3.682767578125,-0.016666289977543,-0.2957105738405138,1.4870862312048674,0.1024475842714309,0.0319643802940845,-0.0236390922218561,0.0765031543915678,0.0570730912971626,0.6739399624115557,15.810361862182615,-21.090110778808597,-32.624847412109375,-0.0105693340301513,1013.6811065673828
3.692836181640625,-0.0149599975163117,-0.349565425081551,1.416934836614132,0.0878103077411651,0.0256781969219446,0.0214965194463729,0.0774535166052361,0.0573470475379018,0.6738731352785208,15.730270385742188,-21.12944793701172,-32.086456298828125,-0.0105693340301513,1013.6811065673828
3.7029052734375,0.0114767950430512,-0.4186943447567522,1.341329268270731,0.0817193984985351,0.0296231377869844,0.0680850595235824,0.0783109695401126,0.0575858695781607,0.674268498248608,15.54729461669922,-21.02435302734375,-32.136749267578125,-0.0105693340301513,1013.6811065673828
3.712974365234375,-0.0014034370571374,-0.599286035837233,1.28853232858479,0.0790317356586456,0.0560085698962211,0.1215606182813644,0.0791702627891559,0.0579589291281482,0.6751689822419588,15.407964706420898,-21.278091430664062,-32.244537353515625,-0.0105693340301513,1013.6811065673828
3.723043212890625,0.0222911075893789,-0.6562330078747123,1.2851152136176824,0.0676517784595489,0.0978353768587112,0.1777525246143341,0.0800035017641172,0.0586168274977728,0.6766398037881649,15.467636108398438,-21.146316528320312,-32.309356689453125,-0.0105693340301513,1013.6811065673828
3.733111572265625,0.0519133252518251,-0.6196120538987219,1.2867881152659657,0.0532409660518169,0.1344972252845764,0.229228213429451,0.0807341771289116,0.0596483772380894,0.6786516735095539,15.41258430480957,-21.03900909423828,-32.362213134765625,-0.0105693340301513,1013.6811065673828
3.74318017578125,0.0488602578241378,-0.6224036573786288,1.215122224459052,0.0271262768656015,0.1555300652980804,0.2798937857151031,0.0812905746719138,0.0609149052878588,0.6811943051098354,15.673133850097656,-21.20841217041016,-31.915435791015625,-0.0105693340301513,1013.6811065673828
3.75324951171875,0.104239322957769,-0.6607307576853781,1.0586007064044476,-0.0003807144239544,0.1554190069437027,0.3150733411312103,0.0816100364338408,0.0622342856217067,0.6841972967854145,15.41584587097168,-21.657623291015625,-31.488800048828125,-0.0105693340301513,1013.6811065673828
3.763318359375,0.145993548168987,-0.6948543418876826,0.8561281690359115,-0.0324318595230579,0.1302313655614853,0.3393869400024414,0.0816553336178854,0.0634151529594515,0.687520654442298,15.282054901123049,-21.747817993164062,-31.157623291015625,-0.0105693340301513,1013.6811065673828
3.77338720703125,0.1619203814234584,-0.6956769833821803,0.6594692863821983,-0.056448932737112,0.0932898670434951,0.3484020233154297,0.0814333749244873,0.0642357141080175,0.6910265745365934,15.233030319213867,-21.75575256347656,-31.508575439453125,-0.0105693340301513,1013.6811065673828
3.78345654296875,0.160948102325201,-0.6748526604097336,0.4851403089582919,-0.0608154498040676,0.0576083026826381,0.3519107401371002,0.0810531681462849,0.0647169240060865,0.6945961829703492,15.176790237426758,-21.795944213867188,-31.46249389648437,-0.0105693340301513,1013.6811065673828
3.793525146484375,0.1135305175900459,-0.6740324300680309,0.3061825026899576,-0.0374738425016403,0.0252705737948417,0.3531835377216339,0.0807696725611973,0.0648210281665088,0.6981836417735728,15.254705429077148,-21.823081970214844,-31.739715576171875,-0.0105693340301513,1013.6811065673828
3.803594482421875,0.0745903268862515,-0.6912341055639087,0.1832382600665092,0.0006162831559777,0.0025210529565811,0.3492923974990845,0.0808162807369291,0.0646713889047388,0.7017343751699491,15.16160774230957,-21.93696594238281,-31.272613525390625,-0.0105693340301513,1013.6811065673828
3.8136630859375,0.056785059474036,-0.6748200002491473,0.1174754558235406,0.0497333146631717,0.0084787821397185,0.3390866219997406,0.0813014598404677,0.0644129796579843,0.7051920994197586,14.811866760253906,-22.353858947753903,-31.277557373046875,-0.0105693340301513,1013.6811065673828
3.823731201171875,-0.0305433876279741,-0.6307070100173354,0.0886965205848216,0.0867872089147567,0.0130764627829194,0.326723963022232,0.0822322874859707,0.0642583324563494,0.7085125446363503,14.568246841430664,-22.3212890625,-31.248504638671875,-0.0105693340301513,1013.6811065673828
3.83380029296875,-0.1141720303639769,-0.6021165100228041,0.0824737005472183,0.1072966605424881,-0.0050133466720581,0.3035699427127838,0.0834275630561438,0.0640479790311538,0.711618839453622,14.398340225219728,-22.57734680175781,-31.28475952148437,-0.0105693340301513,1013.6811065673828
3.843869384765625,-0.1575899510037154,-0.584054929761961,0.127073889774084,0.1108434647321701,0.0049484735354781,0.2898067235946655,0.0847245958309727,0.0637657976907546,0.7145496803525588,14.096351623535156,-22.635726928710938,-31.03720092773437,-0.0105693340301513,1013.6811065673828
3.8539384765625,-0.1844710897970944,-0.5649261586610228,0.1385135676771402,0.1094937771558761,0.0640582963824272,0.2900528907775879,0.0860084746052153,0.0638593921728372,0.7173997283433249,13.954566955566406,-22.78221893310547,-31.039581298828125,-0.0105693340301513,1013.6811065673828
3.86400732421875,-0.2234931866306811,-0.5764144249461591,0.0028127193331718,0.1237829700112342,0.1390704810619354,0.3011603951454162,0.0873444593286136,0.064646188046481,0.7202972144033538,13.902446746826172,-22.85663604736328,-31.03964233398437,-0.0105693340301513,1013.6811065673828
3.874076416015625,-0.315260054571554,-0.7217869916725903,-0.2758393868744373,0.1487136930227279,0.1963449865579605,0.3174927234649658,0.088914611354141,0.0660869226349586,0.7233188831586761,13.608882904052734,-23.208160400390625,-30.550323486328125,-0.0105693340301513,1013.6811065673828
3.884145263671875,-0.4928452573124319,-0.9569474544171244,-0.4925730893075465,0.1640755981206894,0.2080653011798858,0.330964058637619,0.0907295867983622,0.0678601540179851,0.7264764785312204,13.695806503295898,-23.198150634765625,-30.731109619140625,-0.0105693340301513,1013.6811065673828
3.89421435546875,-0.5742242944907396,-1.2153168702483177,-0.6148164901852607,0.1301088035106659,0.2270507663488388,0.3440388441085815,0.092482021733281,0.0697426467015253,0.7297756758743309,13.554021835327148,-23.45990753173828,-30.623809814453125,-0.0105693340301513,1013.6811065673828
3.904283447265625,-0.5113135917432606,-1.3751876987308262,-0.6104559568881989,0.0152280274778604,0.2524479925632477,0.372847318649292,0.093518182119249,0.0718171039123056,0.7333265899831573,13.723714828491213,-23.539207458496094,-30.566680908203125,-0.0105693340301513,1013.6811065673828
3.914351318359375,-0.2837095357276499,-1.215797712567821,-0.6396101551800966,-0.1908137798309326,0.327934056520462,0.4237889051437378,0.0929997929382107,0.0743331124568207,0.737375111215503,13.432872772216797,-23.4862060546875,-30.292022705078125,-0.0105693340301513,1013.6811065673828
3.924420166015625,0.2147429670073092,-0.5209709893394261,-0.8371575111061335,-0.5155245065689087,0.4305635094642639,0.5018331408500671,0.0898646875196609,0.0777371055102289,0.7422774602452132,13.440448760986328,-23.64453125,-30.074737548828125,-0.0105693340301513,1013.6811065673828
3.9344892578125,0.7717358484510332,0.4147608777653426,-1.6207319005846976,-0.8815962672233582,0.4875812232494354,0.5662392377853394,0.0832683255984664,0.081912455683456,0.7482585074627862,13.422683715820312,-23.67831420898437,-29.967193603515625,-0.0105693340301513,1013.6811065673828
3.94455859375,1.0070655302826317,1.174648905903846,-3.133330758708716,-1.1721724271774292,0.4301866292953491,0.5755640268325806,0.0733683861730311,0.0861069266053041,0.7549406112508247,13.029138565063477,-23.55754852294922,-30.180694580078125,-0.0105693340301513,1013.6811065673828
3.954627197265625,1.0437309809874742,1.6469170199379324,-4.86203203562498,-1.2844977378845217,0.2447967827320099,0.5405606031417847,0.0614100149424743,0.0891061395527309,0.7616572127053863,12.864418029785156,-23.16473388671875,-30.594146728515625,-0.0105693340301513,1013.6811065673828
3.964696533203125,0.963082011649385,1.9360588098473843,-6.18048136356771,-1.170814871788025,0.0027852025814354,0.489429235458374,0.0494176567159549,0.0900124809085767,0.7679713260495057,12.986309051513672,-22.66809844970703,-30.584747314453125,0.0581309795379638,1013.6727142333984
3.97476513671875,0.7776293634690344,2.1246967370003462,-6.817364139610529,-0.851664125919342,-0.2319440394639969,0.4161125123500824,0.039575587874178,0.0885983737003111,0.77344776279997,12.800529479980469,-22.43863677978516,-30.895050048828125,0.0581309795379638,1013.6727142333984
3.984834228515625,0.5472438600413501,2.2502676748655737,-6.634986295765638,-0.4185236394405365,-0.4054205119609833,0.3309307694435119,0.0335010797557957,0.0852013349297576,0.7777649655950708,12.668590545654297,-22.45616149902344,-30.451324462890625,0.0581309795379638,1013.6727142333984
3.994903564453125,0.4177531183838844,2.3583188842616973,-5.725460298541188,-0.0030443370342254,-0.4840785264968872,0.2576781511306762,0.0316856369329458,0.0805295219284477,0.7808971674099705,12.162973403930664,-22.33763885498047,-30.691619873046875,0.0581309795379638,1013.6727142333984
4.00497216796875,0.3047352995563298,2.353407877475023,-4.437168792974949,0.2934041023254394,-0.4238599240779876,0.1941620111465454,0.033413555657125,0.0758215616651503,0.7830473312189459,11.83420753479004,-22.36689758300781,-30.777618408203125,0.0581309795379638,1013.6727142333984
4.01504052734375,0.169532683058083,2.174608768899738,-3.075934216272831,0.4648228883743286,-0.3088216781616211,0.1202317476272583,0.0374156737461661,0.0720739148694222,0.784337025844485,11.836118698120115,-22.46308135986328,-30.587677001953125,0.0581309795379638,1013.6727142333984
4.025109375,0.1701094600327312,1.911665980738401,-1.975706198972464,0.5275350213050842,-0.2052811533212661,0.0473095960915088,0.042528446299337,0.0694880521618248,0.7848111974961993,11.586435317993164,-22.45050811767578,-30.176239013671875,0.0581309795379638,1013.6727142333984
4.03517822265625,0.3103819271411746,1.5970990960627791,-1.0738456218093633,0.5230198502540588,-0.1416727751493454,-0.018493777140975,0.0478410281230308,0.0677834411335124,0.7845810496019135,11.240978240966797,-22.655799865722656,-30.34530639648437,0.0581309795379638,1013.6727142333984
4.045247314453125,0.4465241625770926,1.266775547067821,-0.3668330784857272,0.4935010969638824,-0.1219778880476951,-0.0730928406119346,0.0529211614244317,0.0665172599215565,0.7837604807691653,11.065296173095703,-23.07146453857422,-29.933807373046875,0.0581309795379638,1013.6727142333984
4.055316162109375,0.5229308181703091,1.0015740201942622,0.225121007028222,0.4471197724342346,-0.1135396286845207,-0.1077147871255874,0.0575930335955734,0.0654069338712552,0.7825101461686212,10.999107360839844,-22.72460174560547,-29.716094970703125,0.0581309795379638,1013.6727142333984
4.065385498046875,0.6077396836668253,0.7928754479177296,0.7526841611742973,0.3841554522514343,-0.1235536411404609,-0.1127731949090957,0.0617096519060801,0.064308324480856,0.7811156623680848,10.56822395324707,-23.04450225830078,-29.732574462890625,0.0581309795379638,1013.6727142333984
4.075454345703125,0.6512021741006523,0.729946551926434,1.1752286054879426,0.3094028830528259,-0.1288950592279434,-0.1025661677122116,0.0651415159671145,0.063104987203034,0.7797980436498775,10.445371627807615,-23.398338317871094,-29.068328857421875,0.0581309795379638,1013.6727142333984
4.0855234375,0.6447051402315497,0.7934693952228874,1.5208832868665456,0.206592857837677,-0.1271190047264099,-0.066171146929264,0.0676878864003401,0.0618808809344451,0.7787721524037023,10.314193725585938,-23.43677520751953,-28.78329467773437,0.0581309795379638,1013.6727142333984
4.09559228515625,0.6289436536066234,0.9054352207794784,1.714843431955576,0.0978709086775779,-0.1216978654265403,-0.0065661389380693,0.0691905285331596,0.0606510822874799,0.778292747411357,10.340368270874023,-23.5560302734375,-28.467498779296875,0.0581309795379638,1013.6727142333984
4.105661376953125,0.6224516612388193,0.9908554231073706,1.6970669522464277,0.0028447918593883,-0.1001507639884948,0.0652262941002845,0.0696929438304357,0.0595098277609564,0.7785430026432012,10.245119094848633,-23.513206481933597,-28.94735717773437,0.0581309795379638,1013.6727142333984
4.115729248046875,0.6230700123328715,1.183498348117992,1.486976925611496,-0.0572028271853923,-0.0847877413034439,0.1524612307548523,0.0694389785088961,0.0585107890389543,0.7796398248043854,9.85890769958496,-23.343040466308597,-28.665679931640625,0.0581309795379638,1013.6727142333984
4.12579833984375,0.5452031479939818,1.309803518541902,1.211597557464242,-0.0597685165703296,-0.0637306571006774,0.2554835081100464,0.0689353671327267,0.057610474205881,0.7817348005026932,9.814123153686523,-23.34662628173828,-28.65853881835937,0.0581309795379638,1013.6727142333984
4.135867431640625,0.4955441410075872,1.3695365411013365,1.0059943208545443,0.0057821832597255,-0.0728930756449699,0.3620443940162658,0.0688005290611068,0.056703947304537,0.784853455413753,9.616056442260742,-23.46381378173828,-28.585418701171875,0.0581309795379638,1013.6727142333984
4.145936279296875,0.3079087419606745,1.2970942590944468,0.7643009492099284,0.1123363226652145,-0.0594584867358207,0.4700145423412323,0.0696246747689825,0.0557409882626196,0.7890040504919242,9.401172637939451,-23.47460174560547,-28.698455810546875,0.0581309795379638,1013.6727142333984
4.15600537109375,0.3396282241633162,1.3440546015813946,0.8079986366391182,0.2102520763874054,-0.0287723671644926,0.5460808873176575,0.0715494460229979,0.0549369228999633,0.7940801780458031,8.870475769042969,-23.40962219238281,-28.354156494140625,0.0581309795379638,1013.6727142333984
4.16607421875,0.4156683845316991,1.4400769350096585,0.9536778581619262,0.2597341537475586,-0.0294983461499214,0.5685915350914001,0.0742528283343936,0.0542557226177617,0.799580803869537,8.72353744506836,-23.489410400390625,-28.118927001953125,0.0581309795379638,1013.6727142333984
4.1761435546875,0.4487563786085695,1.4257383207947014,0.999501451703906,0.2549481093883514,-0.0414370559155941,0.561876654624939,0.0771783582309649,0.0534842762576805,0.8051454734752622,8.212919235229492,-23.685104370117188,-28.134185791015625,0.0581309795379638,1013.6727142333984
4.18621240234375,0.5665646831156685,1.3379641757518053,0.9468588257968426,0.1988454163074493,-0.0865739062428474,0.5346850156784058,0.0797868190674244,0.052448428546928,0.810563253145803,8.140336990356445,-23.576210021972656,-28.473602294921875,0.0581309795379638,1013.6727142333984
4.19628125,0.6259190450884401,1.3475940277539191,0.7913625591367482,0.1080198660492897,-0.1590101569890976,0.4768616259098053,0.0816139746568875,0.0508211544672352,0.8155915857314454,7.944751262664795,-23.83365631103516,-28.026580810546875,0.0581309795379638,1013.6727142333984
4.206350341796875,0.5581957544274628,1.4924335835821925,0.5589397046625614,-0.009197037667036,-0.231506198644638,0.3924956023693084,0.0823325716604469,0.0484723371980656,0.819956920798995,7.690261363983154,-23.727928161621094,-27.856109619140625,0.0581309795379638,1013.6727142333984
4.216418212890625,0.5430547377884387,1.6178529841475189,0.3120768214255571,-0.1080551296472549,-0.2838686406612396,0.3084474205970764,0.0818909353919403,0.0455765864317957,0.8235145936443015,7.298418521881103,-23.85773468017578,-27.728668212890625,0.0581309795379638,1013.6727142333984
4.226487548828125,0.4875862773383036,1.6708303949669003,0.0534235471516847,-0.1694308817386627,-0.3279759287834167,0.2374531477689743,0.0805749236434704,0.0422723852768571,0.8263211909542036,7.080694675445557,-23.819602966308597,-27.58993530273437,0.0581309795379638,1013.6727142333984
4.23655615234375,0.4109575764922425,1.6259227472260591,-0.1857756695896387,-0.1845375299453735,-0.3455542325973511,0.1827394068241119,0.0788435053358903,0.0386986889678553,0.8285059996618127,6.715274333953857,-24.011253356933597,-27.500152587890625,0.0581309795379638,1013.6727142333984
4.246625244140625,0.3394689054157584,1.667058182951808,-0.3085387104272842,-0.1635132133960724,-0.3496254086494446,0.1279275566339492,0.0771124796542636,0.0350599735151508,0.8301432756122179,6.42930269241333,-23.825347900390625,-27.427032470703125,0.0581309795379638,1013.6727142333984
4.256694580078125,0.2451151262542232,1.788007452365756,-0.3478162433266639,-0.114951804280281,-0.3266512751579284,0.0814332142472267,0.0757394738149143,0.0315431184856648,0.8312347750925464,6.294304370880127,-23.587196350097656,-27.561004638671875,0.0581309795379638,1013.6727142333984
4.26676318359375,0.162531937450543,1.87105836827904,-0.2531634446859359,-0.0684620663523674,-0.2790738940238952,0.0464693717658519,0.0748368472456571,0.0284316285337008,0.831898592348733,6.155683994293213,-23.44599151611328,-27.376007080078125,0.0581309795379638,1013.6727142333984
4.27683251953125,0.1350983706724829,1.8817185862421988,-0.087992756229639,-0.023607924580574,-0.2298536002635955,0.025420743972063,0.0743814856258297,0.0258489241241106,0.8322659628757949,5.901655673980713,-23.31256103515625,-27.371978759765625,0.0581309795379638,1013.6727142333984
4.286901123046875,0.1312614411244168,1.8551098346494137,0.0205669872105121,0.0247414968907833,-0.1978770196437835,0.0130338491871953,0.0743842304706951,0.0236853266853822,0.8324562474316447,5.8377299308776855,-23.227569580078125,-26.998321533203125,0.0581309795379638,1013.6727142333984
4.296970458984375,0.1091579467953182,1.8292526320762927,0.0774409670770168,0.0864714384078979,-0.1744750887155532,0.0019799573346972,0.0749381554182,0.0218146241473112,0.8325265301209002,5.651142597198486,-23.19775390625,-26.748687744140625,0.0581309795379638,1013.6727142333984
4.307039306640625,0.033956374409236,1.7871305234007535,0.2206909156262874,0.1533684432506561,-0.1568878293037414,-0.0072638746351003,0.0761394820056318,0.0201720475709785,0.832454634605126,5.225827693939209,-23.26898956298828,-27.184844970703125,0.0581309795379638,1013.6727142333984
