time,seconds_elapsed,z,y,x
1738005551841528800,0.02852880859375,-0.0019640319515019655,-0.006815110333263874,-0.001210932619869709
1738005551851597800,0.038597900390625,-0.0006700023077428341,-0.007384227588772774,0.0018144184723496437
1738005551861666800,0.048666748046875,-0.0018498131539672613,-0.004890178795903921,0.0009806444868445396
1738005551871734800,0.05873486328125,0.0020312112756073475,-0.0009827888570725918,0.0010379021987318993
1738005551881803800,0.0688037109375,0.0018897615373134613,0.0024867006577551365,-0.001262729987502098
1738005551891872800,0.078872802734375,0.003371278289705515,0.006179440300911665,-0.0028771385550498962
1738005551901940700,0.088940673828125,0.004174545872956514,0.0027271173894405365,0.0010828645899891853
1738005551912010000,0.099010009765625,0.006836375687271357,0.0031979642808437347,-0.002374451607465744
1738005551922078700,0.10907861328125,0.005431240424513817,-0.0010367827489972115,-0.0010164044797420502
1738005551932146700,0.119146728515625,0.0053891632705926895,0.0006290245801210403,0.0004933411255478859
1738005551942216000,0.1292158203125,0.005022560246288776,0.0008469321765005589,0.0026665208861231804
1738005551952285000,0.139284912109375,0.0009977249428629875,-0.0019464576616883278,0.0028888946399092674
1738005551962352600,0.1493525390625,-0.0038115293718874454,0.00663091940805316,-0.0008262461051344872
1738005551972422000,0.159421875,-0.0040517463348805904,0.0009069871157407761,0.0008171899244189262
1738005551982491000,0.169490966796875,-0.006368519738316536,-0.000686050858348608,0.0006525209173560143
1738005551992558800,0.179558837890625,-0.007488378789275885,-0.002915116725489497,0.0019063372164964676
1738005552002627800,0.1896279296875,-0.008967137895524502,-0.003738223575055599,0.00033673737198114395
1738005552012697000,0.199697021484375,-0.007907998748123646,-0.005378464702516794,0.0008501950651407242
1738005552022764800,0.209764892578125,-0.007058310322463512,-0.0006929785013198853,-0.00013784319162368774
1738005552032833800,0.219833740234375,-0.0026699535083025694,-0.0007536984048783779,0.0014051925390958786
1738005552042903000,0.229903076171875,-0.00015504565089941025,0.0014589838683605194,-0.0005675824359059334
1738005552052971000,0.239970947265625,0.003203200176358223,0.0022890912368893623,-0.00029434263706207275
1738005552063039700,0.250039794921875,0.0033700959756970406,0.001641015987843275,0.00009411852806806564
1738005552073109000,0.26010888671875,0.006489989347755909,0.0011965343728661537,0.0017572622746229172
1738005552083177000,0.270177001953125,0.008311174809932709,-0.0009085629135370255,-0.001188959926366806
1738005552093246000,0.280245849609375,0.006699430290609598,-0.0028697147499769926,-0.0019519571214914322
1738005552103315000,0.29031494140625,0.007377178408205509,-0.001042715273797512,-0.0011470941826701164
1738005552113383000,0.3003828125,0.00605678278952837,-0.0014448524452745914,-0.0026158271357417107
1738005552123452000,0.310451904296875,0.004108251538127661,0.0004576900973916054,0.0011760285124182701
1738005552133521000,0.32052099609375,0.0034437919966876507,0.0031011439859867096,0.0009571164846420288
1738005552143588900,0.3305888671875,-0.00014859531074762344,0.002702612429857254,0.003365788608789444
1738005552153657900,0.340657958984375,-0.003003237769007683,0.000800582580268383,0.0014672214165329933
1738005552163726800,0.350726806640625,-0.003411734476685524,0.0036421790719032288,0.00016567204147577286
1738005552173795000,0.360795166015625,-0.004180855583399534,0.002531907521188259,-0.0003733513876795769
1738005552183863800,0.37086376953125,-0.009156700223684311,0.0042188274674117565,0.001763027161359787
1738005552193932800,0.380932861328125,-0.008236312307417393,0.004804722499102354,-0.0005446020513772964
1738005552204001000,0.3910009765625,-0.006314340513199568,0.0048744953237473965,0.00029995013028383255
1738005552214069800,0.40106982421875,-0.005917529575526714,0.0016494067385792732,-0.0004976661875844002
1738005552224139000,0.411138916015625,-0.0043193986639380455,-0.0029195158276706934,0.0006041452288627625
1738005552234207000,0.42120703125,-0.0014029708690941334,-0.004205556586384773,0.00020919926464557648
1738005552244275700,0.431275634765625,-0.0025526254903525114,-0.0063608488999307156,0.0054632872343063354
1738005552254345000,0.441344970703125,0.0016341302543878555,-0.004307818133383989,-0.0022100796923041344
1738005552264413000,0.451412841796875,0.0012049502693116665,-0.00038158148527145386,0.0016917400062084198
1738005552274481700,0.461481689453125,0.0025474498979747295,0.0017249789088964462,-0.0009703552350401878
1738005552284551000,0.471551025390625,0.005987319629639387,0.001529413741081953,-0.0014454694464802742
1738005552294619000,0.481618896484375,0.004991563502699137,0.004066873341798782,-0.002010325901210308
1738005552304687900,0.49168798828125,0.006981452461332083,0.001762246247380972,-0.004675829783082008
1738005552314756900,0.5017568359375,0.0073843891732394695,0.001917774323374033,-0.0011455435305833817
1738005552324824800,0.511824951171875,0.005500187166035175,-0.0006895079277455807,0.0009344229474663734
1738005552334893800,0.521893798828125,0.004226130433380604,0.0003712293691933155,-0.0005947640165686607
1738005552344962800,0.531962890625,0.005210547707974911,-0.00021780282258987427,0.0032309070229530334
1738005552355030800,0.54203076171875,-0.00010325759649276733,0.00007221521809697151,0.0019680364057421684
1738005552365100300,0.552100341796875,-0.005084935110062361,-0.0011443132534623146,0.0032617375254631042
1738005552375169300,0.562169189453125,-0.007478584535419941,0.00007221847772598267,-0.0009649666026234627
1738005552385237500,0.572237548828125,-0.007657692767679691,0.0011912165209650993,0.0001408010721206665
1738005552395306200,0.58230615234375,-0.0076651498675346375,-0.0006266571581363678,0.0008441414684057236
1738005552405375500,0.59237548828125,-0.007194645702838898,-0.0018683779053390026,-0.0003799712285399437
1738005552415443500,0.602443359375,-0.006253750529140234,-0.004318485967814922,-0.0015506977215409279
1738005552425512200,0.61251220703125,-0.002846407238394022,-0.00148757454007864,0.0010619089007377625
1738005552435581400,0.62258154296875,-0.0005196034908294678,0.002044842578470707,0.0015018638223409653
1738005552445649400,0.6326494140625,-0.00010073836892843246,0.003491385839879513,0.0006836177781224251
1738005552455718400,0.642718505859375,0.003497458528727293,-0.0030061942525207996,0.0021659331396222115
1738005552465787400,0.652787353515625,0.004634724464267492,-0.0008115782402455807,0.0020285677164793015
1738005552475855400,0.66285546875,0.005529280286282301,0.0025517279282212257,-0.0004066266119480133
1738005552485924600,0.672924560546875,0.005626922007650137,0.00023247580975294113,0.001212521456182003
1738005552495993300,0.682993408203125,0.005724127870053053,0.0007315524853765965,-0.00009722169488668442
1738005552506061300,0.693061279296875,0.006996041629463434,-0.0022843596525490284,-0.0013619409874081612
1738005552516130600,0.703130615234375,0.0033682831563055515,0.0017700367607176304,0.0007033413276076317
1738005552526199300,0.71319921875,0.0014485274441540241,0.0007272744551301003,-0.0002205371856689453
1738005552536267300,0.723267333984375,0.0008767466060817242,0.000490252859890461,-0.00038884952664375305
1738005552546336500,0.73333642578125,-0.0014300504699349403,0.0016050566919147968,0.0017122440040111542
1738005552556405200,0.7434052734375,-0.00410626083612442,0.0001954454928636551,-0.0011911336332559586
1738005552566473500,0.753473388671875,-0.004406848456710577,0.0021529956720769405,0.0009291199967265129
1738005552576542500,0.76354248046875,-0.004961584694683552,0.0036379736848175526,0.00009927898645401001
1738005552586611200,0.773611083984375,-0.006734210532158613,0.0013847448863089085,0.0016160523518919945
1738005552596679400,0.783679443359375,-0.008300415240228176,-0.004844388924539089,0.0010144440457224846
1738005552606748400,0.79374853515625,-0.007405378855764866,-0.005119883455336094,0.0003229361027479172
1738005552616817400,0.8038173828125,-0.00631667859852314,-0.006351595278829336,0.001958383247256279
1738005552626885400,0.813885498046875,-0.002326315501704812,-0.006587416399270296,-0.002399217337369919
1738005552636954400,0.823954345703125,-0.0005803471431136131,-0.0036384982522577047,0.0034240512177348137
1738005552647023400,0.8340234375,0.00010623596608638763,-0.0008870665915310383,-0.00020314939320087433
1738005552657091300,0.84409130859375,0.0035398495383560658,0.001413105521351099,0.00045252032577991486
1738005552667160300,0.854160400390625,0.005378521513193846,0.00420269463211298,-0.0007883002981543541
1738005552677229300,0.864229248046875,0.006481069605797529,0.00258082989603281,-0.0016753999516367912
1738005552687297300,0.87429736328125,0.008613737300038338,0.001065034419298172,-0.002365635707974434
1738005552697366500,0.884366455078125,0.009239845909178257,0.0023137908428907394,-0.0007621478289365768
1738005552707435300,0.894435302734375,0.00579819455742836,-0.003961999900639057,0.0011474676430225372
1738005552717503200,0.904503173828125,0.0035821786150336266,-0.0032400169875472784,-0.0012701507657766342
1738005552727572500,0.914572509765625,0.003246231935918331,-0.002111040987074375,0.0005264636129140854
1738005552737641200,0.92464111328125,-0.0010694207157939672,0.0014022011309862137,-0.0008354764431715012
1738005552747709200,0.934709228515625,-0.004194886423647404,0.0012846100144088268,0.0019322941079735756
1738005552757778400,0.9447783203125,-0.0015394485089927912,0.003931791987270117,0.0018854225054383278
1738005552767847400,0.954847412109375,-0.004693066701292992,0.002832982689142227,0.0016263741999864578
1738005552777915400,0.964915283203125,-0.005639820359647274,-0.0014642938040196896,0.0022436948493123055
1738005552787984400,0.974984375,-0.010325856506824493,-0.005182061344385147,0.003448382019996643
1738005552798053400,0.985053466796875,-0.010020657442510128,-0.004832121543586254,0.000006246380507946014
1738005552808121300,0.995121337890625,-0.008321975357830524,-0.0031355563551187515,0.00020974315702915192
1738005552818190300,1.0051904296875,-0.006651907227933407,-0.0007980996742844582,0.000057676807045936584
1738005552828259600,1.015259521484375,-0.006220326758921146,0.00019219797104597092,0.0018669972196221352
1738005552838327300,1.025327392578125,0.0001241220161318779,0.003879610449075699,-0.0011927084997296333
1738005552848396300,1.035396240234375,0.0005211676470935345,0.0016422858461737633,-0.001996387727558613
1738005552858465500,1.045465576171875,0.005897024180740118,0.0003908667713403702,0.002431650646030903
1738005552868533200,1.055533203125,0.0035330811515450478,-0.003598487004637718,0.00006274599581956863
1738005552878602200,1.065602294921875,0.005848167464137077,-0.001508171670138836,0.0004726061597466469
1738005552888671500,1.07567138671875,0.006678724195808172,-0.0022246195003390312,-0.002215201035141945
1738005552898739500,1.085739501953125,0.004923701751977205,0.0012204456143081188,0.000018658116459846497
1738005552908808400,1.095808349609375,0.005246712360531092,0.0005951342172920704,0.0009737974032759666
1738005552918877400,1.10587744140625,0.002746802754700184,0.003923020325601101,-0.0012129247188568115
1738005552928945400,1.1159453125,0.0016100797802209854,0.001305337529629469,-0.0004228772595524788
1738005552939014400,1.126014404296875,-0.0020847897976636887,0.001486165914684534,0.00020403042435646057
1738005552949083400,1.13608349609375,-0.0025693965144455433,-0.001803504303097725,-0.0005576871335506439
1738005552959151400,1.1461513671875,-0.002550754463300109,-0.0012253322638571262,0.0020258454605937004
1738005552969220400,1.156220458984375,-0.006217369809746742,-0.002468103775754571,0.0015390478074550629
1738005552979289300,1.166289306640625,-0.004761419724673033,0.0022084065712988377,0.002322816289961338
1738005552989358300,1.1763583984375,-0.0039235553704202175,0.0025227335281670094,0.001220855861902237
1738005552999426300,1.18642626953125,-0.0030702785588800907,0.006215472240000963,-0.0014175372198224068
1738005553009495300,1.196495361328125,-0.00357293663546443,0.0032580960541963577,-0.0001801811158657074
1738005553019564300,1.206564208984375,-0.003435783786699176,-0.0009984346106648445,0.0016813687980175018
1738005553029632300,1.21663232421875,-0.004022269509732723,-0.005013012792915106,0.0030849091708660126
1738005553039701500,1.226701416015625,0.002754409797489643,-0.003575970884412527,0.0005349321290850639
1738005553049770200,1.236770263671875,0.0031295614317059517,-0.005191842559725046,0.0008546793833374977
1738005553059838200,1.246838134765625,0.0016906559467315674,-0.0014437097124755383,-0.0005685137584805489
1738005553069907500,1.256907470703125,0.0021609622053802013,-0.0018516522832214832,0.0031148064881563187
1738005553079976400,1.2669765625,0.0041431523859500885,0.003718082793056965,0.0023209182545542717
1738005553090044200,1.277044189453125,0.006953234318643808,0.003330197650939226,-0.0021004071459174156
1738005553100113400,1.287113525390625,0.0045049902983009815,0.002654553856700659,0.0009286720305681229
1738005553110182400,1.297182373046875,0.0035429666750133038,-0.00009855767711997032,0.0013333223760128021
1738005553120250400,1.30725048828125,0.002667852211743593,-0.000026652123779058456,0.00003769434988498688
1738005553130319400,1.3173193359375,0.001886012963950634,0.0004922072403132915,-0.0030647534877061844
1738005553140388400,1.327388427734375,0.0005230070091784,-0.00025401031598448753,0.0021411944180727005
1738005553150456300,1.337456298828125,-0.0012352422345429659,-0.00004042685031890869,0.0022027064114809036
1738005553160525300,1.347525390625,-0.001857622992247343,0.0017723864875733852,0.0027246857061982155
1738005553170594600,1.357594482421875,-0.0018893450032919645,0.0013038734905421734,-0.00020625442266464233
1738005553180662300,1.367662353515625,-0.004034255165606737,0.0013017430901527405,-0.001058465801179409
1738005553190731300,1.377731201171875,-0.005155148915946484,0.0007976698689162731,0.005678318440914154
1738005553200800500,1.387800537109375,-0.004321845714002848,-0.0032774994615465403,-0.0009702639654278755
1738005553210868500,1.397868408203125,-0.00040270760655403137,-0.001542912796139717,-0.0013222694396972656
1738005553220937200,1.407937255859375,-0.0010935314930975437,-0.003163446206599474,-0.0013803262263536453
1738005553231006500,1.41800634765625,-0.0007042079232633114,0.0005052546039223671,0.0005806330591440201
1738005553241075200,1.4280751953125,0.0008441540412604809,-0.000048150308430194855,-0.0004635928198695183
1738005553251143400,1.438143310546875,0.003948719706386328,-0.001248965971171856,0.001977289095520973
1738005553261212400,1.44821240234375,0.0038874675519764423,-0.000035363249480724335,0.0024012643843889236
1738005553271281400,1.458281494140625,0.0037674172781407833,-0.003255990566685796,0.0016205944120883942
1738005553281349400,1.468349365234375,0.00519300764426589,-0.002257837913930416,-0.0019379211589694023
1738005553291418400,1.47841845703125,0.0038210065104067326,-0.0009910385124385357,0.0013528745621442795
1738005553301487400,1.4884873046875,-0.0005465778522193432,-0.0013633486814796925,0.0016546109691262245
1738005553311555300,1.498555419921875,0.0021661175414919853,0.001482703723013401,-0.0007963124662637711
1738005553321624300,1.508624267578125,0.0013879421167075634,0.0012222463265061378,-0.001164361834526062
1738005553331693300,1.518693359375,-0.0012302703689783812,0.001947491429746151,-0.0020179152488708496
1738005553341761300,1.52876123046875,0.0007258215919137001,0.0015719858929514885,-0.001334547996520996
1738005553351830500,1.53883056640625,-0.0017344956286251545,-0.0040970188565552235,0.0015441663563251495
1738005553361899300,1.548899169921875,-0.0005603078752756119,-0.0027076476253569126,-0.001927797682583332
1738005553371967200,1.55896728515625,-0.0016296554822474718,-0.004382641986012459,0.0008326983079314232
1738005553382036500,1.569036376953125,-0.0026192860677838326,-0.0050407093949615955,0.0007381560280919075
1738005553392105200,1.579105224609375,-0.0010936800390481949,-0.00009581679478287697,-0.001863451674580574
1738005553402174500,1.589174560546875,0.0014078272506594658,0.0003673071041703224,-0.0010469257831573486
1738005553412242400,1.599242431640625,0.0015719668008387089,0.0014697220176458359,-0.000059536658227443695
1738005553422311400,1.6093115234375,0.0005130940116941929,0.0007354887202382088,0.0009521981701254845
1738005553432380400,1.61938037109375,-0.00015705404803156853,0.0012793010100722313,0.0012842034921050072
1738005553442448400,1.629448486328125,-0.0012769130989909172,-0.0036643247585743666,0.002667982131242752
1738005553452517400,1.639517333984375,-0.0018004863522946835,-0.0008038869127631187,0.0011174976825714111
1738005553462586400,1.64958642578125,-0.002152822446078062,-0.00452458905056119,0.0019209738820791245
1738005553472654300,1.659654296875,-0.00024203024804592133,-0.0019509750418365002,-0.001291622407734394
1738005553482723600,1.6697236328125,-0.004046888556331396,-0.002900392049923539,0.00029775314033031464
1738005553492792300,1.679792236328125,-0.0012171983253210783,0.005108593963086605,0.000047137029469013214
1738005553502860300,1.6898603515625,-0.0018963043112307787,0.0022962959483265877,0.0018514292314648628
1738005553512929500,1.699929443359375,-0.0012241748627275229,0.003322083968669176,0.0006052087992429733
1738005553522998300,1.709998291015625,0.0025774873793125153,-0.0006923647597432137,0.0015919096767902374
1738005553533066200,1.720066162109375,0.0006711892783641815,-0.0020515145733952522,0.0020667286589741707
1738005553543135500,1.730135498046875,0.0012490949593484402,-0.0030954733956605196,-0.0017136279493570328
1738005553553204200,1.740204345703125,0.0036226585507392883,-0.0002275104634463787,0.0010595116764307022
1738005553563273500,1.7502734375,0.0022788280621170998,-0.002054705284535885,-0.0010505104437470436
1738005553573341400,1.760341552734375,0.0027733738534152508,-0.0005102739669382572,0.0017857439815998077
1738005553583410200,1.77041015625,-0.0005395985208451748,0.0008751023560762405,-0.0009043151512742043
1738005553593479400,1.7804794921875,0.0018307059071958065,0.003368488047271967,-0.0006900997832417488
1738005553603547400,1.79054736328125,-0.0010638837702572346,0.0002054516226053238,0.0036330092698335648
1738005553613616400,1.800616455078125,-0.0029610884375870228,0.0016363030299544334,-0.0007543349638581276
1738005553623685400,1.810685302734375,-0.0041304826736450195,-0.002978954929858446,0.0014118803665041924
1738005553633753300,1.82075341796875,-0.005847926717251539,-0.0030977330170571804,-0.00044946838170289993
1738005553643822300,1.830822265625,-0.0023176404647529125,-0.0024050448555499315,-0.002292109653353691
1738005553653891300,1.840891357421875,-0.006102350074797869,0.003063622396439314,0.0016300985589623451
1738005553663959300,1.850959228515625,-0.0023611413780599833,0.0036138310097157955,0.003024529665708542
1738005553674028300,1.8610283203125,-0.0024684439413249493,0.0014580623246729374,0.0005642259493470192
1738005553684097300,1.87109716796875,-0.003132103942334652,0.0028314548544585705,0.0007623657584190369
1738005553694166500,1.88116650390625,-0.001866890350356698,-0.0008583511225879192,0.0007603634148836136
1738005553704234200,1.891234130859375,0.00009346241131424904,-0.0038956862408667803,0.0006698155775666237
1738005553714303200,1.90130322265625,-0.0005518211983144283,-0.0022919306065887213,-0.00038133375346660614
1738005553724372500,1.91137255859375,0.0019041458144783974,-0.0020072385668754578,-0.0007035760208964348
1738005553734440400,1.9214404296875,0.00497837970033288,-0.0017322679050266743,-0.001410144381225109
1738005553744509400,1.931509521484375,0.002298707142472267,0.0010475395247340202,-0.002219744957983494
1738005553754578400,1.941578369140625,0.0015444755554199219,-0.00013523269444704056,0.0008392352610826492
1738005553764646400,1.951646484375,0.002343956846743822,0.0030549676157534122,0.002384134568274021
1738005553774715400,1.96171533203125,0.0022107032127678394,-0.0013592932373285294,0.0006873272359371185
1738005553784784400,1.971784423828125,0.00020587537437677383,-0.0009196051396429539,-0.0001427801325917244
1738005553794852400,1.981852294921875,0.0005117128603160381,-0.001996065955609083,-0.0016075102612376213
1738005553804921300,1.99192138671875,-0.00011732615530490875,0.0000052996911108493805,0.0019129235297441483
1738005553814990300,2.001990234375,-0.0021781325340270996,0.004398189950734377,-0.002471309155225754
1738005553825059300,2.012059326171875,-0.0033158347941935062,0.0071814595721662045,-0.0008513089269399643
1738005553835127300,2.022127197265625,-0.0015087542124092579,0.0033151553943753242,0.0037613296881318092
1738005553845196500,2.032196533203125,-0.0013018266763538122,-0.00047958316281437874,0.002435874193906784
1738005553855265300,2.042265380859375,-0.0021731264423578978,-0.0008583525195717812,0.003343830816447735
1738005553865333200,2.052333251953125,-0.0015944214537739754,-0.002646132605150342,0.0023179808631539345
1738005553875402500,2.062402587890625,0.0005845492705702782,-0.005046704318374395,0.001953459344804287
1738005553885471200,2.07247119140625,0.0013805683702230453,-0.0033635867293924093,0.0015475936233997345
1738005553895539200,2.082539306640625,-0.0005321004427969456,0.0005599013529717922,-0.0011843647807836533
1738005553905608400,2.0926083984375,-0.00023063039407134056,0.0019844258204102516,-0.0004527950659394264
1738005553915677200,2.10267724609375,-0.00019602850079536438,0.004791341256350279,0.0001361072063446045
1738005553925746400,2.112746337890625,-0.001747053349390626,0.00401529623195529,0.0035761119797825813
1738005553935814400,2.122814453125,-0.0019047914538532495,0.0010918858461081982,0.001468690112233162
1738005553945883400,2.13288330078125,-0.0018304891418665648,-0.0009305188432335854,0.0015661614015698433
1738005553955952400,2.142952392578125,-0.0018885869067162275,-0.0002573477104306221,0.001215452328324318
1738005553966020400,2.153020263671875,0.0012187897227704525,-0.005786336492747068,-0.0010716700926423073
1738005553976089600,2.163089599609375,-0.0003196587786078453,-0.0013101613149046898,-0.003484876826405525
1738005553986158300,2.173158447265625,-0.00021153409034013748,0.0004168986342847347,-0.00014953408390283585
1738005553996226300,2.183226318359375,0.0011041532270610332,0.003715421073138714,-0.0026395050808787346
1738005554006295600,2.193295654296875,-0.00002742372453212738,0.0035686809569597244,-0.0019590677693486214
1738005554016364300,2.2033642578125,0.001551399938762188,0.0009127212688326836,0.0006464226171374321
1738005554026433500,2.21343359375,0.00010823272168636322,0.004396668169647455,0.00037078559398651123
1738005554036501500,2.22350146484375,0.0013566273264586926,-0.0020820749923586845,-0.00023172888904809952
1738005554046570200,2.2335703125,0.002007237635552883,-0.0029832888394594193,0.0013051806017756462
1738005554056639500,2.243639404296875,0.0030136327259242535,-0.0020132451318204403,0.0021973159164190292
1738005554066707500,2.25370751953125,0.0024160188622772694,0.001848071813583374,-0.0025870520621538162
1738005554076776200,2.263776123046875,0.004853154998272657,0.0020488910377025604,0.0016329111531376839
1738005554086845400,2.273845458984375,0.0019228793680667877,0.003177804872393608,0.0001721670851111412
1738005554096913400,2.283913330078125,0.0013382555916905403,0.004406122025102377,0.0031723352149128914
1738005554106982400,2.293982421875,-0.000968308188021183,0.0015935571864247322,0.0003925282508134842
1738005554117051400,2.304051513671875,-0.0007647066377103329,0.0014414791949093342,-0.001106887124478817
1738005554127119400,2.314119384765625,-0.0013418139424175024,-0.005030268337577581,-0.0008674683049321175
1738005554137188400,2.324188232421875,-0.00207751477137208,-0.000206739641726017,-0.000330519862473011
1738005554147257300,2.33425732421875,0.00023810379207134247,-0.0025495223235338926,0.001383223570883274
1738005554157326300,2.344326416015625,-0.0004176306538283825,-0.0005672029219567776,0.0013772044330835342
1738005554167394300,2.354394287109375,0.0009826594032347202,0.0017572040669620037,-0.000011900439858436584
1738005554177463300,2.36446337890625,0.0012975092977285385,0.0007767658680677414,-0.001355571672320366
1738005554187532500,2.374532470703125,0.0010354542173445225,0.002166935708373785,0.001196536235511303
1738005554197600300,2.384600341796875,0.00015076808631420135,0.0028301835991442204,0.0008787335827946663
1738005554207669200,2.394669189453125,0.0016834172420203686,0.0002557053230702877,0.0005034934729337692
1738005554217738500,2.404738525390625,0.0018916563130915165,-0.0009598191827535629,0.0010331394150853157
1738005554227806200,2.41480615234375,-0.002099090488627553,-0.0021068425849080086,0.00029730796813964844
1738005554237875500,2.42487548828125,0.0023039458319544792,-0.0018911906518042088,0.002184877172112465
1738005554247944400,2.4349443359375,0.0013915468007326126,-0.001017940230667591,0.0020724916830658913
1738005554258013200,2.44501318359375,0.00005481904372572899,0.00245196046307683,-0.0017283214256167412
1738005554268081400,2.455081298828125,-0.00045570870861411095,0.00008254591375589371,0.0002618590369820595
1738005554278150400,2.465150390625,-0.0023238826543092728,0.002621471881866455,-0.0005401242524385452
1738005554288219400,2.475219482421875,-0.00005513569340109825,0.0022209323942661285,-0.0013521220535039902
1738005554298287400,2.485287353515625,0.0006705909036099911,0.0014589251950383186,0.001407550647854805
1738005554308356400,2.4953564453125,-0.00047616614028811455,-0.0006401785649359226,-0.0007607955485582352
1738005554318425300,2.50542529296875,0.00042683444917201996,0.000030881259590387344,0.00018729176372289658
1738005554328493300,2.515493408203125,-0.0009292471222579479,0.0008809627033770084,0.0004229815676808357
1738005554338562300,2.525562255859375,0.0007538194768130779,0.0007097022607922554,-0.001162067987024784
1738005554348631300,2.53563134765625,0.000010797753930091858,0.0036285268142819405,0.00024754274636507034
1738005554358700300,2.5457001953125,0.001912662759423256,0.0036080987192690372,-0.0003436850383877754
1738005554368768000,2.55576806640625,0.00028387317433953285,0.0032967752777040005,-0.0020036334171891212
1738005554378837000,2.5658369140625,0.0024414598010480404,0.0021158019080758095,-0.0008607180789113045
1738005554388906000,2.575906005859375,0.0015327893197536469,0.004652196541428566,-0.002626660279929638
1738005554398974000,2.585973876953125,0.002199571579694748,0.004557389300316572,-0.0033674882724881172
1738005554409043000,2.59604296875,0.001891976222395897,0.0038777501322329044,-0.003242320381104946
1738005554419112000,2.60611181640625,0.001005010213702917,0.009914605878293514,-0.004331691190600395
1738005554429180000,2.616179931640625,0.0005368264392018318,0.005336099304258823,-0.003728484734892845
1738005554439249000,2.626248779296875,-0.00020750891417264938,0.008340874686837196,-0.0034539559856057167
1738005554449318000,2.63631787109375,0.0015110289677977562,0.0039032488130033016,-0.003200155682861805
1738005554459387000,2.646386962890625,-0.001024696510285139,0.0051089925691485405,0.0006988802924752235
1738005554469455000,2.656455078125,-0.0019160564988851547,-0.0032823618967086077,0.0022906512022018433
1738005554479523800,2.66652392578125,-0.0007263687439262867,-0.00025801267474889755,0.0022949660196900368
1738005554489592800,2.6765927734375,-0.002845712471753359,0.003298106137663126,0.0008022645488381386
1738005554499661000,2.6866611328125,-0.0012380352709442377,-0.0005014184862375259,0.0017495406791567802
1738005554509729800,2.696729736328125,-0.0014220597222447395,-0.005451169330626726,-0.001247580163180828
1738005554519799000,2.706799072265625,-0.00039445655420422554,0.004311177879571915,-0.003277304582297802
1738005554529867000,2.716866943359375,-0.0021372290793806314,-0.007011517882347107,0.00031316932290792465
1738005554539935700,2.726935791015625,0.0018558218143880367,0.0034817326813936234,-0.0000938568264245987
1738005554550005000,2.7370048828125,0.0030334717594087124,0.004268164746463299,-0.0012680450454354286
1738005554560073000,2.747072998046875,0.0016962578520178795,-0.004027725663036108,0.00003534555435180664
1738005554570141700,2.7571416015625,0.002328492235392332,0.0024834363721311092,-0.0012395093217492104
1738005554580211000,2.7672109375,0.0010145376436412334,0.004016369115561247,-0.001714368350803852
1738005554590280000,2.777280029296875,0.0010379734449088573,-0.006715104915201664,0.004354975186288357
1738005554600348000,2.787347900390625,0.0005367351695895195,-0.009440251626074314,0.00652630440890789
1738005554610417000,2.7974169921875,-0.003083566203713417,-0.015593752264976501,0.00838412530720234
1738005554620486100,2.807486083984375,-0.002113127615302801,-0.03805786371231079,0.016293944790959358
1738005554630553900,2.817553955078125,-0.0038380571641027927,0.008630013093352318,-0.003747674636542797
1738005554640622800,2.827622802734375,-0.003434588201344013,0.001273829024285078,-0.0025684265419840813
1738005554650692000,2.837692138671875,-0.005968852434307337,-0.004218141548335552,0.0029658880084753036
1738005554660760800,2.8477607421875,-0.007560477592051029,0.0047392649576067924,-0.0007109036669135094
1738005554670828800,2.857828857421875,0.014863339252769947,-0.003889376763254404,0.008409091271460056
1738005554680898000,2.86789794921875,0.013807334005832672,-0.007465403527021408,0.0005800472572445869
1738005554690966800,2.877966796875,0.020987482741475105,-0.016875416040420532,0.00664646178483963
1738005554701035000,2.888034912109375,0.027991972863674164,-0.012525190599262714,-0.0023192036896944046
1738005554711104000,2.89810400390625,0.03008202090859413,0.0003775586374104023,-0.0017868373543024063
1738005554721172700,2.9081728515625,0.03257962316274643,0.016115441918373108,-0.006390293128788471
1738005554731241000,2.918240966796875,0.035563960671424866,-0.027410198003053665,0.007934316992759705
1738005554741310000,2.92831005859375,0.030940737575292587,0.008620834909379482,-0.0025618085637688637
1738005554751379000,2.93837890625,0.05014319345355034,0.026579061523079872,-0.005135486833751202
1738005554761448000,2.948447998046875,0.05483606085181236,-0.016177792102098465,0.013923712074756622
1738005554771516000,2.958515869140625,0.06780565530061722,0.034968480467796326,-0.003830517642199993
1738005554781585000,2.9685849609375,0.0638490542769432,0.06259477883577347,-0.01950974389910698
1738005554791654000,2.97865380859375,0.06838228553533554,-0.041357990354299545,0.01622535102069378
1738005554801721900,2.988721923828125,0.04851480945944786,0.006975459400564432,-0.003378378227353096
1738005554811790800,2.998790771484375,0.044572800397872925,-0.011968936771154404,0.004216157831251621
1738005554821859800,3.00885986328125,0.06674540787935257,0.0023083933629095554,0.002450852654874325
1738005554831929000,3.01892919921875,0.05974395573139191,-0.0031681309919804335,0.004401618614792824
1738005554841996800,3.028996826171875,0.07995814085006714,-0.0166837889701128,0.006218516267836094
1738005554852065800,3.039065673828125,0.10731865465641022,-0.02715187519788742,0.01765679195523262
1738005554862135000,3.049135009765625,0.08387362957000732,-0.0016849366948008537,0.011699055321514606
1738005554872202800,3.05920263671875,0.07895983010530472,0.012089732103049755,-0.00949571281671524
1738005554882272000,3.06927197265625,0.058824606239795685,0.0004759333096444607,-0.005706623196601868
1738005554892341000,3.079341064453125,0.057190485298633575,0.01626448519527912,-0.00015526358038187027
1738005554902409000,3.089408935546875,0.044686198234558105,-0.010024290531873703,-0.006451004184782505
1738005554912478000,3.09947802734375,0.07713654637336731,-0.015394821763038635,-0.009018025361001492
1738005554922547000,3.109546875,0.0679982602596283,0.018575653433799744,0.004900258965790272
1738005554932616000,3.119615966796875,0.05385500565171242,-0.0036849111784249544,0.010223651304841042
1738005554942684000,3.129683837890625,0.07618813216686249,-0.030906010419130325,0.020027846097946167
1738005554952753000,3.1397529296875,0.05050460621714592,-0.02431628480553627,-0.0039986614137887955
1738005554962822000,3.14982177734375,0.052637990564107895,0.016142848879098892,0.0040053073316812515
1738005554972889900,3.159889892578125,0.06850297749042511,0.03935602307319641,-0.013295918703079224
1738005554982958800,3.169958740234375,0.05243493989109993,0.03860833868384361,-0.0076447222381830215
1738005554993027800,3.18002783203125,0.03673321008682251,0.04068214073777199,-0.0168392863124609
1738005555003096800,3.190096923828125,0.05442548170685768,0.014045877382159233,0.028328023850917816
1738005555013165000,3.2001650390625,0.056506477296352386,0.014008859172463417,-0.00016407109797000885
1738005555023233800,3.21023388671875,0.011571541428565979,-0.011633660644292831,0.007300638593733311
1738005555033303000,3.220302978515625,0.0267984326928854,0.015041625127196312,0.000010501593351364136
1738005555043371000,3.23037109375,0.07057277858257294,0.01082328800112009,0.02591557241976261
1738005555053439700,3.240439697265625,0.0410737507045269,-0.026540596038103104,0.0013540368527173996
1738005555063509000,3.250509033203125,0.07254930585622787,0.02790124900639057,-0.02145192213356495
1738005555073578000,3.260577880859375,0.08270260691642761,-0.0011138920672237873,-0.013830220326781273
1738005555083645700,3.270645751953125,0.07721471041440964,-0.002878780011087656,0.002900628373026848
1738005555093715000,3.28071484375,0.06162003427743912,-0.024173948913812637,0.0012297611683607101
1738005555103784000,3.290783935546875,0.029439575970172882,0.00884224846959114,-0.01301440317183733
1738005555113852000,3.300851806640625,0.037581924349069595,-0.006506347097456455,-0.0005316343158483505
1738005555123921000,3.3109208984375,0.0747230276465416,-0.029825706034898758,0.021176105365157127
1738005555133990000,3.320989990234375,0.03160778433084488,-0.017427358776330948,-0.0011928500607609749
1738005555144059000,3.331058837890625,0.0710233598947525,-0.012981688603758812,0.02152043767273426
1738005555154126800,3.341126953125,0.046533193439245224,0.022095605731010437,-0.014313193038105965
1738005555164196000,3.351196044921875,0.05242118611931801,-0.024947861209511757,0.013422577641904354
1738005555174264800,3.361264892578125,0.049151092767715454,0.03099743090569973,-0.016188845038414
1738005555184332800,3.371332763671875,0.04169344902038574,-0.028184989467263222,-0.023587092757225037
1738005555194402000,3.381402099609375,0.06140509992837906,0.06469301879405975,-0.03237978741526604
1738005555204470800,3.391470703125,0.02434631437063217,0.024052567780017853,-0.003924818709492683
1738005555214540000,3.4015400390625,0.0060253627598285675,-0.026495561003684998,0.008482050150632858
1738005555224608000,3.41160791015625,0.015445530414581299,-0.02942483499646187,-0.005344867706298828
1738005555234676700,3.4216767578125,0.012552272528409958,-0.004907241091132164,-0.023991789668798447
1738005555244746000,3.43174609375,0.022244049236178398,-0.07284847646951675,0.010344079695641994
1738005555254814000,3.44181396484375,0.051584094762802124,0.014922390691936016,-0.006627446040511131
1738005555264882700,3.451882568359375,0.054815296083688736,0.007786507252603769,-0.029618795961141586
1738005555274952000,3.461951904296875,0.09790390729904175,0.07026825845241547,0.042717985808849335
1738005555285021000,3.47202099609375,0.0639195665717125,-0.009731179103255272,0.006253968924283981
1738005555295089000,3.4820888671875,0.07534532248973846,-0.03566264361143112,-0.0037661753594875336
1738005555305158000,3.492157958984375,0.08294878900051117,0.11059504747390747,-0.05056452751159668
1738005555315227000,3.502226806640625,0.07640353590250015,0.027946239337325096,0.01586829498410225
1738005555325294800,3.512294921875,0.08896265178918839,0.006998519878834486,-0.010850845836102962
1738005555335363800,3.52236376953125,0.07768922299146652,0.013094495981931686,0.007927902042865753
1738005555345433000,3.53243310546875,0.05809561908245087,0.003584120888262987,-0.007652667351067066
1738005555355501800,3.542501708984375,0.07899504154920578,0.061509475111961365,-0.0013502975925803185
1738005555365569800,3.55256982421875,0.15748584270477295,-0.013390220701694489,-0.0038174744695425034
1738005555375639000,3.56263916015625,0.1429274082183838,0.025873828679323196,-0.011631455272436142
1738005555385708000,3.5727080078125,0.12069536745548248,0.045210447162389755,0.010822668671607971
1738005555395777000,3.582777099609375,0.09589041769504547,-0.024212302640080452,0.0013356907293200493
1738005555405845000,3.592844970703125,0.07139331102371216,0.039711128920316696,0.02650439739227295
1738005555415914000,3.6029140625,0.07381784915924072,0.01262704562395811,-0.013460062444210052
1738005555425983000,3.61298291015625,0.02565319649875164,-0.01827051118016243,-0.0020609768107533455
1738005555436051000,3.623051025390625,0.07143240422010422,0.023201562464237213,-0.007817932404577732
1738005555446120000,3.633119873046875,0.06733815371990204,0.034359391778707504,-0.010250991210341454
1738005555456189000,3.64318896484375,0.08076261729001999,0.0005364483222365379,-0.007483700290322304
1738005555466258200,3.653258056640625,0.0713801234960556,-0.021954016759991646,0.02235577255487442
1738005555476326000,3.663325927734375,0.07524330914020538,0.07312881946563721,-0.01263470109552145
1738005555486395000,3.673394775390625,0.04783137887716293,0.0410979725420475,-0.008939579129219055
1738005555496464100,3.683464111328125,0.047058261930942535,0.03370876610279083,0.006952834315598011
1738005555506531800,3.69353173828125,0.03043077513575554,0.0030582379549741745,-0.006618584506213665
1738005555516601000,3.70360107421875,0.014763133600354195,-0.03042435646057129,-0.006484360434114933
1738005555526670000,3.713670166015625,0.022239621728658676,-0.006327257491648197,-0.008397644385695457
1738005555536739000,3.723739013671875,0.009486807510256767,-0.045577988028526306,-0.005991213023662567
1738005555546807000,3.73380712890625,-0.011330214329063892,0.030762776732444763,0.013852018862962723
1738005555556876000,3.7438759765625,-0.006048101000487804,0.03976239636540413,-0.00722929835319519
1738005555566945000,3.753945068359375,-0.008201846852898598,-0.032554399222135544,0.005954279564321041
1738005555577013000,3.764012939453125,0.01633092574775219,-0.058429136872291565,0.025812139734625816
1738005555587082000,3.77408203125,0.025781430304050446,0.004403932951390743,0.007298563607037067
1738005555597151000,3.78415087890625,0.04217265546321869,-0.028780385851860046,0.005868978798389435
1738005555607220000,3.794219970703125,0.03296269476413727,-0.02227945625782013,0.011420567519962788
1738005555617288000,3.804287841796875,0.047928061336278915,-0.030604230239987373,0.023355789482593536
1738005555627357000,3.81435693359375,0.013597008772194386,-0.03645546734333038,0.01181358378380537
1738005555637426000,3.824426025390625,0.007238445803523064,0.014331812970340252,0.005939981900155544
1738005555647494100,3.834494140625,0.022484304383397102,-0.02960854582488537,-0.024475030601024628
1738005555657563000,3.84456298828125,-0.03372890129685402,-0.05532216280698776,0.014193002134561539
1738005555667632000,3.854632080078125,-0.033063776791095734,-0.008282937109470367,0.00400113221257925
1738005555677701000,3.864701171875,-0.00942689087241888,0.022592421621084213,0.027402328327298164
1738005555687768800,3.874768798828125,0.009846031665802002,-0.015808584168553352,0.0022310828790068626
1738005555697838000,3.884838134765625,0.03979567438364029,-0.012837294489145279,-0.002682449296116829
1738005555707907000,3.894906982421875,0.0472317636013031,0.016740083694458008,0.023211650550365448
1738005555717976000,3.90497607421875,0.022417761385440826,0.054027535021305084,-0.025468003004789352
1738005555728044000,3.9150439453125,-0.02164434641599655,0.02560635842382908,-0.0009227301925420761
1738005555738113000,3.925113037109375,-0.03066154569387436,-0.011802267283201218,-0.004925461485981941
1738005555748182000,3.93518212890625,-0.04189712926745415,0.007388630416244268,0.005823883228003979
1738005555758250000,3.94525,0.010026254691183567,0.0034317062236368656,-0.013020377606153488
1738005555768319000,3.955319091796875,-0.02770991437137127,0.004454354755580425,0.018381953239440918
1738005555778388000,3.965387939453125,-0.00178697076626122,0.03737794980406761,-0.04888896271586418
1738005555788457000,3.97545703125,-0.007432424463331699,0.024675540626049042,0.025680795311927795
1738005555798525200,3.985525146484375,0.007437868043780327,0.009304041042923927,-0.034307174384593964
1738005555808594000,3.995593994140625,0.02802814543247223,-0.03636492043733597,0.012214655987918377
1738005555818663000,4.005662841796875,0.02401849254965782,0.036287978291511536,-0.016645753756165504
1738005555828731100,4.015731201171875,0.00832591112703085,-0.03282969817519188,0.018972791731357574
1738005555838800000,4.0257998046875,0.027236752212047577,-0.0032896501943469048,-0.012061024084687233
1738005555848869000,4.035869140625,0.04730139300227165,-0.02118665538728237,0.0012714974582195282
1738005555858937900,4.045937744140625,0.03454431891441345,0.03898001089692116,-0.015178315341472626
1738005555869005800,4.056005859375,-0.008512311615049839,-0.007371612824499607,0.006462560035288334
1738005555879075000,4.066074951171875,0.016874006018042564,-0.0810713991522789,0.015902932733297348
1738005555889144000,4.07614404296875,0.014931652694940567,0.015868905931711197,0.02117534726858139
1738005555899211800,4.086211669921875,0.015768151730298996,0.04042751342058182,0.0006876494735479355
1738005555909281000,4.096281005859375,0.03593504801392555,-0.019908878952264786,-0.0038586147129535675
1738005555919350000,4.10635009765625,0.0328468456864357,-0.03693872690200806,0.03627655655145645
1738005555929419000,4.1164189453125,0.0015552472323179245,-0.06798654794692993,0.00623620580881834
1738005555939487000,4.126487060546875,0.024986006319522858,0.02667125314474106,-0.0075347330421209335
1738005555949556000,4.136555908203125,0.015058006159961224,0.03204162046313286,-0.0009349808096885681
1738005555959625000,4.146625,0.02626325562596321,0.019606787711381912,-0.024704227223992348
1738005555969693000,4.15669287109375,-0.009206525981426239,0.006320642307400703,0.16135483980178833
1738005555979762200,4.16676220703125,0.00546642579138279,0.04444964975118637,0.014886568300426006
1738005555989831000,4.176830810546875,0.028367048129439354,-0.08509024977684021,0.020499717444181442
1738005555999900200,4.186900146484375,0.027110034599900246,0.04278968274593353,0.000647982582449913
1738005556009968000,4.196968017578125,-0.001209536800161004,-0.001904806587845087,-0.02069872058928013
1738005556020036900,4.207036865234375,-0.015544267371296883,0.035082507878541946,-0.017186542972922325
1738005556030106000,4.217106201171875,-0.0436239130795002,-0.02149207517504692,-0.004144581034779549
1738005556040174000,4.227174072265625,-0.07619623839855194,-0.04178376495838165,0.00357725378125906
1738005556050242800,4.237242919921875,-0.04157695919275284,-0.0048653362318873405,0.029364150017499924
1738005556060312000,4.24731201171875,-0.009594790637493134,-0.023823315277695656,0.00840746983885765
1738005556070380800,4.257380859375,0.037361957132816315,0.0003030332736670971,0.0021496498957276344
1738005556080449000,4.267448974609375,-0.009672931395471096,0.021295133978128433,-0.017838705331087112
1738005556090518000,4.27751806640625,0.0033239261247217655,-0.003186526009812951,0.016229521483182907
1738005556100587000,4.2875869140625,-0.01043902337551117,-0.004173227120190859,0.019218387082219124
1738005556110656000,4.297656005859375,-0.008120248094201088,0.03804235905408859,-0.017374366521835327
1738005556120724000,4.307723876953125,0.01599361002445221,-0.0343514159321785,0.0012696245685219765
1738005556130793200,4.317793212890625,0.019507918506860733,-0.022021673619747162,-0.00688053946942091
1738005556140862000,4.327862060546875,-0.02377830073237419,0.016822129487991333,-0.022093582898378372
1738005556150930000,4.337929931640625,-0.039328522980213165,-0.030862297862768173,-0.001235639676451683
1738005556160999200,4.347999267578125,-0.030584033578634262,-0.03579527139663696,-0.010935138911008835
1738005556171068000,4.35806787109375,0.014490645378828049,0.03512990102171898,-0.008132725954055786
1738005556181137200,4.36813720703125,0.011291923001408577,-0.04735032841563225,0.017338013276457787
1738005556191205000,4.378205078125,-0.020494842901825905,-0.023299306631088257,0.004715624265372753
1738005556201273900,4.38827392578125,-0.0351017490029335,-0.11810117959976196,0.0178359542042017
1738005556211343000,4.398343017578125,0.006356574594974518,0.00641239108517766,-0.0032407371327281
1738005556221411000,4.4084111328125,0.003675837069749832,0.03190523386001587,-0.006380337290465832
1738005556231479800,4.418479736328125,0.013823607936501503,-0.024767592549324036,-0.04344509169459343
1738005556241549000,4.428549072265625,0.04154844954609871,0.019866719841957092,0.015064289793372154
1738005556251617800,4.43861767578125,0.013129174709320068,-0.0608866848051548,-0.023420393466949463
1738005556261686000,4.44868603515625,0.027129944413900375,0.004482733551412821,-0.011495289392769337
1738005556271755000,4.458755126953125,0.036067139357328415,0.018962789326906204,-0.037011947482824326
1738005556281824000,4.468823974609375,0.033595725893974304,-0.06483144313097,-0.009896439500153065
1738005556291892000,4.47889208984375,0.029766935855150223,0.04642711207270622,-0.00773639976978302
1738005556301961000,4.4889609375,0.021305007860064507,-0.0308623518794775,0.00032791774719953537
1738005556312030000,4.499030029296875,-0.05240331217646599,0.019187286496162415,-0.011257912963628769
1738005556322099000,4.509098876953125,-0.040648117661476135,-0.009836641140282154,-0.013738647103309631
1738005556332167000,4.5191669921875,-0.01751161925494671,-0.022799421101808548,0.009993607178330421
1738005556342236200,4.529236083984375,-0.03700728714466095,-0.039156824350357056,0.02778645232319832
1738005556352305000,4.539304931640625,-0.03022376447916031,0.0032484345138072968,0.0037436289712786674
1738005556362372900,4.549372802734375,-0.046600341796875,-0.03949849680066109,0.003017384558916092
1738005556372442000,4.559442138671875,0.0006121010519564152,0.018239816650748253,-0.026100195944309235
1738005556382510800,4.5695107421875,-0.027515139430761337,0.07415634393692017,-0.04910777509212494
1738005556392580000,4.579580078125,-0.05348384007811546,0.012312940321862698,-0.027405541390180588
1738005556402648000,4.58964794921875,-0.08169896900653839,-0.09375303983688354,0.03845017030835152
1738005556412717000,4.599717041015625,-0.011500881984829903,0.09991525113582611,-0.09879138320684433
1738005556422786000,4.6097861328125,-0.04860910400748253,-0.01622120290994644,-0.019211605191230774
1738005556432854800,4.619854736328125,-0.07903759926557541,0.08007962256669998,-0.04969044774770737
1738005556442923000,4.629923095703125,-0.06258539110422134,-0.00846170075237751,0.021456437185406685
1738005556452992000,4.639991943359375,-0.028265198692679405,0.06426490098237991,-0.04842149838805199
1738005556463061000,4.65006103515625,-0.01885092258453369,0.02707039937376976,-0.028178278356790543
1738005556473129000,4.66012890625,0.024220215156674385,0.000551687553524971,-0.013614511117339134
1738005556483198000,4.670197998046875,-0.0003991122357547283,-0.0033836655784398317,-0.02598489448428154
1738005556493267000,4.680266845703125,-0.019575797021389008,-0.03390662372112274,0.012958359904587269
1738005556503336000,4.6903359375,-0.012987403199076653,0.01599782146513462,-0.03982149809598923
1738005556513404000,4.70040380859375,-0.04363139346241951,-0.048013053834438324,0.018365759402513504
1738005556523473200,4.71047314453125,-0.08526699244976044,0.07562766224145889,-0.05984542518854141
1738005556533542000,4.7205419921875,-0.0857229009270668,-0.07058399170637131,0.02028539404273033
1738005556543610000,4.730610107421875,-0.057328805327415466,0.06580900400876999,-0.04947930946946144
1738005556553679000,4.74067919921875,-0.02364598959684372,-0.009849417954683304,0.022105436772108078
1738005556563747800,4.750747802734375,-0.001541221048682928,0.0209931842982769,-0.03837894648313522
1738005556573817000,4.760817138671875,0.0018462194129824638,-0.0030588714871555567,0.006295573897659779
1738005556583885000,4.770885009765625,0.0607667975127697,-0.049398936331272125,-0.018414299935102463
1738005556593954000,4.7809541015625,0.022870337590575218,0.029908867552876472,-0.01665167137980461
1738005556604023000,4.79102294921875,0.013898415490984917,-0.02728278376162052,-0.025983653962612152
1738005556614091000,4.801091064453125,-0.004066696856170893,-0.025501081719994545,0.0007066698744893074
1738005556624160000,4.811159912109375,-0.024876903742551804,-0.022835522890090942,0.02386711724102497
1738005556634229000,4.82122900390625,-0.015394778922200203,-0.08931754529476166,-0.009914698079228401
1738005556644298000,4.831298095703125,-0.00024032732471823692,-0.018316607922315598,-0.0046469662338495255
1738005556654366000,4.841365966796875,0.010151350870728493,-0.030773548409342766,0.007075405679643154
1738005556664435000,4.85143505859375,-0.000016331207007169724,0.013474872335791588,0.007493255659937859
1738005556674504000,4.86150390625,0.02842124179005623,-0.02970973588526249,-0.0065353140234947205
1738005556684572000,4.871572021484375,0.0639944076538086,-0.044540345668792725,0.029830683022737503
1738005556694641000,4.881640869140625,0.029769297689199448,0.027714204043149948,-0.032970067113637924
1738005556704710000,4.8917099609375,0.039913278073072433,0.009317884221673012,-0.015170297585427761
1738005556714779000,4.90177880859375,0.05050516873598099,-0.002235647290945053,-0.01680568978190422
1738005556724847000,4.91184716796875,0.05678117275238037,-0.003761372296139598,-0.01679477095603943
1738005556734916000,4.921916015625,0.06540907919406891,0.06550413370132446,-0.012948738411068916
1738005556744985000,4.931985107421875,0.05533541366457939,-0.04100792855024338,0.02493659034371376
1738005556755053000,4.942052978515625,0.07362847030162811,0.19117948412895203,-0.12235132604837418
1738005556765122000,4.9521220703125,0.05225047841668129,0.0423753596842289,-0.016150321811437607
1738005556775191000,4.96219091796875,0.05404482036828995,0.06020418182015419,-0.03730035573244095
1738005556785260000,4.972260009765625,0.02866356447339058,0.11605759710073471,-0.04101838916540146
1738005556795328000,4.982327880859375,0.013139404356479645,0.005936745088547468,-0.0020375847816467285
1738005556805397000,4.99239697265625,0.03760506957769394,0.07379408925771713,-0.01920565403997898
1738005556815466000,5.002466064453125,0.03172222897410393,0.08796480298042297,-0.02054789662361145
1738005556825534200,5.0125341796875,0.02094973996281624,-0.02481820620596409,0.015222083777189255
1738005556835603000,5.02260302734375,0.07311085611581802,-0.010919410735368729,-0.01478375680744648
1738005556845672000,5.032671875,0.11944612860679626,-0.005765129346400499,-0.025806844234466553
1738005556855741000,5.042740966796875,0.05186416208744049,0.004103958141058683,-0.002125736325979233
1738005556865809000,5.052808837890625,0.01268799789249897,-0.007010478526353836,0.007765243761241436
1738005556875878100,5.062878173828125,0.03581814840435982,0.006420842371881008,-0.012561982497572899
1738005556885947000,5.07294677734375,0.04821649193763733,0.057169508188962936,-0.008334746584296227
1738005556896016000,5.083015869140625,0.016974151134490967,-0.007414812222123146,-0.0012158509343862534
1738005556906084000,5.093083984375,0.025621436536312103,-0.010813537985086441,0.0018992479890584946
1738005556916152800,5.10315283203125,-0.0057689533568918705,0.06615500897169113,-0.024796877056360245
1738005556926222000,5.11322216796875,-0.017498046159744263,0.04798585921525955,-0.030677933245897293
1738005556936290000,5.1232900390625,0.0016718581318855286,-0.029476644471287727,0.014093381352722645
1738005556946359000,5.133359130859375,-0.012957684695720673,0.002235745545476675,-0.0047000134363770485
1738005556956428000,5.143427978515625,-0.031041312962770462,0.008866156451404095,-0.015605976805090904
1738005556966497000,5.1534970703125,-0.03591276705265045,-0.0221833735704422,0.0030545275658369064
1738005556976565000,5.16356494140625,0.012011751532554626,-0.012551331892609596,0.008041249588131905
1738005556986634000,5.173634033203125,0.03158624842762947,-0.03850649669766426,0.006513927131891251
1738005556996703000,5.183702880859375,0.008639255538582802,0.027139807119965553,-0.019397346302866936
1738005557006771200,5.193771240234375,0.0015975912101566792,-0.021061278879642487,0.0024368464946746826
1738005557016840000,5.20383984375,0.01633526012301445,0.002237815409898758,-0.00010504666715860367
1738005557026909000,5.213908935546875,0.019654355943202972,0.020269278436899185,0.0038161911070346832
1738005557036978000,5.22397802734375,0.03152487799525261,-0.012572772800922394,0.01953808218240738
1738005557047046000,5.2340458984375,0.0212370865046978,0.0076992092654109,-0.002427404746413231
1738005557057115100,5.244115234375,0.010549771599471569,-0.01697683148086071,-0.0013015540316700935
1738005557067183900,5.254183837890625,0.018925413489341736,0.034933239221572876,-0.0022158166393637657
1738005557077251800,5.264251953125,0.022962523624300957,0.0002804477699100971,-0.008588294498622417
1738005557087321000,5.274321044921875,0.020475665107369423,-0.03553720563650131,0.01284988597035408
1738005557097389800,5.284389892578125,-0.014723602682352066,0.025874756276607513,-0.007090532220900059
1738005557107459000,5.294458984375,-0.018865084275603294,-0.002324922475963831,-0.008760866709053516
1738005557117527000,5.304527099609375,0.008286241441965103,-0.020651917904615402,0.003449239768087864
1738005557127595800,5.314595703125,-0.017932578921318054,0.013791809789836407,-0.0011079609394073486
1738005557137665000,5.3246650390625,0.002754141576588154,0.027523795142769814,-0.00559956394135952
1738005557147733000,5.33473291015625,-0.010908939875662327,-0.023593183606863022,0.016271380707621574
1738005557157802000,5.344802001953125,-0.00527049507945776,0.01908370666205883,-0.0033529214560985565
1738005557167871000,5.35487109375,-0.008598648011684418,-0.001940618734806776,0.0037065865471959114
1738005557177940000,5.36493994140625,-0.015359977260231972,-0.0076393913477659225,0.002388223074376583
1738005557188008200,5.37500830078125,-0.009262936189770699,-0.0006698989309370518,0.004108091816306114
1738005557198077000,5.385076904296875,-0.005707063712179661,-0.0004838574677705765,0.003227144479751587
1738005557208146200,5.395146240234375,-0.00841523241251707,-0.0016798828728497028,-0.001407821662724018
1738005557218214100,5.405214111328125,-0.005806806031614542,-0.0016687195748090744,0.0007175896316766739
1738005557228283000,5.415282958984375,-0.006755690556019545,-0.00045245420187711716,0.000627308152616024
1738005557238352100,5.42535205078125,-0.0029281952884048223,-0.0006378102116286755,-0.002473411150276661
1738005557248420900,5.4354208984375,-0.0008685067296028137,-0.001814394723623991,-0.00010878965258598328
1738005557258488800,5.44548876953125,0.0012356424704194069,-0.000796852633357048,-0.0017670607194304466
1738005557268558000,5.45555810546875,0.0037741679698228836,0.000566419679671526,-0.0015811724588274956
1738005557278626800,5.465626708984375,0.004049906972795725,0.0016448134556412697,-0.0006316462531685829
1738005557288695000,5.475695068359375,-0.001816504169255495,0.002154809422791004,-0.00202767550945282
1738005557298764000,5.485763916015625,0.0018505309708416462,0.0030203177593648434,-0.003060773015022278
1738005557308832800,5.495832763671875,0.005535813048481941,0.008256359025835991,-0.004688495770096779
1738005557318902000,5.505902099609375,0.004438289441168308,0.013443191535770893,-0.007786234840750694
1738005557328970000,5.515969970703125,-0.0006163902580738068,0.03090154379606247,-0.013810571283102036
1738005557339039000,5.5260390625,-0.00645791320130229,0.0398016981780529,-0.020292673259973526
1738005557349108000,5.53610791015625,-0.01177038624882698,0.013626819476485252,-0.006635449826717377
1738005557359176000,5.546176025390625,-0.019191395491361618,-0.04232905060052872,0.018183328211307526
1738005557369245000,5.556244873046875,-0.015411837957799435,-0.006939633749425411,0.0015457617118954659
1738005557379313400,5.5663134765625,-0.006810624152421951,-0.0685589537024498,0.027936529368162155
1738005557389382700,5.576382568359375,-0.00463535450398922,0.027907133102416992,-0.014203201048076153
1738005557399450600,5.58645068359375,-0.0039584762416779995,-0.015235254541039467,0.00562935508787632
1738005557409519400,5.596519287109375,-0.004903099499642849,0.008826671168208122,-0.005232347175478935
1738005557419588600,5.606588623046875,-0.0031977216713130474,-0.00883959885686636,0.003505464643239975
1738005557429656600,5.616656494140625,-0.006457697134464979,0.003586977254599333,-0.003643524833023548
1738005557439725300,5.626725341796875,-0.004289628006517887,-0.007265880703926086,0.0005951495841145515
1738005557449794600,5.636794677734375,-0.001894114539027214,-0.0013299607671797276,0.00018475577235221863
1738005557459863600,5.646863525390625,-0.0028738726396113634,0.002831646241247654,-0.0011513261124491692
1738005557469931500,5.656931640625,-0.0015231173019856215,-0.0010922551155090332,-0.00012707337737083435
1738005557480000500,5.66700048828125,-0.00404702965170145,0.00032114703208208084,-0.0018301131203770638
1738005557490069500,5.677069580078125,-0.0016581742092967033,-0.002916990779340267,0.001176329329609871
1738005557500137500,5.687137451171875,0.001680681947618723,-0.0014021932147443295,0.0008377116173505783
1738005557510206500,5.69720654296875,-0.001526030246168375,0.0004811943508684635,-0.002537844702601433
1738005557520275700,5.707275634765625,-0.0006236475892364979,0.0011222981847822666,-0.0003459537401795387
1738005557530344400,5.717344482421875,-0.0014124761801213026,0.001316708978265524,0.00014326907694339752
1738005557540412400,5.727412353515625,0.0006074453704059124,0.0003734868951141834,-0.00008185207843780518
1738005557550481700,5.737481689453125,-0.0018871375359594822,-0.00224946066737175,-0.0002927742898464203
1738005557560550400,5.74755029296875,-0.002499818801879883,0.0006527798250317574,-0.0003641285002231598
1738005557570618400,5.757618408203125,0.0007614884525537491,-0.0015320773236453533,0.00031044986099004745
1738005557580687600,5.7676875,-0.0028977994807064533,0.0015232847072184086,-0.0009029954671859741
1738005557590756400,5.77775634765625,-0.0029659762512892485,0.004919880535453558,-0.0009828899055719376
1738005557600825600,5.78782568359375,0.0004944242537021637,-0.0004622931592166424,-0.0002713128924369812
1738005557610893600,5.7978935546875,-0.00031970394775271416,0.00024477578699588776,0.0016533536836504936
1738005557620962300,5.80796240234375,-0.0031700762920081615,0.001670307945460081,-0.00010991282761096954
1738005557631031600,5.818031494140625,0.0007389113306999207,-0.0003712712787091732,0.0018802676349878311
1738005557641099500,5.828099609375,-0.00018797488883137703,-0.0015672859735786915,-0.00016318541020154953
1738005557651168500,5.83816845703125,0.00019179191440343857,-0.0018538422882556915,-0.000026831403374671936
1738005557661237500,5.848237548828125,0.000793693121522665,-0.0027241655625402927,0.0007161274552345276
1738005557671305500,5.858305419921875,0.003052853047847748,0.0010274294763803482,-0.0008982811123132706
1738005557681374500,5.86837451171875,0.00023540202528238297,0.0012739012017846107,-0.0017814813181757927
1738005557691443500,5.878443359375,-0.0008375858888030052,0.00007068505510687828,0.0014159101992845535
1738005557701512400,5.888512451171875,0.00012045679613947868,0.0015149028040468693,-0.0012536365538835526
1738005557711580400,5.898580322265625,-0.0013962131924927235,-0.0011240234598517418,0.0008633099496364594
1738005557721649400,5.9086494140625,0.00035964278504252434,-0.0005792020820081234,-0.00317196361720562
1738005557731718700,5.91871875,0.0006627105176448822,0.0007012453861534595,-0.0002057347446680069
1738005557741786400,5.928786376953125,-0.00002831965684890747,0.0008833403699100018,0.0007113413885235786
1738005557751855400,5.93885546875,-0.0016613700427114964,-0.0005284016951918602,-0.0000620400533080101
1738005557761924600,5.948924560546875,0.0008543534204363823,0.0008021919056773186,0.00013407785445451736
1738005557771993300,5.958993408203125,0.00038137612864375114,-0.001487594097852707,0.0012536700814962387
1738005557782061600,5.9690615234375,-0.0005526016466319561,0.00010370509698987007,-0.0013772789388895035
1738005557792130600,5.979130615234375,-0.0004700436256825924,-0.0003349175676703453,-0.001974094659090042
1738005557802199600,5.989199462890625,-0.00007349858060479164,-0.002241740934550762,0.0014608511701226234
1738005557812267500,5.999267578125,0.0002681845799088478,-0.0018918015994131565,0.0015202397480607033
1738005557822336500,6.00933642578125,-0.00008592940866947174,-0.002994685433804989,-0.0000011399388313293457
1738005557832405500,6.019405517578125,0.0010661538690328598,0.0017769001424312592,-0.000006732530891895294
1738005557842473500,6.029473388671875,0.00025648390874266624,0.0007551684975624084,-0.0013123750686645508
1738005557852542500,6.03954248046875,0.0012740776874125004,-0.0005308720283210278,-0.0007453886792063713
1738005557862611500,6.049611572265625,-0.000366841908544302,-0.0006543071940541267,-0.0011781184002757072
1738005557872680400,6.059680419921875,-0.0006885519251227379,0.0010692905634641647,0.0008410895243287086
1738005557882748700,6.069748779296875,-0.0014375783503055573,0.0003602253273129463,0.001417430117726326
1738005557892817400,6.0798173828125,-0.0004934878088533878,0.0014523877762258053,-0.0010864734649658203
1738005557902886400,6.089886474609375,-0.0003637433983385563,-0.000938780140131712,0.000736163929104805
1738005557912954600,6.09995458984375,0.0017111250199377537,0.0017123967409133911,0.0014640064910054207
1738005557923023400,6.1100234375,0.0021669059060513973,0.0017485450953245163,0.00040115881711244583
1738005557933092600,6.120092529296875,-0.0006896005943417549,-0.0013620266690850258,0.0003244597464799881
1738005557943160600,6.13016064453125,0.0013528717681765556,-0.0005049784667789936,0.001178797334432602
1738005557953229300,6.140229248046875,0.0019187936559319496,0.0010172841139137745,0.002576957456767559
1738005557963298600,6.150298583984375,-0.00002194056287407875,-0.0006483611650764942,-0.00047447532415390015
1738005557973367600,6.160367431640625,0.00033945078030228615,-0.0006949668750166893,0.0011378023773431778
1738005557983435500,6.170435546875,-0.00002860371023416519,0.00022974470630288124,0.00021926499903202057
1738005557993504500,6.18050439453125,-0.0008587110787630081,0.0009232317097485065,-0.00020550936460494995
1738005558003573500,6.190573486328125,-0.00009630247950553894,-0.0009399107657372952,0.0004841126501560211
1738005558013641500,6.200641357421875,-0.0016611760947853327,0.0018177921883761883,0.0012255366891622543
1738005558023710500,6.21071044921875,-0.0007186834700405598,-0.0010133306495845318,0.0014570532366633415
1738005558033779500,6.220779541015625,0.0004802718758583069,-0.00023195939138531685,0.00004025176167488098
1738005558043848400,6.230848388671875,0.00019104592502117157,-0.0008112266659736633,-0.0013066381216049194
1738005558053916400,6.24091650390625,0.00024137971922755241,0.0006183581426739693,-0.0007782662287354469
1738005558063985700,6.250985595703125,-0.00005729030817747116,-0.000697847455739975,-0.0007919324561953545
1738005558074054400,6.261054443359375,0.0007256790995597839,-0.00048799067735671997,-0.001649470068514347
1738005558084122400,6.271122314453125,0.0012059537693858147,0.0016828207299113274,0.0010628839954733849
1738005558094191600,6.281191650390625,0.0017210091464221478,-0.00046688271686434746,-0.0029025617986917496
1738005558104260400,6.29126025390625,0.0012323074042797089,0.00034287478774785995,0.0013058353215456009
1738005558114329600,6.30132958984375,-0.0019427132792770863,-0.0016028308309614658,0.0012259399518370628
1738005558124397600,6.3113974609375,-0.00028646644204854965,-0.00007361965253949165,0.0003498615697026253
1738005558134466300,6.32146630859375,-0.000944267027080059,-0.0014699148014187813,-0.0005484223365783691
1738005558144535600,6.33153564453125,-0.0009307023137807846,0.0004656212404370308,-0.0024766437709331512
1738005558154603500,6.341603515625,-0.0015232558362185955,0.0007284753955900669,0.0014041149988770485
1738005558164672300,6.35167236328125,-0.0006750957109034061,-0.0006369715556502342,-0.0009556738659739494
1738005558174741500,6.361741455078125,-0.000661779660731554,0.0011886251159012318,-0.001231311820447445
1738005558184809500,6.3718095703125,-0.001565906684845686,-0.0019461712799966335,0.0006996495649218559
1738005558194878500,6.38187841796875,-0.0005086315795779228,0.001140432432293892,-0.0023587243631482124
1738005558204947500,6.391947509765625,0.0004156026989221573,0.0012799398973584175,0.0007887622341513634
1738005558215016700,6.4020166015625,-0.00010717567056417465,-0.0008990587666630745,0.0013099424540996552
1738005558225084400,6.41208447265625,-0.0009556489530950785,0.0012076920829713345,-0.0004905713722109795
1738005558235153400,6.4221533203125,0.0005863211117684841,0.00021806126460433006,-0.0017081676051020622
1738005558245222700,6.43222265625,-0.00037849415093660355,-0.0024527853820472956,-0.00160165224224329
1738005558255290600,6.44229052734375,0.0015642819926142693,0.0006788256578147411,0.0001765405759215355
1738005558265359400,6.452359375,0.0016362578608095646,-0.0012744306586682796,0.0003678128123283386
1738005558275428600,6.4624287109375,0.0011225338093936443,-0.0013471348211169243,0.0027976809069514275
1738005558285496600,6.47249658203125,0.0008866768330335617,-0.0005174023099243641,0.0004614405333995819
1738005558295565600,6.482565673828125,-0.0006217374466359615,-0.002215167274698615,0.0006803525611758232
1738005558305634600,6.492634521484375,-0.000026949681341648102,0.00017146067693829536,0.0009897686541080475
1738005558315703300,6.502703369140625,-0.002723666839301586,-0.0009497301653027534,-0.0001311562955379486
1738005558325771500,6.512771484375,-0.00031856121495366096,-0.0005025449208915234,-0.00003173481673002243
1738005558335840500,6.522840576171875,-0.0027806537691503763,0.0007022693753242493,-0.0001443866640329361
1738005558345909500,6.532909423828125,-0.0013310215435922146,-0.002578210784122348,-0.001786915585398674
1738005558355977500,6.5429775390625,-0.0006436598487198353,0.0007486101239919662,-0.00035972706973552704
1738005558366046500,6.55304638671875,-0.0008762609213590622,0.00004531443119049072,0.00029997341334819794
1738005558376116500,6.563116455078125,-0.0031346215400844812,-0.002580562373623252,-0.001683015376329422
1738005558386185700,6.573185791015625,0.00014424649998545647,-0.002203228883445263,-0.00033694691956043243
1738005558396253700,6.583253662109375,0.0009639672935009003,-0.0007153209298849106,-0.0016669295728206635
1738005558406322700,6.59332275390625,-0.002027938375249505,0.0009840931743383408,-0.0014742175117135048
1738005558416391700,6.6033916015625,0.0006884858012199402,0.0015412266366183758,0.002518925815820694
1738005558426459600,6.613459716796875,-0.0007066135294735432,-0.000025282613933086395,-0.00013530347496271133
1738005558436528600,6.623528564453125,0.00214190362021327,-0.0010604532435536385,0.0009667128324508667
1738005558446597600,6.63359765625,-0.0001821061596274376,0.00025716517120599747,0.001326172612607479
1738005558456665600,6.64366552734375,0.0003950009122490883,-0.0010634963400661945,-0.00031859613955020905
1738005558466734600,6.653734619140625,-0.0014294548891484737,-0.0022552248556166887,0.0008175140246748924
1738005558476803600,6.663803466796875,-0.0014084160793572664,-0.0014384333044290543,-0.0006251204758882523
1738005558486872600,6.67387255859375,-0.0004529571160674095,-0.0005095982924103737,-0.0016898270696401596
1738005558496940500,6.6839404296875,0.00009032757952809334,0.0017588823102414608,0.0005445657297968864
1738005558507009500,6.694009521484375,0.00042797112837433815,0.0015984796918928623,-0.0007192613556981087
1738005558517078500,6.70407861328125,-0.0011819095816463232,0.00020751077681779861,-0.0011328496038913727
1738005558527146500,6.714146484375,-0.0006479248404502869,0.0020876964554190636,0.001077760010957718
1738005558537215700,6.7242158203125,0.0012751435860991478,-0.0010910523124039173,-0.001440790481865406
1738005558547284500,6.734284423828125,-0.001095786690711975,0.001740382518619299,-0.0010025184601545334
1738005558557353700,6.744353759765625,-0.0004347898066043854,0.0012785904109477997,0.0012278780341148376
1738005558567421700,6.754421630859375,0.0018928446806967258,0.0018367492593824863,-0.0008077351376414299
1738005558577490700,6.76449072265625,-0.00005818717181682587,-0.0004109581932425499,0.0009211897850036621
1738005558587559700,6.7745595703125,-0.0014180047437548637,-0.00037325453013181686,-0.000006300397217273712
1738005558597627600,6.784627685546875,0.00012156879529356956,0.00002568727359175682,0.0021423380821943283
1738005558607696600,6.794696533203125,-0.0013129382859915495,0.0021416652016341686,-0.00011182203888893127
1738005558617765600,6.804765625,0.0019872509874403477,0.0021789497695863247,0.00033958442509174347
1738005558627834600,6.814834716796875,0.0003143860958516598,0.0003441940061748028,-0.0015652570873498917
1738005558637902600,6.824902587890625,-0.0001487373374402523,0.0014086593873798847,0.0009666094556450844
1738005558647971600,6.8349716796875,0.0008499138057231903,0.003240699879825115,0.0022712787613272667
1738005558658040600,6.84504052734375,-0.0007000458426773548,0.0025552017614245415,0.00016791373491287231
1738005558668108800,6.85510888671875,-0.0005035959184169769,-0.0009172013960778713,-0.0018887026235461235
1738005558678177500,6.865177490234375,-0.000461784191429615,0.0019888398237526417,0.002410171553492546
1738005558688246800,6.875246826171875,-0.0034522381611168385,0.0017640856094658375,-0.0016942089423537254
1738005558698314800,6.885314697265625,-0.0009725687559694052,0.001303358469158411,0.00024750176817178726
1738005558708383500,6.895383544921875,-0.001164314802736044,0.0001492481678724289,0.002394631505012512
1738005558718452700,6.90545263671875,0.0001169317401945591,0.00766202574595809,-0.0018573710694909096
1738005558728521500,6.915521484375,0.002060648985207081,-0.013500979170203209,0.004753183573484421
1738005558738589400,6.92558935546875,0.004244973883032799,-0.004561812616884708,0.0013512615114450455
1738005558748658700,6.93565869140625,0.00023891543969511986,-0.00046952860429883003,0.00015802402049303055
1738005558758727400,6.9457275390625,0.0009933891706168652,-0.0018248111009597778,0.00033725425601005554
1738005558768795600,6.955795654296875,0.0021118461154401302,-0.00675385445356369,0.002579476684331894
1738005558778864600,6.96586474609375,0.005333205685019493,-0.001723941881209612,-0.0016240570694208145
1738005558788933600,6.97593359375,0.004911717958748341,0.0007352773100137711,0.00016953982412815094
1738005558799002600,6.986002685546875,0.015796057879924774,-0.0011651543900370598,0.0000164080411195755
1738005558809070600,6.996070556640625,0.03822657838463783,0.002415250986814499,-0.0023451317101716995
1738005558819139800,7.006139892578125,0.06356841325759888,0.009844139218330383,-0.004437044262886047
1738005558829208600,7.01620849609375,0.10611306875944138,0.0023216423578560352,-0.0034239450469613075
1738005558839276500,7.026276611328125,0.17370329797267914,-0.006664662156254053,0.00302809476852417
1738005558849345800,7.036345703125,0.23813456296920776,-0.013932019472122192,0.0017744405195116997
1738005558859414500,7.04641455078125,0.28990691900253296,-0.011206274852156639,0.0022237151861190796
1738005558869483800,7.05648388671875,0.3485489785671234,0.002878115512430668,-0.0018001189455389977
1738005558879551700,7.0665517578125,0.3629832863807678,-0.03938784450292587,0.015587393194437027
1738005558889620500,7.076620361328125,0.3580588698387146,0.0536661334335804,-0.01887822523713112
1738005558899689700,7.086689697265625,0.3524382710456848,-0.027712080627679825,0.006972548086196184
1738005558909757700,7.0967578125,0.3686528503894806,0.012424282729625702,-0.003289773128926754
1738005558919826400,7.106826416015625,0.37319114804267883,-0.011523661203682423,0.007543432526290417
1738005558929895700,7.116895751953125,0.3792002201080322,0.027599895372986794,-0.015152987092733383
1738005558939963600,7.126963623046875,0.43752026557922363,-0.008547722361981869,0.012363326735794544
1738005558950032600,7.13703271484375,0.48826661705970764,-0.027831265702843666,0.013561313040554523
1738005558960101600,7.1471015625,0.523840069770813,0.05415334925055504,-0.016661835834383965
1738005558970170600,7.157170654296875,0.5016646981239319,-0.0028438293375074863,0.003743888810276985
1738005558980238600,7.167238525390625,0.4413086771965027,-0.028833618387579918,0.004421397112309933
1738005558990307600,7.1773076171875,0.4194517135620117,0.0015538637526333332,0.0021108314394950867
1738005559000376600,7.18737646484375,0.39198893308639526,-0.00439324090257287,0.010826291516423225
1738005559010444500,7.197444580078125,0.3079783320426941,0.013277288526296616,-0.004293849691748619
1738005559020513500,7.207513427734375,0.2611868679523468,0.01781691238284111,-0.010032961145043373
1738005559030582800,7.217582763671875,0.2119424045085907,-0.051497362554073334,0.016963472589850426
1738005559040651500,7.227651611328125,0.08592774718999863,-0.002091463189572096,-0.009740842506289482
1738005559050719500,7.237719482421875,0.1936010718345642,0.022532641887664795,-0.0033378591760993004
1738005559060788700,7.247788818359375,0.10523287206888199,-0.03308161720633507,0.007541153114289045
1738005559070857500,7.257857421875,0.08458886295557022,-0.0033759246580302715,0.018057111650705338
1738005559080925700,7.26792578125,-0.0027207371313124895,0.06812196224927902,-0.03305560722947121
1738005559090994700,7.27799462890625,0.04131736233830452,-0.06440318375825882,0.02508588880300522
1738005559101063700,7.288063720703125,0.007304801605641842,0.033285561949014664,-0.015481511130928993
1738005559111131600,7.298131591796875,-0.10297027975320816,-0.017050851136446,-0.00040835049003362656
1738005559121200600,7.30820068359375,-0.07503878325223923,-0.003302015597000718,0.034118201583623886
1738005559131269600,7.31826953125,-0.04308873787522316,-0.13703203201293945,0.014545142650604248
1738005559141338600,7.328338623046875,-0.019696861505508423,-0.004154682159423828,-0.01975370943546295
1738005559151406600,7.338406494140625,-0.009908514097332954,0.0497332364320755,-0.047482118010520935
1738005559161475600,7.3484755859375,0.05786174535751343,0.004735404625535011,0.010735114105045795
1738005559171544600,7.358544677734375,0.05703195556998253,0.02834405191242695,-0.014181284233927727
1738005559181612800,7.36861279296875,0.08706335723400116,-0.013024957850575447,0.006189500913023949
1738005559191681500,7.378681640625,0.02852339670062065,0.006364176981151104,-0.005090182647109032
1738005559201750500,7.38875048828125,-0.005026040133088827,0.026729103177785873,-0.015454672276973724
1738005559211818800,7.39881884765625,0.01277948822826147,-0.1101997047662735,0.03679334744811058
1738005559221887500,7.408887451171875,-0.04062141850590706,0.002404872328042984,-0.024549636989831924
1738005559231956700,7.418956787109375,-0.03573399782180786,-0.013312690891325474,0.01829405315220356
1738005559242025700,7.429025634765625,-0.06561386585235596,-0.009428470395505428,-0.02334260754287243
1738005559252093400,7.439093505859375,-0.04696134105324745,-0.014659864827990532,0.005025030113756657
1738005559262162700,7.44916259765625,-0.05770186707377434,0.0034237978979945183,-0.003911473788321018
1738005559272231700,7.459231689453125,-0.013149246573448181,0.0007264232262969017,-0.027817975729703903
1738005559282299400,7.46929931640625,0.08308833837509155,-0.1057337075471878,0.038537878543138504
1738005559292368600,7.47936865234375,0.08762503415346146,-0.039349887520074844,-0.003407972864806652
1738005559302437600,7.489437744140625,0.024144861847162247,0.06543244421482086,-0.024942025542259216
1738005559312506600,7.499506591796875,-0.06588441878557205,-0.016606222838163376,-0.01592816412448883
1738005559322574600,7.50957470703125,-0.057172421365976334,0.0358378104865551,0.01226059626787901
1738005559332643600,7.5196435546875,-0.0637398436665535,0.013701208867132664,-0.014076362363994122
1738005559342712600,7.529712646484375,-0.06816894561052322,-0.027943171560764313,-0.004689251072704792
1738005559352780500,7.539780517578125,-0.03182440623641014,0.00181198725476861,0.008854538202285767
1738005559362849800,7.549849853515625,-0.07929418236017227,0.046956826001405716,-0.03130539506673813
1738005559372918000,7.55991796875,-0.03786640614271164,-0.013998864218592644,0.001630895771086216
1738005559382985700,7.56998583984375,-0.03569592908024788,0.054781265556812286,-0.03515694662928581
1738005559393055000,7.580054931640625,0.008369779214262962,-0.0263914093375206,0.016290610656142235
1738005559403124000,7.5901240234375,-0.02214711904525757,0.023697856813669205,-0.014546399004757404
1738005559413193000,7.60019287109375,-0.04776683822274208,0.026275334879755974,-0.020112957805395126
1738005559423261000,7.610260986328125,-0.07990799844264984,-0.04207123443484306,0.002116980031132698
1738005559433330000,7.620329833984375,-0.09704505652189255,0.034103091806173325,-0.009301302023231983
1738005559443399000,7.63039892578125,-0.1440916657447815,-0.0340551882982254,0.035966310650110245
1738005559453467000,7.640466796875,-0.18804113566875458,-0.0035666560288518667,0.012015672400593758
1738005559463536000,7.6505361328125,-0.16393925249576569,-0.1337006837129593,0.05415193736553192
1738005559473604900,7.66060498046875,-0.20205651223659515,-0.10949895530939102,0.02330634370446205
1738005559483672800,7.6706728515625,-0.17285150289535522,-0.05646529048681259,0.05700571835041046
1738005559493742000,7.6807421875,-0.20706136524677277,-0.17348219454288483,-0.08576800674200058
1738005559503810800,7.690810791015625,-0.11574531346559525,0.05284308269619942,-0.020620962604880333
1738005559513880000,7.700880126953125,-0.017076659947633743,-0.16867704689502716,0.05260776728391647
1738005559523948000,7.710947998046875,-0.08941689878702164,-0.0917937159538269,-0.08623587340116501
1738005559534016800,7.721016845703125,-0.0537499338388443,-0.17896270751953125,-0.03277543932199478
1738005559544086000,7.7310859375,-0.06073673442006111,-0.18508771061897278,-0.020275358110666275
1738005559554154000,7.741154052734375,-0.1298064887523651,-0.14172598719596863,-0.09500709176063538
1738005559564222700,7.75122265625,-0.07738882303237915,-0.15705673396587372,-0.08786316215991974
1738005559574292000,7.7612919921875,-0.009390934370458126,-0.2492685765028,0.01041983999311924
1738005559584360000,7.77135986328125,0.09698131680488586,-0.038977645337581635,0.0672524943947792
1738005559594429000,7.781428955078125,0.04386308416724205,-0.1581699550151825,0.05679615959525108
1738005559604498000,7.791497802734375,-0.050040505826473236,-0.18055275082588196,0.047129418700933456
1738005559614567000,7.80156689453125,-0.07372359931468964,-0.09789860993623734,-0.015759479254484177
1738005559624635000,7.811634765625,-0.060848817229270935,-0.04395947605371475,0.00991099700331688
1738005559634704000,7.821703857421875,-0.09608149528503418,-0.05259345471858978,0.1035546138882637
1738005559644773000,7.831773193359375,-0.23878805339336395,0.1486469805240631,0.02722708322107792
1738005559654840800,7.8418408203125,-0.294350802898407,0.08514963090419769,-0.08178699016571045
1738005559664909800,7.851909912109375,-0.2116798758506775,-0.13459257781505585,-0.01824742555618286
1738005559674979000,7.86197900390625,-0.2282092273235321,-0.011298147961497307,-0.03554297238588333
1738005559685046800,7.872046875,-0.2113623470067978,0.1837075650691986,0.013752669095993042
1738005559695115800,7.88211572265625,-0.15602153539657593,-0.026794083416461945,0.06502000242471695
1738005559705185000,7.89218505859375,-0.08753488212823868,0.046498239040374756,0.08289673924446106
1738005559715253000,7.9022529296875,-0.1442340910434723,0.15151067078113556,-0.023214852437376976
1738005559725322000,7.912322021484375,-0.17072507739067078,0.14895376563072205,0.02737082913517952
1738005559735391000,7.922390869140625,-0.15552303194999695,0.062831349670887,0.10129453241825104
1738005559745459700,7.932459716796875,-0.1758573353290558,0.11474940925836563,0.07946725189685822
1738005559755528000,7.94252783203125,-0.22995677590370178,0.15148676931858063,0.07809457927942276
1738005559765597000,7.952596923828125,-0.27738314867019653,0.157917782664299,0.024622030556201935
1738005559775666000,7.962666015625,-0.22152957320213318,0.09863654524087906,0.021805206313729286
1738005559785734000,7.97273388671875,-0.16182896494865417,0.010403627529740334,0.02201080322265625
1738005559795803000,7.982802978515625,-0.15857534110546112,0.08580251038074493,0.015737397596240044
1738005559805871900,7.992871826171875,-0.19884340465068817,0.0606718584895134,-0.0202067531645298
1738005559815939800,8.00293994140625,-0.22086653113365173,0.1398291289806366,-0.02220841869711876
1738005559826008800,8.0130087890625,-0.18601934611797333,0.15973225235939026,0.04102381318807602
1738005559836077800,8.023077880859375,-0.09168872237205505,0.31034958362579346,0.11460911482572556
1738005559846145800,8.033145751953125,-0.10537604242563248,0.22855326533317566,-0.03911386802792549
1738005559856215000,8.043215087890625,0.049024853855371475,0.06988152861595154,0.18054094910621643
1738005559866283800,8.05328369140625,-0.1172831580042839,0.3702346980571747,-0.16874247789382935
1738005559876351700,8.063351806640625,-0.02507711574435234,0.20176540315151215,-0.046271540224552155
1738005559886421000,8.0734208984375,-0.1015644371509552,0.133599653840065,-0.08252780884504318
1738005559896490000,8.083489990234375,-0.17432889342308044,0.23279716074466705,-0.07857762277126312
1738005559906559000,8.09355908203125,-0.1353551298379898,0.19980910420417786,-0.014191441237926483
1738005559916627000,8.103626953125,-0.10201732069253922,0.1363883912563324,-0.06329230219125748
1738005559926696000,8.113696044921875,-0.11474297195672989,0.16242532432079315,-0.024118270725011826
1738005559936765000,8.123764892578125,-0.08501443266868591,-0.10183676332235336,0.008026981726288795
1738005559946833000,8.1338330078125,-0.07353993505239487,0.21531616151332855,0.0384349562227726
1738005559956902100,8.143902099609376,-0.05503475293517113,-0.08797261118888855,-0.03392620012164116
1738005559966971000,8.153970947265625,-0.01822160929441452,0.24019300937652588,0.005658227019011974
1738005559977038800,8.164038818359375,0.03463175147771835,-0.0957607552409172,-0.06921841204166412
1738005559987108000,8.174108154296874,0.030618103221058846,0.10450762510299683,-0.026426471769809723
1738005559997176800,8.1841767578125,-0.08728119730949402,-0.03489287942647934,0.014190121553838253
1738005560007244800,8.194244873046875,-0.12330923229455948,0.14292611181735992,0.0004245080053806305
1738005560017314000,8.20431396484375,-0.12217220664024353,0.04020420089364052,-0.01375014428049326
1738005560027382800,8.2143828125,-0.14879795908927917,-0.026494402438402176,-0.025532502681016922
1738005560037450800,8.22445068359375,-0.100049689412117,0.029101282358169556,0.010909043252468109
1738005560047520000,8.23452001953125,-0.012144068256020546,0.011329209432005882,0.05165034532546997
1738005560057588700,8.244588623046875,-0.0874030813574791,-0.12111984938383102,-0.0268081147223711
1738005560067658000,8.254657958984374,-0.05630055442452431,-0.06530825048685074,-0.007551062852144241
1738005560077726000,8.264725830078126,-0.028082674369215965,0.0823894664645195,0.014922651462256908
1738005560087795000,8.274794921875,-0.036939285695552826,-0.08144846558570862,-0.04937298223376274
1738005560097864000,8.284864013671875,-0.012065386399626732,-0.005041709169745445,0.017660731449723244
1738005560107932000,8.294931884765624,-0.03141138702630997,-0.056545380502939224,0.026921872049570084
1738005560118001000,8.3050009765625,-0.03842828795313835,-0.12450645118951797,0.04495012015104294
1738005560128070000,8.31506982421875,-0.07528509944677353,-0.1300082802772522,-0.03295266628265381
1738005560138137900,8.325137939453125,-0.08695382624864578,-0.1810157299041748,0.029320210218429565
1738005560148206800,8.335206787109374,-0.15302366018295288,-0.03494428098201752,-0.06714853644371033
1738005560158275800,8.34527587890625,-0.08453712612390518,0.031318098306655884,-0.02111155167222023
1738005560168344000,8.355343994140625,-0.07145088911056519,-0.08251739293336868,0.02793562039732933
1738005560178412800,8.365412841796875,-0.026803527027368546,-0.23284690082073212,0.03845776244997978
1738005560188481800,8.375481689453125,-0.06688463687896729,-0.1363651156425476,-0.00008057616651058197
1738005560198550000,8.385550048828126,-0.1288568377494812,-0.1638200432062149,-0.012150192633271217
1738005560208618800,8.39561865234375,-0.19268615543842316,-0.1327851563692093,-0.05074845254421234
1738005560218688000,8.40568798828125,-0.13733704388141632,-0.04981996491551399,-0.03418697789311409
1738005560228756000,8.415755859375,-0.07202834635972977,-0.08318005502223969,-0.04235915467143059
1738005560238825000,8.425824951171874,-0.012688921764492989,-0.025034794583916664,-0.021159721538424492
1738005560248894000,8.43589404296875,-0.057854268699884415,-0.240995854139328,-0.02565247379243374
1738005560258963000,8.445962890625,-0.03861062228679657,0.057082585990428925,0.015999536961317062
1738005560269031000,8.456031005859375,0.02337392047047615,-0.24607276916503906,-0.010385199449956417
1738005560279100000,8.466099853515624,0.014569242484867573,0.07108715176582336,-0.030692610889673233
1738005560289169000,8.4761689453125,-0.04236061871051788,-0.06459611654281616,-0.010076814331114292
1738005560299237000,8.486237060546875,-0.04865926504135132,-0.03122285008430481,0.006052638404071331
1738005560309305900,8.496305908203125,-0.09469094127416611,0.06031159684062004,-0.011217694729566574
1738005560319374800,8.506374755859374,-0.06346439570188522,0.019877754151821136,-0.004216338507831097
1738005560329443000,8.516443115234376,0.006676875986158848,-0.10011948645114899,0.020777162164449692
1738005560339511800,8.52651171875,0.04477795213460922,-0.00231436500325799,0.02097310684621334
1738005560349581000,8.5365810546875,0.06580174714326859,0.08529191464185715,-0.034540221095085144
1738005560359649000,8.54664892578125,0.044411469250917435,0.039473757147789,-0.028570406138896942
1738005560369717800,8.5567177734375,0.057236455380916595,0.029334835708141327,0.0037313420325517654
1738005560379787300,8.566787353515625,0.054146211594343185,-0.0036207123193889856,0.0076625109650194645
1738005560389855200,8.576855224609375,0.08445271849632263,-0.054068975150585175,0.017714345827698708
1738005560399924200,8.58692431640625,0.07782363891601562,-0.04874877259135246,0.009719142690300941
1738005560409993200,8.5969931640625,0.0945725217461586,-0.06372399628162384,0.033518750220537186
1738005560420061400,8.6070615234375,0.0960412248969078,0.018216941505670547,-0.016993630677461624
1738005560430130200,8.617130126953125,0.05339203402400017,0.02255949378013611,-0.011906727217137814
1738005560440199200,8.62719921875,-0.04036363214254379,0.14821016788482666,-0.0467754527926445
1738005560450267400,8.637267333984376,0.01295471377670765,0.08049848675727844,-0.022490087896585464
1738005560460336000,8.647336181640625,-0.06960728019475937,-0.14992573857307434,0.010011937469244003
1738005560470405400,8.6574052734375,-0.08670078217983246,0.05137941241264343,-0.013239322230219841
1738005560480473300,8.667473388671874,-0.12161093950271606,0.13132010400295258,-0.03916175663471222
1738005560490542000,8.6775419921875,-0.10628817975521088,-0.01635988987982273,-0.00483733881264925
1738005560500611300,8.687611328125,-0.10555358231067657,-0.028927002102136612,0.009932620450854301
1738005560510679300,8.69767919921875,-0.09863575547933578,-0.00426959153264761,-0.009234149940311909
1738005560520748000,8.707748046875,-0.09217315167188644,0.03731120377779007,-0.004231487400829792
1738005560530817300,8.7178173828125,-0.11506222188472748,-0.05987313389778137,0.009524539113044739
1738005560540885200,8.72788525390625,-0.11764191836118698,0.013933241367340088,-0.004819473251700401
1738005560550954200,8.737954345703125,-0.08426052331924438,0.019648117944598198,-0.007775846868753433
1738005560561023200,8.748023193359375,-0.037583231925964355,-0.051055073738098145,0.014203362166881561
1738005560571091200,8.75809130859375,-0.057316459715366364,-0.013498912565410137,0.01888120546936989
1738005560581160200,8.76816015625,-0.06854405254125595,-0.019582513719797134,-0.00893449503928423
1738005560591229200,8.778229248046875,0.017997760325670242,-0.04375123232603073,0.027046941220760345
1738005560601297200,8.788297119140625,0.06294789910316467,-0.043365996330976486,0.024143077433109283
1738005560611366100,8.7983662109375,0.05595896393060684,-0.04313004016876221,0.028835035860538483
1738005560621435100,8.80843505859375,0.0005666934885084629,-0.01407702174037695,0.02201811969280243
1738005560631503400,8.81850341796875,-0.0005622208118438721,-0.002785218646749854,0.014391091652214527
1738005560641572400,8.828572265625,-0.0074121057987213135,0.03994094207882881,-0.009301785379648209
1738005560651641000,8.83864111328125,0.00622327858582139,-0.035795629024505615,0.010124110616743565
1738005560661709300,8.848709228515625,0.016802508383989334,-0.09624438732862473,0.042933810502290726
1738005560671778300,8.8587783203125,-0.01041659526526928,-0.03141985461115837,0.0007514692842960358
1738005560681847300,8.868847412109375,0.004166216589510441,0.0341452956199646,-0.017041657119989395
1738005560691916300,8.878916259765624,-0.011678792536258698,-0.01699032634496689,0.009619779884815216
1738005560701984300,8.888984375,-0.04528271034359932,0.005202990956604481,-0.004031551070511341
1738005560712053200,8.89905322265625,-0.11185188591480255,0.1438969522714615,-0.08344968408346176
1738005560722122200,8.909122314453125,-0.10658464580774307,-0.05980956181883812,0.03255835548043251
1738005560732190200,8.919190185546874,-0.15525871515274048,0.09435310959815979,-0.04055500403046608
1738005560742259200,8.92925927734375,-0.11236882954835892,-0.0218645092099905,-0.024180706590414047
1738005560752328200,8.939328125,-0.09029175341129303,-0.026443548500537872,-0.013325396925210953
1738005560762396400,8.949396484375,-0.06181750074028969,-0.00897321105003357,0.02339480072259903
1738005560772465200,8.959465087890624,-0.04427126422524452,0.04217466339468956,-0.03411403298377991
1738005560782534400,8.969534423828126,0.031843774020671844,0.03826833888888359,-0.027388013899326324
1738005560792602400,8.979602294921875,0.03289492428302765,0.00473647890612483,-0.007174622267484665
1738005560802671000,8.989671142578125,0.028116699308156967,0.02803393267095089,-0.024926770478487015
1738005560812740400,8.999740234375,0.10072565078735352,0.00962669774889946,0.003038552589714527
1738005560822808300,9.009808349609376,0.10017664730548859,-0.013976017013192177,-0.018449420109391212
1738005560832877000,9.019876953125,0.014987979084253311,0.053670670837163925,-0.04637905955314636
1738005560842945300,9.0299453125,0.015219585970044136,0.06712423264980316,-0.046486470848321915
1738005560853014300,9.04001416015625,0.006241536233574152,-0.05452311038970947,0.028176315128803253
1738005560863083000,9.0500830078125,-0.05628630518913269,0.06909794360399246,-0.05515290051698685
1738005560873152300,9.06015234375,-0.03415410593152046,0.022775184363126755,-0.018131501972675323
1738005560883220200,9.07022021484375,0.06609944999217987,-0.08004526048898697,0.04468277841806412
1738005560893289200,9.080289306640625,0.03209594264626503,0.04134935140609741,-0.03910639509558678
1738005560903357200,9.090357177734376,0.07444117218255997,-0.05733774974942207,0.015527203679084778
1738005560913426200,9.10042626953125,0.10828143358230591,-0.050240159034729004,0.027551110833883286
1738005560923495200,9.1104951171875,0.03792523965239525,-0.03200743347406387,0.010656557977199554
1738005560933563100,9.120563232421874,0.04870225116610527,0.05130156874656677,-0.029218154028058052
1738005560943632100,9.130632080078126,0.05471092462539673,0.02902062237262726,-0.016149867326021194
1738005560953701400,9.140701416015625,0.03588663786649704,0.031216129660606384,-0.024166783317923546
1738005560963769000,9.15076904296875,0.04427120089530945,-0.005521359853446484,0.013714304193854332
1738005560973838300,9.16083837890625,0.0565185472369194,-0.08651501685380936,0.03836558759212494
1738005560983907300,9.1709072265625,0.024857666343450546,-0.06614497303962708,-0.0030571799725294113
1738005560993975000,9.18097509765625,-0.0004729912616312504,-0.0722087174654007,0.03463480621576309
1738005561004044300,9.191044189453125,-0.004539002198725939,0.03104931116104126,-0.017297297716140747
1738005561014113300,9.20111328125,0.01568344421684742,0.014629056677222252,-0.012458069249987602
1738005561024181200,9.21118115234375,0.027955487370491028,-0.01230490393936634,-0.0008654603734612465
1738005561034250200,9.221250244140625,0.01948583498597145,-0.019074393436312675,0.010054297745227814
1738005561044319200,9.2313193359375,0.015983927994966507,-0.00793319009244442,0.004909839481115341
1738005561054387500,9.241387451171875,-0.011194429360330105,0.01300591416656971,-0.006522046402096748
1738005561064456200,9.251456298828124,-0.046542949974536896,0.0411205068230629,0.007585485465824604
1738005561074525400,9.261525390625,-0.06974520534276962,-0.0336591899394989,0.006749785505235195
1738005561084593400,9.271593505859375,-0.07789143174886703,-0.05765547230839729,0.02481803297996521
1738005561094662100,9.281662109375,-0.09147808700799942,-0.042807016521692276,0.0026994161307811737
1738005561104731400,9.2917314453125,-0.09856405854225159,-0.055292729288339615,0.0023352820426225662
1738005561114799400,9.30179931640625,-0.058467503637075424,-0.010032040998339653,0.023260004818439484
1738005561124868000,9.3118681640625,-0.017635375261306763,-0.01739586889743805,-0.0017414921894669533
1738005561134937300,9.321937255859375,-0.037996042519807816,0.011848567984998226,-0.011563495732843876
1738005561145005300,9.33200537109375,-0.04493319243192673,0.018351338803768158,-0.004378523677587509
1738005561155074300,9.34207421875,-0.055677447468042374,0.03130814805626869,-0.012708092108368874
1738005561165143300,9.352143310546875,-0.10433831810951233,0.029444262385368347,-0.013397341594099998
1738005561175211300,9.362211181640625,-0.0987962856888771,0.026594944298267365,-0.009022833779454231
1738005561185280300,9.3722802734375,-0.051920730620622635,0.02422334998846054,-0.01089061051607132
1738005561195349200,9.382349365234376,-0.04822799190878868,-0.026955679059028625,-0.0053235385566949844
1738005561205417200,9.392417236328125,0.010337578132748604,0.011849695816636086,0.004940292797982693
1738005561215486200,9.402486328125,-0.004461874254047871,-0.06432417035102844,0.026508968323469162
1738005561225555200,9.41255517578125,0.03705073893070221,-0.029282627627253532,0.029921159148216248
1738005561235623400,9.42262353515625,-0.015323517844080925,-0.03614719212055206,0.012979459948837757
1738005561245692200,9.432692138671875,-0.03167840465903282,0.03947392851114273,-0.01322175282984972
1738005561255761200,9.44276123046875,-0.0445563904941082,0.0067324950359761715,-0.004968618042767048
1738005561265829400,9.452829345703124,-0.041171927005052567,0.012156685814261436,-0.02135874517261982
1738005561275898000,9.462898193359376,-0.037858158349990845,-0.0009971996769309044,-0.0082437414675951
1738005561285967400,9.47296728515625,-0.05848690867424011,-0.033733073621988297,0.024807462468743324
1738005561296035300,9.483035400390625,-0.08398720622062683,-0.009139579720795155,-0.007692423649132252
1738005561306104000,9.49310400390625,-0.03589234873652458,-0.019343772903084755,0.01077018678188324
1738005561316172000,9.503172119140626,-0.05006809160113335,0.020566623657941818,-0.02599634975194931
1738005561326241300,9.5132412109375,-0.046836968511343,0.04530668631196022,-0.002380097284913063
1738005561336310300,9.523310302734375,0.006865940522402525,0.00766343716531992,0.0087662972509861
1738005561346378200,9.533378173828124,-0.01805567368865013,-0.0031693873461335897,0.008520576171576977
1738005561356447200,9.543447265625,-0.051647186279296875,0.029810931533575058,-0.0036479393020272255
1738005561366516200,9.55351611328125,-0.008791187778115273,0.05917211249470711,-0.0017323922365903854
1738005561376584700,9.563584716796875,-0.06208556890487671,-0.025156348943710327,-0.006448851898312569
1738005561386653700,9.57365380859375,-0.01432457659393549,-0.017698220908641815,-0.005009653978049755
1738005561396722700,9.58372265625,-0.016933143138885498,0.04443998262286186,-0.013447080738842487
1738005561406790700,9.593790771484375,-0.05864927917718887,0.036138780415058136,-0.002072218805551529
1738005561416859600,9.603859619140625,-0.007795952260494232,0.02371646650135517,-0.01182284951210022
1738005561426928600,9.6139287109375,0.004909359384328127,-0.025129016488790512,0.003078736364841461
1738005561436996600,9.62399658203125,-0.08605410158634186,0.0300612710416317,-0.024763016030192375
1738005561447065900,9.63406591796875,-0.10649816691875458,0.07022905349731445,-0.031822364777326584
1738005561457134800,9.644134765625,-0.07609046250581741,0.020242314785718918,-0.010110946372151375
1738005561467202600,9.65420263671875,-0.07543741911649704,0.007748931646347046,-0.010521710850298405
1738005561477271800,9.664271728515626,-0.05047933757305145,0.07889021933078766,-0.03585502877831459
1738005561487340800,9.6743408203125,-0.08783071488142014,-0.04981540888547897,0.015985313802957535
1738005561497408500,9.684408447265625,-0.13827097415924072,0.01167991105467081,-0.006543165072798729
1738005561507477800,9.694477783203125,-0.14543472230434418,-0.08484893292188644,0.029121223837137222
1738005561517546800,9.704546630859374,-0.20610766112804413,-0.1308254897594452,0.03917891904711723
1738005561527614700,9.71461474609375,-0.16845451295375824,-0.02013627253472805,0.01546824537217617
1738005561537683700,9.72468359375,-0.14005056023597717,0.06516584008932114,-0.00697953999042511
1738005561547751700,9.734751708984374,-0.15273137390613556,0.019685491919517517,-0.036100368946790695
1738005561557820700,9.744820556640626,-0.13573987782001495,0.01795044355094433,-0.02998681366443634
1738005561567889700,9.7548896484375,-0.0834314301609993,0.01971927285194397,0.006126550957560539
1738005561577957600,9.76495751953125,-0.046178337186574936,-0.055281732231378555,0.006745203398168087
1738005561588027000,9.77502685546875,-0.07427085936069489,0.1189238578081131,-0.025570614263415337
1738005561598095600,9.785095703125,-0.16865728795528412,-0.032183364033699036,0.019041594117879868
1738005561608163800,9.795163818359375,-0.21212680637836456,-0.023757435381412506,-0.007518475875258446
1738005561618232800,9.80523291015625,-0.17423027753829956,0.023008473217487335,-0.012769697234034538
1738005561628301800,9.8153017578125,-0.19705891609191895,-0.009382037445902824,-0.0028123976662755013
1738005561638369800,9.825369873046874,-0.2220311015844345,0.020097557455301285,-0.03111487627029419
1738005561648438800,9.835438720703126,-0.21927931904792786,0.11095227301120758,-0.010896088555455208
1738005561658507800,9.8455078125,-0.23454561829566956,-0.033123407512903214,0.010232366621494293
1738005561668575700,9.85557568359375,-0.2548374533653259,0.008785214275121689,-0.025824464857578278
1738005561678644700,9.865644775390624,-0.15549008548259735,0.055633679032325745,0.015240149572491646
1738005561688713700,9.875713623046876,-0.130856454372406,0.09347883611917496,-0.0038371821865439415
1738005561698781700,9.88578173828125,-0.15426591038703918,-0.10800794512033463,0.01371757686138153
1738005561708851000,9.895850830078125,-0.22323252260684967,0.12227525562047958,-0.04165031760931015
1738005561718919000,9.9059189453125,-0.16985104978084564,-0.004889088682830334,0.0027725398540496826
1738005561728987600,9.915987548828125,-0.18859219551086426,-0.06679204106330872,0.018102426081895828
1738005561739057000,9.926056884765625,-0.15714825689792633,0.013224498368799686,-0.04177022725343704
1738005561749124900,9.936124755859375,-0.07592912763357162,-0.0010459907352924347,-0.004090047441422939
1738005561759193600,9.946193603515624,0.04506281018257141,-0.042560677975416183,0.0256662517786026
1738005561769262800,9.956262939453126,0.10750550776720047,-0.06953243166208267,-0.025740662589669228
1738005561779330800,9.966330810546875,0.1277998685836792,0.04636593908071518,-0.0045379046350717545
1738005561789399600,9.976399658203125,0.07440848648548126,-0.008436281234025955,-0.020502861589193344
1738005561799468800,9.98646875,0.12562187016010284,0.03903376683592796,0.009403906762599945
1738005561809536800,9.996536865234376,0.14780785143375397,-0.03803606331348419,0.00225625466555357
1738005561819605800,10.006605712890625,0.09882833063602448,-0.02618126943707466,-0.0014444738626480103
1738005561829674800,10.0166748046875,0.06520871818065643,0.04523826390504837,0.017426444217562675
1738005561839742700,10.02674267578125,-0.014236043207347393,0.03324578329920769,0.001994224265217781
1738005561849811700,10.036811767578126,-0.008204297162592411,-0.06495464593172073,0.015302374958992004
1738005561859879700,10.046879638671875,-0.0879201591014862,-0.04095529764890671,-0.006471897475421429
1738005561869948700,10.05694873046875,-0.07207135111093521,0.07383425533771515,0.00907226838171482
1738005561880017700,10.067017578125,-0.15959906578063965,-0.0027579914312809706,-0.006559687666594982
1738005561890085600,10.077085693359376,-0.23649683594703674,-0.011283930391073227,-0.014416213147342205
1738005561900155000,10.08715478515625,-0.1504029631614685,-0.01953493431210518,0.014462838880717754
1738005561910223600,10.0972236328125,-0.2285519242286682,0.020473157986998558,-0.0006173467263579369
1738005561920291600,10.10729150390625,-0.19574789702892303,-0.02138800546526909,-0.006551402620971203
1738005561930360800,10.11736083984375,-0.23325903713703156,0.06162664294242859,-0.018574032932519913
1738005561940429600,10.1274296875,-0.21654877066612244,-0.013141605071723461,0.001163187436759472
1738005561950497500,10.13749755859375,-0.19723469018936157,0.009234443306922913,-0.0011995816603302956
1738005561960566800,10.14756689453125,-0.2138538807630539,0.03531504422426224,-0.007641767151653767
1738005561970634800,10.157634765625,-0.20875592529773712,0.025504015386104584,0.015939965844154358
1738005561980703700,10.167703857421875,-0.2881295680999756,0.04262014850974083,-0.017428377643227577
1738005561990772700,10.177772705078125,-0.2673428952693939,0.017206035554409027,-0.010505096055567265
1738005562000840700,10.1878408203125,-0.23890353739261627,0.08365296572446823,-0.01005315687507391
1738005562010909700,10.19790966796875,-0.17093795537948608,0.024107642471790314,-0.01159131620079279
1738005562020978700,10.207978759765625,-0.15560559928417206,-0.02007366716861725,-0.02046017348766327
1738005562031046700,10.218046630859375,-0.09401115030050278,0.06730840355157852,0.0035243509337306023
1738005562041115600,10.22811572265625,-0.11140505224466324,0.06391847133636475,-0.024275854229927063
1738005562051184600,10.2381845703125,-0.0698600634932518,0.02451920323073864,-0.0008503058925271034
1738005562061252900,10.2482529296875,-0.07079776376485825,0.07405160367488861,-0.037718843668699265
1738005562071321600,10.258321533203125,-0.08814089745283127,0.057537566870450974,-0.02536820061504841
1738005562081389600,10.2683896484375,-0.09348080307245255,0.05148979276418686,-0.01864425279200077
1738005562091458800,10.278458740234376,-0.008593816310167313,0.030732616782188416,0.00892089307308197
1738005562101527800,10.28852783203125,0.007993150502443314,-0.005560677964240313,0.01644512265920639
1738005562111595500,10.298595458984375,0.00879607442766428,0.004582847934216261,-0.02007341757416725
1738005562121664800,10.308664794921874,0.06772304326295853,-0.03741653263568878,0.004476400092244148
1738005562131733800,10.318733642578126,0.05056712403893471,-0.025622498244047165,-0.0037402883172035217
1738005562141801700,10.3288017578125,0.01700809970498085,-0.0010178214870393276,-0.0052159447222948074
1738005562151870700,10.33887060546875,0.07238240540027618,0.010377579368650913,0.010732661932706833
1738005562161940000,10.34893994140625,0.10243351757526398,0.01735745742917061,-0.012410208582878113
1738005562172007700,10.359007568359376,0.15981680154800415,-0.015811441466212273,-0.00335634034126997
1738005562182076700,10.36907666015625,0.123459592461586,-0.020988892763853073,0.008490199223160744
1738005562192144600,10.37914453125,0.05704446882009506,-0.015763908624649048,-0.0017911707982420921
1738005562202214000,10.3892138671875,0.07179012894630432,-0.030994795262813568,0.0030667008832097054
1738005562212282600,10.39928271484375,0.06563572585582733,-0.0005557024851441383,0.01905015856027603
1738005562222350800,10.409350830078125,0.024609200656414032,-0.03373975679278374,0.006608669646084309
1738005562232419800,10.419419921875,0.03406437113881111,-0.010935768485069275,0.013772009871900082
1738005562242488600,10.429488525390624,-0.05237091705203056,0.06771456450223923,-0.024057662114501
1738005562252556800,10.439556884765626,-0.058244213461875916,0.03005092591047287,-0.011553964577615261
1738005562262625800,10.449625732421875,-0.11283927410840988,0.05629824101924896,0.003221784718334675
1738005562272694800,10.45969482421875,-0.13849546015262604,0.011465313844382763,-0.00026517920196056366
1738005562282762800,10.4697626953125,-0.0775439664721489,-0.017481915652751923,0.008104337379336357
1738005562292831700,10.479831787109376,-0.03745673969388008,0.0002800379879772663,0.0007910300046205521
1738005562302899700,10.489899658203125,-0.0753662958741188,0.05793055146932602,-0.016320310533046722
1738005562312968700,10.49996875,-0.04570230469107628,0.006167782470583916,0.01127384789288044
1738005562323037700,10.51003759765625,-0.05853767320513725,-0.0009516463615000248,-0.003595646470785141
1738005562333106000,10.52010595703125,-0.045669835060834885,0.03635399043560028,-0.018880005925893784
1738005562343174700,10.530174560546875,0.027564432471990585,-0.010325362905859947,0.0006715934723615646
1738005562353244000,10.540243896484375,-0.021465787664055824,0.014018219895660877,0.018804650753736496
1738005562363311900,10.550311767578124,-0.0951024517416954,0.0029578469693660736,0.004996960051357746
1738005562373380600,10.560380615234376,-0.0033822227269411087,-0.025663258507847786,0.007588608656078577
1738005562383447800,10.57044775390625,-0.09411478787660599,-0.016744863241910934,-0.00014361366629600525
1738005562393517000,10.58051708984375,-0.04045751318335533,0.02171247825026512,-0.004673418588936329
1738005562403585800,10.590585693359374,-0.06660576164722443,-0.000293221790343523,0.006030358374118805
1738005562413654000,10.600654052734376,-0.027593720704317093,-0.0069421883672475815,0.005949839949607849
1738005562423723000,10.610722900390625,-0.17262759804725647,0.0028185630217194557,-0.002846847288310528
1738005562433792000,10.6207919921875,-0.002881185617297888,0.016598723828792572,0.005725651979446411
1738005562443860000,10.63085986328125,-0.04020139202475548,0.027935799211263657,0.009050343185663223
1738005562453929000,10.640928955078126,-0.1010063961148262,0.00029717013239860535,0.008563727140426636
1738005562463997000,10.650996826171875,-0.057411253452301025,-0.008044116199016571,-0.006481802091002464
1738005562474066000,10.66106591796875,-0.0186637993901968,-0.002644260646775365,-0.00450031366199255
1738005562484135000,10.671135009765624,-0.024775221943855286,-0.002947860863059759,-0.0017292937263846397
1738005562494203100,10.681203125,0.02432490698993206,-0.005302106495946646,-0.005257387645542622
1738005562504272000,10.69127197265625,0.04050334542989731,-0.00021759932860732079,-0.0000999104231595993
1738005562514340900,10.7013408203125,0.04825901985168457,-0.002321406966075301,-0.0014823619276285172
1738005562524409000,10.7114091796875,0.03959576040506363,0.005913885775953531,-0.0006474610418081284
1738005562534477800,10.721477783203126,0.028792813420295715,0.006555861793458462,-0.0032460466027259827
1738005562544547000,10.731547119140625,0.10035381466150284,-0.005826505832374096,0.001631532795727253
1738005562554615000,10.741614990234375,0.07791037112474442,-0.008091332390904427,0.00643287505954504
1738005562564684000,10.75168408203125,0.032853417098522186,0.0014401213265955448,-0.0013669906184077263
1738005562574752000,10.761751953125,-0.0014974819496273994,-0.007189350202679634,0.0017789201810956001
1738005562584821000,10.771821044921875,-0.07257937639951706,0.002410280052572489,-0.0023641595616936684
1738005562594890000,10.781889892578125,-0.03905750811100006,-0.0013280478306114674,0.00034643057733774185
1738005562604958000,10.7919580078125,-0.005631372798234224,0.002858441788703203,0.0015248795971274376
1738005562615027000,10.80202685546875,0.0016476744785904884,0.007955405861139297,-0.005809645168483257
1738005562625096200,10.81209619140625,-0.024261686950922012,0.003605398815125227,-0.005928155966103077
1738005562635164000,10.822163818359375,-0.024154743179678917,0.004711112938821316,0.0034591378644108772
1738005562645233000,10.83223291015625,0.014624610543251038,0.0006364765577018261,0.000031649135053157806
1738005562655301000,10.842301025390626,-0.031091518700122833,0.0006013805978000164,-0.008157406002283096
1738005562665370000,10.8523701171875,-0.10629066824913025,0.005029951222240925,-0.006475353613495827
1738005562675438800,10.86243896484375,-0.07014944404363632,-0.0010236585512757301,-0.004526876844465733
1738005562685507000,10.872507080078124,0.002161235548555851,-0.0062157572247087955,-0.00463287066668272
1738005562695576000,10.882576171875,0.06273435056209564,-0.0011499719694256783,0.000791182741522789
1738005562705645000,10.89264501953125,0.058053843677043915,-0.004431519191712141,0.0004244660958647728
1738005562715713000,10.902713134765625,0.025383666157722473,0.00022968370467424393,0.007035466842353344
1738005562725782000,10.912781982421874,0.010611378587782383,0.007374944631010294,0.0048194508999586105
1738005562735850000,10.92285009765625,-0.0015973965637385845,0.003993343096226454,0.0024194158613681793
1738005562745919000,10.9329189453125,0.004389123525470495,0.00004014745354652405,-0.001604354940354824
1738005562755988000,10.942988037109375,0.0016353470273315907,0.0014476864598691463,-0.00027307774871587753
1738005562766056000,10.953055908203124,0.0004086950793862343,-0.0015592887066304684,0.0019834190607070923
1738005562776125000,10.963125,-0.00020745210349559784,-0.0031055656727403402,-0.00010239053517580032
1738005562786194200,10.973194091796875,0.001960893627256155,0.0002228529192507267,0.0020558349788188934
1738005562796262100,10.98326220703125,0.0001456988975405693,-0.001084841787815094,0.0013665510341525078
1738005562806331000,10.993330810546874,0.0039012888446450233,0.0025658193044364452,0.0002509532496333122
1738005562816399000,11.003399169921876,0.0015075504779815674,0.002398806158453226,0.0017681224271655083
1738005562826468000,11.013468017578125,0.0038812258280813694,-0.0001895199529826641,0.0006924709305167198
1738005562836536800,11.023536865234375,0.0005726106464862823,0.00024158833548426628,0.0021999068558216095
1738005562846605000,11.03360498046875,0.002294877078384161,-0.0009320667013525963,-0.00019560661166906357
1738005562856674000,11.043674072265626,0.0014664880000054836,0.0007346733473241329,0.0012599965557456017
1738005562866742000,11.053741943359375,0.00013890210539102554,-0.00017852475866675377,-0.0007195305079221725
1738005562876811000,11.06381103515625,0.002974533010274172,-0.0017302976921200752,0.0011798609048128128
1738005562886880000,11.0738798828125,0.0005563828162848949,-0.002062660176306963,0.0010610837489366531
1738005562896948200,11.0839482421875,0.002563664223998785,0.0004851166158914566,-0.0026938263326883316
1738005562907017000,11.094016845703125,0.00013060029596090317,-0.0000453852117061615,0.002267909236252308
1738005562917086000,11.1040859375,0.0013436698354780674,0.000926668755710125,0.002516116015613079
1738005562927154200,11.114154296875,0.0012645740061998367,0.0010270699858665466,-0.0009515862911939621
1738005562937223000,11.124222900390626,0.003142125438898802,0.0019235825166106224,0.000833793543279171
1738005562947291000,11.134290771484375,-0.0009154672734439373,-0.00012785056605935097,-0.001913788728415966
1738005562957360000,11.144360107421875,0.00027673644945025444,-0.0004035262390971184,0.0014923587441444397
1738005562967428900,11.154428955078124,0.0005691512487828732,-0.002283185487613082,0.0004888800904154778
1738005562977497000,11.1644970703125,-0.00031684571877121925,-0.0007244274020195007,0.0014696614816784859
1738005562987566000,11.174566162109375,0.0007529463618993759,-0.000371025875210762,-0.00020626559853553772
1738005562997634800,11.184634765625,0.0020732791163027287,0.00364128639921546,-0.0016627376899123192
1738005563007703000,11.194703125,-0.0008151857182383537,0.00042179133743047714,-0.0007426152005791664
1738005563017772000,11.20477197265625,-0.00025760987773537636,0.00009445380419492722,0.0005399296060204506
1738005563027840000,11.214840087890625,-0.00002085510641336441,-0.0009633535519242287,0.0009010545909404755
1738005563037909000,11.224908935546875,0.0007774005644023418,0.001884582918137312,-0.0021224571391940117
1738005563047978000,11.23497802734375,-0.0007685641758143902,-0.0006773783825337887,-0.0016167210415005684
1738005563058046200,11.245046142578126,0.0018985187634825706,0.0009395796805620193,0.00014273729175329208
1738005563068115000,11.255114990234375,-0.00021603098139166832,-0.000006908085197210312,-0.0013475669547915459
1738005563078183000,11.265182861328125,0.0009122537449002266,-0.0005725058726966381,0.0005754129961133003
1738005563088252200,11.275252197265624,-0.0012606193777173758,0.0011183349415659904,0.0015511959791183472
1738005563098321000,11.28532080078125,0.0018231915310025215,-0.00036668963730335236,-0.003243798390030861
1738005563108388900,11.295388916015625,-0.0002471497282385826,-0.00033925892785191536,0.000020969659090042114
1738005563118458000,11.3054580078125,0.0011196322739124298,0.002004875335842371,0.00043705012649297714
1738005563128526800,11.31552685546875,-0.0005347235128283501,0.001423773355782032,-0.0010111769661307335
1738005563138595000,11.325594970703126,0.0014948844909667969,0.0016792532987892628,-0.0008917590603232384
1738005563148664000,11.3356640625,0.00067170150578022,-0.0009695268236100674,0.0012057460844516754
1738005563158732000,11.34573193359375,0.0003499472513794899,-0.00196972768753767,0.0015676775947213173
1738005563168801000,11.355801025390624,-0.0000359448604285717,-0.0018671955913305283,0.0020254747942090034
1738005563178870000,11.3658701171875,0.00007310695946216583,-0.000853286124765873,-0.00003237742930650711
1738005563188938000,11.37593798828125,-0.00020812265574932098,-0.0026860733050853014,0.0011226357892155647
1738005563199007000,11.386007080078125,-0.0011722841300070286,0.0017998116090893745,0.00015129335224628448
1738005563209076000,11.396075927734374,-0.00014829868450760841,-0.002263373229652643,0.000022662803530693054
1738005563219144200,11.406144287109376,0.0006802105344831944,-0.0010875877924263477,-0.002213328145444393
1738005563229213000,11.416212890625,0.0009310804307460785,-0.003379504196345806,-0.0008077109232544899
1738005563239281000,11.426281005859375,-0.0015779114328324795,-0.0002977922558784485,0.0017491914331912994
1738005563249350100,11.43635009765625,-0.0023102806881070137,0.00231210608035326,-0.0005595022812485695
1738005563259419000,11.4464189453125,-0.00044871121644973755,0.002741497941315174,0.0002408856526017189
1738005563269486800,11.45648681640625,-0.00019437959417700768,0.001368638128042221,0.0004779072478413582
1738005563279556000,11.46655615234375,-0.001249557826668024,0.000043443404138088226,0.00042512547224760056
1738005563289624000,11.4766240234375,0.0009068036451935768,0.000379001721739769,-0.0005900710821151733
1738005563299693000,11.486693115234376,-0.001348248915746808,-0.000695458147674799,-0.0009793955832719803
1738005563309762000,11.496761962890625,-0.005299847107380629,-0.0012794891372323036,0.00003633461892604828
1738005563319830000,11.506830078125,-0.0039045752491801977,0.0014257635921239853,0.0006908318027853966
1738005563329899000,11.51689892578125,-0.0059509482234716415,-0.0006728074513375759,0.0012152083218097687
1738005563339967000,11.526967041015626,-0.005686430260539055,0.0013218089006841183,-0.0009221425279974937
1738005563350036000,11.537035888671875,-0.0063157351687550545,0.00023337500169873238,-0.0017703594639897346
1738005563360105000,11.54710498046875,-0.005008825100958347,0.00024950364604592323,0.00047780387103557587
1738005563370173000,11.5571728515625,-0.004975535441190004,0.000054294243454933167,-0.0015291543677449226
1738005563380242000,11.567241943359376,-0.004677186254411936,0.0028752973303198814,0.001511390320956707
1738005563390310700,11.577310546875,-0.006133402697741985,-0.002184442710131407,-0.000697702169418335
1738005563400379000,11.58737890625,-0.005188695155084133,-0.0011595557443797588,0.0006931144744157791
1738005563410448000,11.59744775390625,-0.0011113956570625305,-0.001137185376137495,-0.0004544416442513466
1738005563420515800,11.607515869140625,0.0000288328155875206,0.0007276465184986591,-0.00010185223072767258
1738005563430584800,11.617584716796875,0.0014975662343204021,0.0006799758411943913,-0.0015892265364527702
1738005563440653800,11.62765380859375,-0.0014700568281114101,0.0005732253193855286,-0.0006883861497044563
1738005563450722000,11.63772216796875,-0.0008463445119559765,0.00031223520636558533,0.0012946035712957382
1738005563460790800,11.647790771484376,-0.0005251104012131691,-0.0001378105953335762,-0.0005931379273533821
1738005563470858800,11.657858642578125,-0.0010601396206766367,0.000682709738612175,-0.0009603872895240784
1738005563480928000,11.667927978515625,-0.0003786482848227024,-0.0004937476478517056,-0.002357039600610733
1738005563490996700,11.677996826171874,-0.00150756211951375,-0.002089513698592782,-0.00023290235549211502
1738005563501064700,11.688064697265625,0.0009125503711402416,-0.00176966842263937,-0.0010386565700173378
1738005563511134000,11.698134033203125,0.0001639360561966896,0.0013616764917969704,0.00010836683213710785
1738005563521202000,11.708201904296875,-0.0000589294359087944,0.0011254786513745785,-0.00008621439337730408
1738005563531271000,11.71827099609375,-0.0005076718516647816,0.0026796991005539894,0.0017508342862129211
1738005563541340000,11.72833984375,0.0007434678263962269,-0.00026141200214624405,0.0017966404557228088
1738005563551407900,11.738407958984375,0.0004563787952065468,-0.0012523741461336613,-0.00012243352830410004
1738005563561476900,11.748476806640625,-0.0023111915215849876,-0.001560150645673275,0.0014999378472566605
1738005563571545900,11.7585458984375,-0.006782905198633671,0.00017196917906403542,-0.000445500947535038
1738005563581613800,11.76861376953125,-0.005453553982079029,0.0004701889120042324,-0.0009516403079032898
1738005563591682800,11.778682861328125,-0.0011890341993421316,0.0020443834364414215,0.0007618376985192299
1738005563601750800,11.788750732421875,-0.0035955922212451696,-0.00035117100924253464,0.00029524974524974823
1738005563611820000,11.798820068359374,-0.003082933835685253,0.0017860159277915955,-0.001039525493979454
1738005563621888800,11.808888671875,-0.00435083732008934,0.0018252613954246044,0.002453305758535862
1738005563631956700,11.818956787109375,-0.0032110041938722134,-0.0004964824765920639,0.0013004234060645103
1738005563642026000,11.82902587890625,-0.003096459899097681,0.0006783371791243553,-0.0001322505995631218
1738005563652094000,11.839093994140624,-0.004328438080847263,-0.000009024515748023987,-0.0007911166176199913
1738005563662162700,11.84916259765625,-0.0035932110622525215,-0.000730056781321764,-0.00006416812539100647
