time,seconds_elapsed,z,y,x
1738005551841528800,0.02852880859375,-33.856109619140625,16.40130615234375,14.202434539794922
1738005551851597800,0.038597900390625,-33.994720458984375,16.35271453857422,14.134441375732422
1738005551861666800,0.048666748046875,-33.997589111328125,16.049972534179688,14.075557708740234
1738005551871734800,0.05873486328125,-34.109893798828125,15.352066040039062,13.879507064819336
1738005551881803800,0.0688037109375,-34.438995361328125,15.308929443359375,13.815641403198242
1738005551891872800,0.078872802734375,-34.288543701171875,15.405601501464844,13.614633560180664
1738005551901940700,0.088940673828125,-34.572296142578125,15.33636474609375,13.840629577636719
1738005551912010000,0.099010009765625,-34.050323486328125,15.790779113769531,13.791500091552734
1738005551922078700,0.10907861328125,-34.054351806640625,15.883544921875,14.101863861083984
1738005551932146700,0.119146728515625,-34.058258056640625,15.801628112792969,14.02763557434082
1738005551942216000,0.1292158203125,-34.107269287109375,15.848320007324219,14.078500747680664
1738005551952285000,0.139284912109375,-34.251373291015625,15.606842041015625,13.965597152709961
1738005551962352600,0.1493525390625,-33.884796142578125,15.632011413574219,14.033750534057617
1738005551972422000,0.159421875,-33.768280029296875,15.588790893554688,13.828189849853516
1738005551982491000,0.169490966796875,-33.735321044921875,15.721145629882812,13.917074203491211
1738005551992558800,0.179558837890625,-34.059112548828125,15.821395874023438,13.95009994506836
1738005552002627800,0.1896279296875,-34.200042724609375,15.749702453613281,13.891534805297852
1738005552012697000,0.199697021484375,-34.276336669921875,15.39678955078125,13.90390396118164
1738005552022764800,0.209764892578125,-33.838226318359375,15.501197814941406,14.097013473510742
1738005552032833800,0.219833740234375,-34.010894775390625,15.787940979003906,14.008460998535156
1738005552042903000,0.229903076171875,-34.108856201171875,15.584770202636719,13.938667297363281
1738005552052971000,0.239970947265625,-34.287506103515625,15.645751953125,13.778291702270508
1738005552063039700,0.250039794921875,-34.037994384765625,15.504478454589844,13.786693572998047
1738005552073109000,0.26010888671875,-34.083953857421875,15.659767150878906,13.824495315551758
1738005552083177000,0.270177001953125,-33.900299072265625,15.408103942871094,14.121198654174805
1738005552093246000,0.280245849609375,-34.389007568359375,15.517868041992188,14.028083801269531
1738005552103315000,0.29031494140625,-34.187347412109375,15.611701965332031,13.878374099731445
1738005552113383000,0.3003828125,-33.978118896484375,15.443862915039062,14.01325798034668
1738005552123452000,0.310451904296875,-34.161407470703125,15.410362243652344,14.036397933959961
1738005552133521000,0.32052099609375,-34.280853271484375,15.674079895019531,13.798389434814453
1738005552143588900,0.3305888671875,-34.027008056640625,15.729568481445312,14.012969970703125
1738005552153657900,0.340657958984375,-34.251495361328125,15.734504699707031,14.315055847167969
1738005552163726800,0.350726806640625,-33.971893310546875,15.534431457519531,14.12612533569336
1738005552173795000,0.360795166015625,-33.861358642578125,15.724189758300781,14.089044570922852
1738005552183863800,0.37086376953125,-34.148345947265625,15.855339050292969,13.810491561889648
1738005552193932800,0.380932861328125,-34.004669189453125,15.8272705078125,13.958593368530273
1738005552204001000,0.3910009765625,-33.720794677734375,15.761520385742188,13.968891143798828
1738005552214069800,0.40106982421875,-34.229827880859375,15.770111083984375,13.97713851928711
1738005552224139000,0.411138916015625,-34.034149169921875,15.698356628417969,13.978578567504883
1738005552234207000,0.42120703125,-34.129730224609375,15.447731018066406,13.89249038696289
1738005552244275700,0.431275634765625,-33.985198974609375,15.322395324707031,13.893739700317383
1738005552254345000,0.441344970703125,-33.640289306640625,15.620033264160156,14.029748916625977
1738005552264413000,0.451412841796875,-33.684295654296875,15.942680358886719,13.98774528503418
1738005552274481700,0.461481689453125,-33.751861572265625,15.455833435058594,13.918460845947266
1738005552284551000,0.471551025390625,-33.861053466796875,15.538734436035156,14.075035095214844
1738005552294619000,0.481618896484375,-34.080963134765625,15.33123779296875,14.077537536621094
1738005552304687900,0.49168798828125,-33.707122802734375,15.485610961914062,14.09469985961914
1738005552314756900,0.5017568359375,-33.536468505859375,15.650520324707031,13.881494522094727
1738005552324824800,0.511824951171875,-33.578948974609375,15.66851806640625,13.669692993164062
1738005552334893800,0.521893798828125,-34.180389404296875,15.452621459960938,13.726421356201172
1738005552344962800,0.531962890625,-33.791900634765625,15.243721008300781,13.816085815429688
1738005552355030800,0.54203076171875,-33.725372314453125,15.560554504394531,13.647048950195312
1738005552365100300,0.552100341796875,-33.588165283203125,15.625358581542969,13.663551330566406
1738005552375169300,0.562169189453125,-33.412384033203125,15.777420043945312,13.988916397094727
1738005552385237500,0.572237548828125,-33.478424072265625,15.695999145507812,13.855709075927734
1738005552395306200,0.58230615234375,-33.436553955078125,15.713409423828125,13.774887084960938
1738005552405375500,0.59237548828125,-33.865570068359375,15.771896362304688,13.887657165527344
1738005552415443500,0.602443359375,-33.951446533203125,15.574089050292969,13.939870834350586
1738005552425512200,0.61251220703125,-33.951812744140625,15.745399475097656,13.695619583129883
1738005552435581400,0.62258154296875,-33.538116455078125,15.640327453613281,13.758840560913086
1738005552445649400,0.6326494140625,-33.711395263671875,15.652938842773438,13.70938491821289
1738005552455718400,0.642718505859375,-33.860748291015625,15.665657043457031,13.99685287475586
1738005552465787400,0.652787353515625,-33.891632080078125,15.459129333496094,14.074422836303711
1738005552475855400,0.66285546875,-33.829254150390625,15.680519104003906,13.960813522338867
1738005552485924600,0.672924560546875,-33.752838134765625,15.975975036621094,13.96096420288086
1738005552495993300,0.682993408203125,-34.036529541015625,15.828529357910156,13.873199462890625
1738005552506061300,0.693061279296875,-33.813201904296875,15.664894104003906,13.90150260925293
1738005552516130600,0.703130615234375,-33.387908935546875,15.746406555175781,13.633010864257812
1738005552526199300,0.71319921875,-33.658294677734375,15.733551025390625,13.741643905639648
1738005552536267300,0.723267333984375,-33.817779541015625,16.082664489746094,13.852706909179688
1738005552546336500,0.73333642578125,-33.567779541015625,15.673744201660156,13.65736198425293
1738005552556405200,0.7434052734375,-33.918487548828125,15.732101440429688,13.905572891235352
1738005552566473500,0.753473388671875,-33.673736572265625,15.676353454589844,13.752193450927734
1738005552576542500,0.76354248046875,-34.171966552734375,15.719512939453125,13.76828384399414
1738005552586611200,0.773611083984375,-33.975128173828125,15.870582580566406,13.640867233276367
1738005552596679400,0.783679443359375,-33.640106201171875,15.659660339355469,13.995536804199219
1738005552606748400,0.79374853515625,-33.849090576171875,15.467933654785156,13.673637390136719
1738005552616817400,0.8038173828125,-34.525604248046875,15.675704956054688,13.458616256713867
1738005552626885400,0.813885498046875,-34.574859619140625,15.565216064453125,13.581878662109375
1738005552636954400,0.823954345703125,-34.130157470703125,15.55316162109375,13.659412384033203
1738005552647023400,0.8340234375,-34.237335205078125,15.5135498046875,13.491649627685547
1738005552657091300,0.84409130859375,-34.253509521484375,15.430076599121094,13.641733169555664
1738005552667160300,0.854160400390625,-34.192962646484375,15.482955932617188,13.793859481811523
1738005552677229300,0.864229248046875,-33.812713623046875,15.529251098632812,13.945989608764648
1738005552687297300,0.87429736328125,-33.804351806640625,15.49560546875,13.752912521362305
1738005552697366500,0.884366455078125,-33.866729736328125,15.783561706542969,13.33028793334961
1738005552707435300,0.894435302734375,-33.881500244140625,15.811019897460938,13.530815124511719
1738005552717503200,0.904503173828125,-33.720794677734375,15.725746154785156,13.74742317199707
1738005552727572500,0.914572509765625,-33.873992919921875,15.576690673828125,13.977025985717773
1738005552737641200,0.92464111328125,-33.959564208984375,15.55560302734375,13.934883117675781
1738005552747709200,0.934709228515625,-34.187225341796875,15.579315185546875,13.779125213623047
1738005552757778400,0.9447783203125,-33.845306396484375,15.694869995117188,13.859838485717773
1738005552767847400,0.954847412109375,-33.486114501953125,15.428062438964844,13.992439270019531
1738005552777915400,0.964915283203125,-33.516082763671875,15.391845703125,13.932043075561523
1738005552787984400,0.974984375,-33.626556396484375,15.375518798828125,13.677410125732422
1738005552798053400,0.985053466796875,-34.376434326171875,15.310523986816406,13.792268753051758
1738005552808121300,0.995121337890625,-34.254852294921875,15.57183837890625,13.827774047851562
1738005552818190300,1.0051904296875,-34.174346923828125,15.426239013671875,13.737943649291992
1738005552828259600,1.015259521484375,-34.180633544921875,15.582687377929688,13.627046585083008
1738005552838327300,1.025327392578125,-34.278289794921875,15.469795227050781,13.579132080078125
1738005552848396300,1.035396240234375,-34.008026123046875,15.633354187011719,13.738470077514648
1738005552858465500,1.045465576171875,-34.061248779296875,15.450569152832031,13.956401824951172
1738005552868533200,1.055533203125,-33.542144775390625,15.49993896484375,13.948204040527344
1738005552878602200,1.065602294921875,-33.565093994140625,15.598770141601562,13.646127700805664
1738005552888671500,1.07567138671875,-33.840545654296875,15.7208251953125,13.619449615478516
1738005552898739500,1.085739501953125,-33.672943115234375,15.763671875,13.576370239257812
1738005552908808400,1.095808349609375,-33.657501220703125,15.718254089355469,13.841419219970703
1738005552918877400,1.10587744140625,-34.182098388671875,15.747123718261719,13.660491943359375
1738005552928945400,1.1159453125,-33.904266357421875,15.628349304199219,13.899505615234375
1738005552939014400,1.126014404296875,-33.753326416015625,15.613357543945312,13.802328109741211
1738005552949083400,1.13608349609375,-34.009185791015625,15.832481384277344,13.86300277709961
1738005552959151400,1.1461513671875,-33.825286865234375,15.843589782714844,13.91897964477539
1738005552969220400,1.156220458984375,-33.557525634765625,15.6357421875,13.67874526977539
1738005552979289300,1.166289306640625,-33.803985595703125,15.580810546875,13.653982162475586
1738005552989358300,1.1763583984375,-33.884490966796875,15.613174438476562,13.841316223144531
1738005552999426300,1.18642626953125,-33.689849853515625,15.76171875,13.634286880493164
1738005553009495300,1.196495361328125,-33.768157958984375,15.689956665039062,13.486017227172852
1738005553019564300,1.206564208984375,-34.039093017578125,15.601593017578125,13.813508987426758
1738005553029632300,1.21663232421875,-34.259918212890625,15.605545043945312,13.916891098022461
1738005553039701500,1.226701416015625,-33.961456298828125,15.752952575683594,13.74659538269043
1738005553049770200,1.236770263671875,-33.790618896484375,15.594589233398438,13.885881423950195
1738005553059838200,1.246838134765625,-34.007293701171875,15.587257385253906,13.731830596923828
1738005553069907500,1.256907470703125,-33.790313720703125,15.596549987792969,13.653371810913086
1738005553079976400,1.2669765625,-33.879669189453125,15.751571655273438,13.744163513183594
1738005553090044200,1.277044189453125,-33.803192138671875,15.624549865722656,13.692773818969727
1738005553100113400,1.287113525390625,-34.115753173828125,15.738075256347656,13.848794937133789
1738005553110182400,1.297182373046875,-33.925506591796875,15.476318359375,13.747528076171875
1738005553120250400,1.30725048828125,-34.265716552734375,15.316299438476562,13.844524383544922
1738005553130319400,1.3173193359375,-33.668914794921875,15.234527587890625,13.780895233154297
1738005553140388400,1.327388427734375,-33.456329345703125,15.334190368652344,13.731315612792969
1738005553150456300,1.337456298828125,-33.851165771484375,15.195877075195312,13.731241226196289
1738005553160525300,1.347525390625,-33.871063232421875,15.317832946777344,13.653030395507812
1738005553170594600,1.357594482421875,-33.775726318359375,15.37786865234375,13.733816146850586
1738005553180662300,1.367662353515625,-33.607818603515625,15.552078247070312,13.619661331176758
1738005553190731300,1.377731201171875,-34.094085693359375,15.391319274902344,13.667032241821289
1738005553200800500,1.387800537109375,-34.147857666015625,15.105018615722656,13.560514450073242
1738005553210868500,1.397868408203125,-34.105072021484375,15.381004333496094,13.774368286132812
1738005553220937200,1.407937255859375,-33.964202880859375,15.1575927734375,13.889398574829102
1738005553231006500,1.41800634765625,-33.997589111328125,15.370628356933594,13.920368194580078
1738005553241075200,1.4280751953125,-33.958160400390625,15.330825805664062,13.847923278808594
1738005553251143400,1.438143310546875,-33.787811279296875,15.245826721191406,13.833528518676758
1738005553261212400,1.44821240234375,-33.811737060546875,15.249595642089844,13.641315460205078
1738005553271281400,1.458281494140625,-33.844085693359375,15.394271850585938,13.704721450805664
1738005553281349400,1.468349365234375,-33.834808349609375,15.090339660644531,13.60399055480957
1738005553291418400,1.47841845703125,-34.138214111328125,15.1854248046875,13.719575881958008
1738005553301487400,1.4884873046875,-34.360260009765625,15.023445129394531,13.625825881958008
1738005553311555300,1.498555419921875,-34.206146240234375,15.054702758789062,13.585628509521484
1738005553321624300,1.508624267578125,-33.878692626953125,15.288314819335938,13.814416885375977
1738005553331693300,1.518693359375,-33.781524658203125,15.318161010742188,13.566854476928711
1738005553341761300,1.52876123046875,-33.851409912109375,15.14031982421875,13.573080062866211
1738005553351830500,1.53883056640625,-33.776702880859375,14.972976684570312,13.651395797729492
1738005553361899300,1.548899169921875,-33.726165771484375,14.9989013671875,13.801019668579102
1738005553371967200,1.55896728515625,-33.956207275390625,15.03009033203125,13.880172729492188
1738005553382036500,1.569036376953125,-33.724151611328125,15.135833740234375,13.719377517700195
1738005553392105200,1.579105224609375,-34.001434326171875,15.215476989746094,13.571615219116211
1738005553402174500,1.589174560546875,-33.972198486328125,15.21630859375,13.589107513427734
1738005553412242400,1.599242431640625,-33.888031005859375,15.196617126464844,13.628120422363281
1738005553422311400,1.6093115234375,-33.803558349609375,15.058067321777344,13.549592971801758
1738005553432380400,1.61938037109375,-33.448333740234375,15.000450134277344,13.71412467956543
1738005553442448400,1.629448486328125,-33.690155029296875,15.050201416015625,13.349201202392578
1738005553452517400,1.639517333984375,-33.790557861328125,15.208198547363281,13.553041458129883
1738005553462586400,1.64958642578125,-34.015899658203125,15.247734069824219,13.552011489868164
1738005553472654300,1.659654296875,-33.940521240234375,15.062232971191406,13.602838516235352
1738005553482723600,1.6697236328125,-34.251434326171875,14.946571350097656,13.608013153076172
1738005553492792300,1.679792236328125,-33.971099853515625,14.887565612792969,13.57907485961914
1738005553502860300,1.6898603515625,-33.941986083984375,15.200141906738281,13.864980697631836
1738005553512929500,1.699929443359375,-34.114471435546875,15.454742431640625,13.873619079589844
1738005553522998300,1.709998291015625,-33.921295166015625,15.208213806152344,14.034032821655273
1738005553533066200,1.720066162109375,-34.031829833984375,15.389106750488281,14.029212951660156
1738005553543135500,1.730135498046875,-34.055938720703125,15.424644470214844,14.052412033081055
1738005553553204200,1.740204345703125,-34.075347900390625,15.086448669433594,13.958948135375977
1738005553563273500,1.7502734375,-34.058685302734375,15.295722961425781,13.85400390625
1738005553573341400,1.760341552734375,-33.900726318359375,15.289024353027344,14.073827743530273
1738005553583410200,1.77041015625,-34.170745849609375,15.338394165039062,13.972618103027344
1738005553593479400,1.7804794921875,-34.173187255859375,15.387046813964844,13.872652053833008
1738005553603547400,1.79054736328125,-34.385040283203125,15.304115295410156,13.910787582397461
1738005553613616400,1.800616455078125,-34.442718505859375,15.271797180175781,13.85432243347168
1738005553623685400,1.810685302734375,-34.398162841796875,15.261215209960938,13.721244812011719
1738005553633753300,1.82075341796875,-34.286834716796875,15.494712829589844,13.824581146240234
1738005553643822300,1.830822265625,-33.975250244140625,15.512596130371094,13.958040237426758
1738005553653891300,1.840891357421875,-34.309112548828125,15.340316772460938,14.008325576782227
1738005553663959300,1.850959228515625,-33.997406005859375,15.273696899414062,13.931282043457031
1738005553674028300,1.8610283203125,-34.256805419921875,15.340896606445312,13.85965347290039
1738005553684097300,1.87109716796875,-34.320831298828125,15.319686889648438,13.912994384765625
1738005553694166500,1.88116650390625,-34.343170166015625,15.423812866210938,13.899946212768555
1738005553704234200,1.891234130859375,-34.536895751953125,15.18292236328125,13.849315643310547
1738005553714303200,1.90130322265625,-34.387786865234375,15.413864135742188,13.804319381713867
1738005553724372500,1.91137255859375,-34.309173583984375,15.289085388183594,13.878360748291016
1738005553734440400,1.9214404296875,-34.618133544921875,15.416236877441406,13.819877624511719
1738005553744509400,1.931509521484375,-34.531890869140625,15.231895446777344,13.846296310424805
1738005553754578400,1.941578369140625,-34.338531494140625,15.236289978027344,13.744514465332031
1738005553764646400,1.951646484375,-34.253204345703125,15.191673278808594,13.660715103149414
1738005553774715400,1.96171533203125,-34.357574462890625,15.31988525390625,13.83729362487793
1738005553784784400,1.971784423828125,-34.536712646484375,15.340843200683594,13.920614242553711
1738005553794852400,1.981852294921875,-34.291229248046875,15.434661865234375,14.087949752807617
1738005553804921300,1.99192138671875,-34.121734619140625,15.575775146484375,13.89881706237793
1738005553814990300,2.001990234375,-34.247467041015625,15.7952880859375,14.140571594238281
1738005553825059300,2.012059326171875,-34.109832763671875,15.522880554199219,13.905389785766602
1738005553835127300,2.022127197265625,-33.877655029296875,15.402244567871094,13.680608749389648
1738005553845196500,2.032196533203125,-33.827423095703125,15.595649719238281,13.818962097167969
1738005553855265300,2.042265380859375,-33.861114501953125,15.644233703613281,13.929468154907227
1738005553865333200,2.052333251953125,-33.655975341796875,15.652305603027344,13.867216110229492
1738005553875402500,2.062402587890625,-33.665191650390625,15.621429443359375,13.925724029541016
1738005553885471200,2.07247119140625,-33.564117431640625,15.41845703125,13.890405654907227
1738005553895539200,2.082539306640625,-33.632476806640625,15.302452087402344,13.520944595336914
1738005553905608400,2.0926083984375,-34.023284912109375,15.394523620605469,13.616537094116211
1738005553915677200,2.10267724609375,-33.577484130859375,15.315238952636719,13.894943237304688
1738005553925746400,2.112746337890625,-33.804595947265625,15.535690307617188,13.656545639038086
1738005553935814400,2.122814453125,-33.787872314453125,15.462959289550781,13.950321197509766
1738005553945883400,2.13288330078125,-33.921600341796875,15.46051025390625,13.93574333190918
1738005553955952400,2.142952392578125,-33.959442138671875,15.330818176269531,13.535627365112305
1738005553966020400,2.153020263671875,-33.914276123046875,15.430389404296875,13.609691619873047
1738005553976089600,2.163089599609375,-34.208587646484375,15.361747741699219,13.836416244506836
1738005553986158300,2.173158447265625,-33.959442138671875,15.343269348144531,13.895814895629883
1738005553996226300,2.183226318359375,-33.783721923828125,15.287857055664062,13.977495193481445
1738005554006295600,2.193295654296875,-33.799041748046875,15.418037414550781,13.705421447753906
1738005554016364300,2.2033642578125,-33.416778564453125,15.399330139160156,13.836219787597656
1738005554026433500,2.21343359375,-33.643707275390625,15.381660461425781,13.7952880859375
1738005554036501500,2.22350146484375,-33.494537353515625,15.286643981933594,13.609832763671875
1738005554046570200,2.2335703125,-33.376312255859375,15.368682861328125,13.683338165283203
1738005554056639500,2.243639404296875,-33.876983642578125,15.366020202636719,13.663803100585938
1738005554066707500,2.25370751953125,-33.762420654296875,15.445343017578125,13.483217239379883
1738005554076776200,2.263776123046875,-33.671234130859375,15.461738586425781,13.534278869628906
1738005554086845400,2.273845458984375,-33.467010498046875,15.595832824707031,13.674673080444336
1738005554096913400,2.283913330078125,-33.498077392578125,15.522125244140625,13.68441390991211
1738005554106982400,2.293982421875,-33.572113037109375,15.444679260253906,13.873708724975586
1738005554117051400,2.304051513671875,-34.097686767578125,15.502235412597656,13.944982528686523
1738005554127119400,2.314119384765625,-33.769989013671875,15.618896484375,13.64900016784668
1738005554137188400,2.324188232421875,-33.720489501953125,15.815010070800781,13.486732482910156
1738005554147257300,2.33425732421875,-33.573272705078125,15.598876953125,13.574575424194336
1738005554157326300,2.344326416015625,-33.964935302734375,15.500152587890625,13.46418571472168
1738005554167394300,2.354394287109375,-33.830352783203125,15.627365112304688,13.554176330566406
1738005554177463300,2.36446337890625,-33.623382568359375,15.309097290039062,13.498638153076172
1738005554187532500,2.374532470703125,-33.321075439453125,15.441696166992188,13.444276809692383
1738005554197600300,2.384600341796875,-33.578277587890625,15.684684753417969,13.755531311035156
1738005554207669200,2.394669189453125,-34.018646240234375,15.372032165527344,13.622194290161133
1738005554217738500,2.404738525390625,-34.100006103515625,15.521026611328125,13.654512405395508
1738005554227806200,2.41480615234375,-33.860931396484375,15.646514892578125,13.677618026733398
1738005554237875500,2.42487548828125,-33.917388916015625,15.459335327148438,13.576387405395508
1738005554247944400,2.4349443359375,-33.847259521484375,15.663253784179688,13.556526184082031
1738005554258013200,2.44501318359375,-33.582855224609375,15.762435913085938,13.711524963378906
1738005554268081400,2.455081298828125,-33.352264404296875,15.393898010253906,13.848108291625977
1738005554278150400,2.465150390625,-33.594757080078125,15.412109375,13.708951950073242
1738005554288219400,2.475219482421875,-33.350128173828125,15.251663208007812,13.828283309936523
1738005554298287400,2.485287353515625,-33.253692626953125,15.299903869628906,13.831682205200195
1738005554308356400,2.4953564453125,-33.400970458984375,15.212089538574219,13.986019134521484
1738005554318425300,2.50542529296875,-33.606292724609375,15.2945556640625,13.855966567993164
1738005554328493300,2.515493408203125,-33.477508544921875,15.32159423828125,13.849287033081055
1738005554338562300,2.525562255859375,-33.861114501953125,15.516021728515625,13.832801818847656
1738005554348631300,2.53563134765625,-33.801666259765625,15.3221435546875,13.771379470825195
1738005554358700300,2.5457001953125,-33.497406005859375,15.569747924804688,13.732765197753906
1738005554368768000,2.55576806640625,-33.719635009765625,15.439170837402344,13.631948471069336
1738005554378837000,2.5658369140625,-33.541046142578125,15.6839599609375,13.69426155090332
1738005554388906000,2.575906005859375,-33.946441650390625,15.394630432128906,13.890668869018555
1738005554398974000,2.585973876953125,-33.649993896484375,15.4002685546875,13.878997802734375
1738005554409043000,2.59604296875,-33.446929931640625,15.274574279785156,13.947023391723633
1738005554419112000,2.60611181640625,-33.249847412109375,15.545387268066406,13.881654739379883
1738005554429180000,2.616179931640625,-33.344451904296875,15.527366638183594,13.742067337036133
1738005554439249000,2.626248779296875,-33.470367431640625,15.427314758300781,13.624826431274414
1738005554449318000,2.63631787109375,-33.814239501953125,15.438758850097656,13.600397109985352
1738005554459387000,2.646386962890625,-33.615447998046875,15.316581726074219,13.809417724609375
1738005554469455000,2.656455078125,-33.408538818359375,15.3868408203125,13.873109817504883
1738005554479523800,2.66652392578125,-33.723175048828125,15.281471252441406,13.687370300292969
1738005554489592800,2.6765927734375,-33.828338623046875,15.44140625,14.011709213256836
1738005554499661000,2.6866611328125,-34.009613037109375,15.343284606933594,13.68729019165039
1738005554509729800,2.696729736328125,-33.612335205078125,15.420555114746094,13.547079086303711
1738005554519799000,2.706799072265625,-33.967376708984375,15.473899841308594,13.570793151855469
1738005554529867000,2.716866943359375,-33.758392333984375,15.628410339355469,13.561767578125
1738005554539935700,2.726935791015625,-33.728668212890625,15.448104858398438,13.531866073608398
1738005554550005000,2.7370048828125,-33.607635498046875,15.290771484375,13.544946670532227
1738005554560073000,2.747072998046875,-33.716766357421875,15.41583251953125,13.697891235351562
1738005554570141700,2.7571416015625,-33.483428955078125,15.472145080566406,13.83218765258789
1738005554580211000,2.7672109375,-33.834014892578125,15.380424499511719,13.704662322998047
1738005554590280000,2.777280029296875,-33.985687255859375,15.626815795898438,13.812982559204102
1738005554600348000,2.787347900390625,-33.900787353515625,15.481163024902344,13.849344253540039
1738005554610417000,2.7974169921875,-33.559173583984375,15.575393676757812,13.877815246582031
1738005554620486100,2.807486083984375,-33.394134521484375,15.409034729003906,13.874488830566406
1738005554630553900,2.817553955078125,-33.668609619140625,15.278488159179688,13.711221694946289
1738005554640622800,2.827622802734375,-33.976531982421875,15.304656982421875,13.872779846191406
1738005554650692000,2.837692138671875,-33.765716552734375,15.32843017578125,13.753154754638672
1738005554660760800,2.8477607421875,-33.465606689453125,15.6314697265625,13.885599136352539
1738005554670828800,2.857828857421875,-34.018218994140625,15.473175048828125,13.670108795166016
1738005554680898000,2.86789794921875,-33.895660400390625,15.400604248046875,13.880815505981445
1738005554690966800,2.877966796875,-33.880401611328125,15.370376586914062,14.006246566772461
1738005554701035000,2.888034912109375,-33.934967041015625,15.254447937011719,13.879602432250977
1738005554711104000,2.89810400390625,-33.878509521484375,15.432289123535156,13.79591178894043
1738005554721172700,2.9081728515625,-34.119476318359375,14.97833251953125,14.012351989746094
1738005554731241000,2.918240966796875,-34.194183349609375,15.355438232421875,13.726869583129883
1738005554741310000,2.92831005859375,-34.013214111328125,15.131103515625,13.787111282348633
1738005554751379000,2.93837890625,-33.532745361328125,15.379913330078125,13.616849899291992
1738005554761448000,2.948447998046875,-33.979278564453125,15.369010925292969,13.841226577758789
1738005554771516000,2.958515869140625,-33.880523681640625,15.14874267578125,13.494962692260742
1738005554781585000,2.9685849609375,-33.669219970703125,15.137893676757812,13.520034790039062
1738005554791654000,2.97865380859375,-33.622955322265625,15.272102355957031,13.977771759033203
1738005554801721900,2.988721923828125,-33.805084228515625,14.944671630859375,14.011005401611328
1738005554811790800,2.998790771484375,-33.887786865234375,14.979026794433594,13.91067123413086
1738005554821859800,3.00885986328125,-33.929718017578125,15.047149658203125,13.998764038085938
1738005554831929000,3.01892919921875,-33.805267333984375,15.310073852539062,14.023748397827148
1738005554841996800,3.028996826171875,-33.882843017578125,15.05938720703125,14.019975662231445
1738005554852065800,3.039065673828125,-33.925567626953125,14.952308654785156,14.063156127929688
1738005554862135000,3.049135009765625,-33.799835205078125,15.180221557617188,14.221729278564453
1738005554872202800,3.05920263671875,-33.875213623046875,15.08544921875,14.113567352294922
1738005554882272000,3.06927197265625,-34.015472412109375,15.1741943359375,14.176923751831055
1738005554892341000,3.079341064453125,-33.825469970703125,15.175384521484375,14.305753707885742
1738005554902409000,3.089408935546875,-33.763885498046875,15.232093811035156,14.202465057373047
1738005554912478000,3.09947802734375,-33.759796142578125,15.126213073730469,14.479633331298828
1738005554922547000,3.109546875,-33.707366943359375,15.0413818359375,14.31428337097168
1738005554932616000,3.119615966796875,-33.960723876953125,15.001121520996094,14.195657730102539
1738005554942684000,3.129683837890625,-34.226654052734375,15.174629211425781,14.105962753295898
1738005554952753000,3.1397529296875,-33.922027587890625,14.991508483886719,14.30765151977539
1738005554962822000,3.14982177734375,-33.808441162109375,14.836868286132812,14.318038940429688
1738005554972889900,3.159889892578125,-33.888702392578125,14.91119384765625,14.471460342407227
1738005554982958800,3.169958740234375,-33.880828857421875,14.82696533203125,14.646467208862305
1738005554993027800,3.18002783203125,-33.874298095703125,14.680168151855469,14.603206634521484
1738005555003096800,3.190096923828125,-34.463958740234375,14.538604736328125,14.713359832763672
1738005555013165000,3.2001650390625,-34.382293701171875,14.643821716308594,14.8404541015625
1738005555023233800,3.21023388671875,-34.369232177734375,15.05487060546875,14.870851516723633
1738005555033303000,3.220302978515625,-34.053131103515625,14.866676330566406,15.143037796020508
1738005555043371000,3.23037109375,-34.272552490234375,14.639396667480469,15.200298309326172
1738005555053439700,3.240439697265625,-33.771697998046875,14.801780700683594,15.128231048583984
1738005555063509000,3.250509033203125,-34.192718505859375,14.807769775390625,15.19137954711914
1738005555073578000,3.260577880859375,-34.119171142578125,14.721206665039062,15.532346725463867
1738005555083645700,3.270645751953125,-34.127716064453125,14.814552307128906,15.477886199951172
1738005555093715000,3.28071484375,-34.176422119140625,14.966232299804688,15.50445556640625
1738005555103784000,3.290783935546875,-34.053863525390625,15.222450256347656,15.64674186706543
1738005555113852000,3.300851806640625,-34.233001708984375,15.172714233398438,15.68773078918457
1738005555123921000,3.3109208984375,-33.834014892578125,15.085365295410156,15.68343734741211
1738005555133990000,3.320989990234375,-33.912567138671875,15.247306823730469,16.08612823486328
1738005555144059000,3.331058837890625,-34.095977783203125,15.248771667480469,16.043581008911133
1738005555154126800,3.341126953125,-34.126312255859375,15.365745544433594,15.845691680908203
1738005555164196000,3.351196044921875,-34.174163818359375,15.460128784179688,15.91633415222168
1738005555174264800,3.361264892578125,-34.069671630859375,15.367332458496094,16.039508819580078
1738005555184332800,3.371332763671875,-34.414337158203125,15.49462890625,16.15270233154297
1738005555194402000,3.381402099609375,-34.313323974609375,15.725776672363281,16.55921745300293
1738005555204470800,3.391470703125,-34.043670654296875,15.765823364257812,16.17644691467285
1738005555214540000,3.4015400390625,-33.938812255859375,15.946174621582031,16.264223098754883
1738005555224608000,3.41160791015625,-34.190399169921875,15.722831726074219,16.157461166381836
1738005555234676700,3.4216767578125,-34.004791259765625,15.867897033691406,16.362096786499023
1738005555244746000,3.43174609375,-34.076202392578125,16.13701629638672,16.33687400817871
1738005555254814000,3.44181396484375,-34.130645751953125,16.17810821533203,16.00084114074707
1738005555264882700,3.451882568359375,-34.138153076171875,16.152687072753906,16.247119903564453
1738005555274952000,3.461951904296875,-33.976104736328125,16.316375732421875,16.257572174072266
1738005555285021000,3.47202099609375,-33.912506103515625,16.410987854003906,16.508766174316406
1738005555295089000,3.4820888671875,-34.136749267578125,16.41637420654297,16.3021183013916
1738005555305158000,3.492157958984375,-33.941986083984375,16.369552612304688,16.367156982421875
1738005555315227000,3.502226806640625,-34.294281005859375,16.345535278320312,15.847749710083008
1738005555325294800,3.512294921875,-33.975067138671875,16.437721252441406,16.029890060424805
1738005555335363800,3.52236376953125,-34.221221923828125,16.608482360839844,15.865886688232422
1738005555345433000,3.53243310546875,-34.125885009765625,16.617874145507812,16.054765701293945
1738005555355501800,3.542501708984375,-34.343841552734375,16.615821838378906,15.67329216003418
1738005555365569800,3.55256982421875,-34.119293212890625,16.753173828125,15.711977005004883
1738005555375639000,3.56263916015625,-34.007293701171875,17.232711791992188,15.726360321044922
1738005555385708000,3.5727080078125,-33.914947509765625,16.873825073242188,15.545515060424805
1738005555395777000,3.582777099609375,-34.114898681640625,16.88794708251953,15.88831901550293
1738005555405845000,3.592844970703125,-34.093841552734375,16.977584838867188,15.681207656860352
1738005555415914000,3.6029140625,-33.858367919921875,17.1776123046875,15.523723602294922
1738005555425983000,3.61298291015625,-33.644439697265625,17.65418243408203,15.582298278808594
1738005555436051000,3.623051025390625,-33.618072509765625,17.484291076660156,15.494930267333984
1738005555446120000,3.633119873046875,-33.610015869140625,17.405715942382812,15.39600944519043
1738005555456189000,3.64318896484375,-33.708282470703125,17.360939025878906,15.36781120300293
1738005555466258200,3.653258056640625,-33.902618408203125,17.12921142578125,15.55588150024414
1738005555476326000,3.663325927734375,-33.703582763671875,17.437911987304688,15.453702926635742
1738005555486395000,3.673394775390625,-33.229583740234375,17.47808074951172,15.319992065429688
1738005555496464100,3.683464111328125,-33.486968994140625,17.403564453125,15.06729507446289
1738005555506531800,3.69353173828125,-33.449310302734375,17.604644775390625,14.866521835327148
1738005555516601000,3.70360107421875,-33.479949951171875,17.53630828857422,14.910364151000977
1738005555526670000,3.713670166015625,-33.127655029296875,17.699020385742188,14.645631790161133
1738005555536739000,3.723739013671875,-32.906280517578125,17.86046600341797,14.970235824584961
1738005555546807000,3.73380712890625,-32.901153564453125,18.01538848876953,14.935123443603516
1738005555556876000,3.7438759765625,-33.374664306640625,17.71453857421875,14.822507858276367
1738005555566945000,3.753945068359375,-33.016876220703125,17.88861846923828,14.512208938598633
1738005555577013000,3.764012939453125,-32.909759521484375,17.800979614257812,14.424135208129883
1738005555587082000,3.77408203125,-32.955108642578125,17.878463745117188,14.040040969848633
1738005555597151000,3.78415087890625,-32.945587158203125,17.908645629882812,13.939861297607422
1738005555607220000,3.794219970703125,-32.722503662109375,18.07689666748047,14.137495040893555
1738005555617288000,3.804287841796875,-32.925994873046875,18.08942413330078,13.812044143676758
1738005555627357000,3.81435693359375,-33.033905029296875,18.38763427734375,13.938217163085938
1738005555637426000,3.824426025390625,-32.828338623046875,18.353530883789062,14.072612762451172
1738005555647494100,3.834494140625,-32.658843994140625,18.43274688720703,13.859663009643555
1738005555657563000,3.84456298828125,-32.586517333984375,18.318572998046875,13.894975662231445
1738005555667632000,3.854632080078125,-33.038360595703125,18.378219604492188,13.793201446533203
1738005555677701000,3.864701171875,-32.932342529296875,18.373428344726562,13.518909454345703
1738005555687768800,3.874768798828125,-32.769012451171875,18.642608642578125,13.268938064575195
1738005555697838000,3.884838134765625,-32.659088134765625,18.754844665527344,13.2503662109375
1738005555707907000,3.894906982421875,-32.854034423828125,18.817222595214844,13.19264030456543
1738005555717976000,3.90497607421875,-32.797393798828125,19.135787963867188,13.202550888061523
1738005555728044000,3.9150439453125,-32.438507080078125,18.98644256591797,13.156097412109375
1738005555738113000,3.925113037109375,-32.368011474609375,19.00267791748047,12.66733169555664
1738005555748182000,3.93518212890625,-32.260223388671875,19.41553497314453,12.904258728027344
1738005555758250000,3.94525,-31.798004150390625,19.27032470703125,13.16995620727539
1738005555768319000,3.955319091796875,-31.900726318359375,19.552162170410156,12.753702163696289
1738005555778388000,3.965387939453125,-31.790802001953125,19.725570678710938,12.674234390258789
1738005555788457000,3.97545703125,-31.722015380859375,19.604446411132812,12.815849304199219
1738005555798525200,3.985525146484375,-31.611968994140625,19.711685180664062,12.468875885009766
1738005555808594000,3.995593994140625,-31.720733642578125,20.055213928222656,12.083406448364258
1738005555818663000,4.005662841796875,-31.367034912109375,20.297401428222656,12.030481338500977
1738005555828731100,4.015731201171875,-31.003753662109375,20.263023376464844,11.860673904418945
1738005555838800000,4.0257998046875,-30.877410888671875,20.265350341796875,11.751226425170898
1738005555848869000,4.035869140625,-30.682830810546875,20.512245178222656,11.428434371948242
1738005555858937900,4.045937744140625,-30.660186767578125,20.69353485107422,11.248079299926758
1738005555869005800,4.056005859375,-30.297943115234375,20.51226043701172,11.153881072998047
1738005555879075000,4.066074951171875,-30.416961669921875,20.669692993164062,10.63876724243164
1738005555889144000,4.07614404296875,-30.036590576171875,20.623886108398438,10.26456069946289
1738005555899211800,4.086211669921875,-30.330108642578125,20.852378845214844,10.032512664794922
1738005555909281000,4.096281005859375,-29.956939697265625,21.069580078125,9.674489974975586
1738005555919350000,4.10635009765625,-29.375457763671875,21.178817749023438,8.930984497070312
1738005555929419000,4.1164189453125,-29.309112548828125,21.326927185058594,8.657907485961914
1738005555939487000,4.126487060546875,-29.132415771484375,21.34667205810547,8.014257431030273
1738005555949556000,4.136555908203125,-28.912872314453125,21.46990966796875,7.306151866912842
1738005555959625000,4.146625,-28.703277587890625,21.58611297607422,7.026306629180908
1738005555969693000,4.15669287109375,-28.536651611328125,21.603790283203125,6.554623126983643
1738005555979762200,4.16676220703125,-28.205108642578125,21.688621520996094,6.0062031745910645
1738005555989831000,4.176830810546875,-27.420379638671875,21.241943359375,4.692356586456299
1738005555999900200,4.186900146484375,-27.679168701171875,21.272987365722656,3.8272252082824707
1738005556009968000,4.196968017578125,-27.388275146484375,20.90594482421875,3.010127544403076
1738005556020036900,4.207036865234375,-27.382232666015625,20.86412811279297,1.717292308807373
1738005556030106000,4.217106201171875,-27.003814697265625,20.491539001464844,0.5653195381164551
1738005556040174000,4.227174072265625,-26.094451904296875,20.277175903320312,-0.6844096183776855
1738005556050242800,4.237242919921875,-25.555450439453125,19.814895629882812,-1.806811809539795
1738005556060312000,4.24731201171875,-25.152801513671875,19.636886596679688,-2.773456335067749
1738005556070380800,4.257380859375,-24.840362548828125,19.623489379882812,-3.8714308738708496
1738005556080449000,4.267448974609375,-24.103424072265625,19.67431640625,-4.590676784515381
1738005556090518000,4.27751806640625,-23.674896240234375,19.98754119873047,-5.602684020996094
1738005556100587000,4.2875869140625,-23.972564697265625,20.022705078125,-5.928938865661621
1738005556110656000,4.297656005859375,-23.839752197265625,20.392257690429688,-6.1060872077941895
1738005556120724000,4.307723876953125,-23.737396240234375,20.762222290039062,-5.984928131103516
1738005556130793200,4.317793212890625,-24.348358154296875,21.21021270751953,-6.2043070793151855
1738005556140862000,4.327862060546875,-25.002960205078125,21.35126495361328,-5.587344169616699
1738005556150930000,4.337929931640625,-25.733123779296875,21.332656860351562,-5.142365455627441
1738005556160999200,4.347999267578125,-26.430816650390625,21.65515899658203,-4.235052585601807
1738005556171068000,4.35806787109375,-27.145660400390625,21.584579467773438,-3.5552141666412354
1738005556181137200,4.36813720703125,-27.296783447265625,21.655250549316406,-2.7804272174835205
1738005556191205000,4.378205078125,-27.480010986328125,21.743934631347656,-1.6762332916259766
1738005556201273900,4.38827392578125,-27.548431396484375,21.723670959472656,-1.0927696228027344
1738005556211343000,4.398343017578125,-27.147186279296875,21.882736206054688,-0.5929431915283203
1738005556221411000,4.4084111328125,-27.002349853515625,22.223968505859375,-0.12352466583251953
1738005556231479800,4.418479736328125,-27.498809814453125,22.328163146972656,0.2481541633605957
1738005556241549000,4.428549072265625,-27.653900146484375,22.927940368652344,0.5161056518554688
1738005556251617800,4.43861767578125,-27.192779541015625,23.496734619140625,1.0469965934753418
1738005556261686000,4.44868603515625,-27.685455322265625,23.874839782714844,1.0950021743774414
1738005556271755000,4.458755126953125,-27.405548095703125,24.592506408691406,1.6505241394042969
1738005556281824000,4.468823974609375,-27.419403076171875,25.198577880859375,1.831336498260498
1738005556291892000,4.47889208984375,-27.562286376953125,25.69158935546875,1.783057689666748
1738005556301961000,4.4889609375,-27.528289794921875,26.387924194335938,1.970280647277832
1738005556312030000,4.499030029296875,-27.786895751953125,27.194503784179688,1.837404727935791
1738005556322099000,4.509098876953125,-27.821868896484375,27.640029907226562,1.9895687103271484
1738005556332167000,4.5191669921875,-27.796966552734375,28.002418518066406,1.7285385131835938
1738005556342236200,4.529236083984375,-28.550689697265625,29.227455139160156,1.2424054145812988
1738005556352305000,4.539304931640625,-28.630462646484375,29.88677215576172,0.6738944053649902
1738005556362372900,4.549372802734375,-28.801300048828125,30.30560302734375,0.4105830192565918
1738005556372442000,4.559442138671875,-29.185455322265625,31.034324645996094,-0.45302724838256836
1738005556382510800,4.5695107421875,-29.190460205078125,31.57927703857422,-0.9842066764831543
1738005556392580000,4.579580078125,-29.295623779296875,31.73181915283203,-1.7719955444335938
1738005556402648000,4.58964794921875,-29.398468017578125,32.35408020019531,-2.649442434310913
1738005556412717000,4.599717041015625,-29.294525146484375,32.64274597167969,-3.754669427871704
1738005556422786000,4.6097861328125,-29.261810302734375,33.08976745605469,-4.646956443786621
1738005556432854800,4.619854736328125,-29.339508056640625,33.948265075683594,-5.579087734222412
1738005556442923000,4.629923095703125,-29.134002685546875,34.14939880371094,-6.6597185134887695
1738005556452992000,4.639991943359375,-28.835906982421875,34.49488067626953,-7.9232988357543945
1738005556463061000,4.65006103515625,-28.996307373046875,34.96178436279297,-9.292600631713867
1738005556473129000,4.66012890625,-28.333160400390625,35.053375244140625,-10.586456298828125
1738005556483198000,4.670197998046875,-28.272003173828125,35.44249725341797,-12.368887901306152
1738005556493267000,4.680266845703125,-28.344512939453125,35.557655334472656,-13.832611083984375
1738005556503336000,4.6903359375,-28.237762451171875,35.908653259277344,-15.41286849975586
1738005556513404000,4.70040380859375,-28.124542236328125,35.894935607910156,-17.009315490722656
1738005556523473200,4.71047314453125,-27.679718017578125,35.96551513671875,-18.65578269958496
1738005556533542000,4.7205419921875,-27.781219482421875,35.73717498779297,-20.39878273010254
1738005556543610000,4.730610107421875,-27.633575439453125,35.363136291503906,-22.095985412597656
1738005556553679000,4.74067919921875,-27.679901123046875,34.93555450439453,-23.633413314819336
1738005556563747800,4.750747802734375,-27.415130615234375,34.74749755859375,-25.517358779907227
1738005556573817000,4.760817138671875,-26.980133056640625,34.329559326171875,-27.19122314453125
1738005556583885000,4.770885009765625,-27.058074951171875,33.923797607421875,-29.041584014892578
1738005556593954000,4.7809541015625,-26.560760498046875,33.48414611816406,-30.72847557067871
1738005556604023000,4.79102294921875,-25.806610107421875,32.45263671875,-32.30260467529297
1738005556614091000,4.801091064453125,-26.123565673828125,31.651077270507812,-33.853492736816406
1738005556624160000,4.811159912109375,-25.985565185546875,30.825576782226562,-35.30331802368164
1738005556634229000,4.82122900390625,-25.474273681640625,29.93335723876953,-36.72141647338867
1738005556644298000,4.831298095703125,-25.665069580078125,29.208969116210938,-38.20722961425781
1738005556654366000,4.841365966796875,-26.377166748046875,28.08635711669922,-39.822044372558594
1738005556664435000,4.85143505859375,-25.941558837890625,27.11298370361328,-41.15521240234375
1738005556674504000,4.86150390625,-25.779632568359375,25.90154266357422,-42.156288146972656
1738005556684572000,4.871572021484375,-25.644561767578125,24.903343200683594,-43.532615661621094
1738005556694641000,4.881640869140625,-26.177459716796875,24.03363037109375,-44.459774017333984
1738005556704710000,4.8917099609375,-25.876312255859375,22.9962158203125,-45.59343719482422
1738005556714779000,4.90177880859375,-25.505889892578125,21.90740966796875,-46.48307800292969
1738005556724847000,4.91184716796875,-25.548309326171875,20.750099182128906,-47.30170440673828
1738005556734916000,4.921916015625,-25.316070556640625,19.80022430419922,-48.11405944824219
1738005556744985000,4.931985107421875,-24.898406982421875,18.44158172607422,-48.901432037353516
1738005556755053000,4.942052978515625,-25.082000732421875,17.289100646972656,-49.48643112182617
1738005556765122000,4.9521220703125,-24.850250244140625,16.43762969970703,-50.26962661743164
1738005556775191000,4.96219091796875,-24.546051025390625,15.400848388671875,-50.79325485229492
1738005556785260000,4.972260009765625,-24.547027587890625,14.101058959960938,-51.282535552978516
1738005556795328000,4.982327880859375,-24.530059814453125,13.141693115234375,-51.4414176940918
1738005556805397000,4.99239697265625,-24.282806396484375,11.745941162109375,-52.1019401550293
1738005556815466000,5.002466064453125,-24.417510986328125,10.892585754394531,-52.23488235473633
1738005556825534200,5.0125341796875,-24.310821533203125,9.926536560058594,-52.81306838989258
1738005556835603000,5.02260302734375,-24.544586181640625,8.61444091796875,-53.02164077758789
1738005556845672000,5.032671875,-24.227081298828125,7.613029479980469,-53.361270904541016
1738005556855741000,5.042740966796875,-24.171905517578125,6.6651458740234375,-53.32543182373047
1738005556865809000,5.052808837890625,-24.248687744140625,5.626441955566406,-53.538455963134766
1738005556875878100,5.062878173828125,-24.440032958984375,4.436485290527344,-53.493133544921875
1738005556885947000,5.07294677734375,-24.556976318359375,2.3081893920898438,-53.19226837158203
1738005556896016000,5.083015869140625,-24.990142822265625,1.158203125,-53.418399810791016
1738005556906084000,5.093083984375,-24.837615966796875,0.0087890625,-53.44026565551758
1738005556916152800,5.10315283203125,-24.799652099609375,-0.9455108642578125,-53.33969497680664
1738005556926222000,5.11322216796875,-24.933685302734375,-2.16839599609375,-53.32841873168945
1738005556936290000,5.1232900390625,-24.671783447265625,-3.107452392578125,-53.26543426513672
1738005556946359000,5.133359130859375,-24.120635986328125,-4.337837219238281,-53.009124755859375
1738005556956428000,5.143427978515625,-24.570281982421875,-5.3972625732421875,-52.91710662841797
1738005556966497000,5.1534970703125,-24.738128662109375,-6.364509582519531,-52.746368408203125
1738005556976565000,5.16356494140625,-24.670196533203125,-7.531097412109375,-52.36062240600586
1738005556986634000,5.173634033203125,-24.569610595703125,-8.539886474609375,-52.251949310302734
1738005556996703000,5.183702880859375,-24.588958740234375,-9.925857543945312,-52.299537658691406
1738005557006771200,5.193771240234375,-24.345733642578125,-11.13336181640625,-52.19367218017578
1738005557016840000,5.20383984375,-24.125946044921875,-12.082420349121094,-52.0013313293457
1738005557026909000,5.213908935546875,-24.203216552734375,-13.278633117675781,-51.502437591552734
1738005557036978000,5.22397802734375,-24.122589111328125,-14.9442138671875,-51.289886474609375
1738005557047046000,5.2340458984375,-24.424285888671875,-16.44097900390625,-51.15251159667969
1738005557057115100,5.244115234375,-24.230316162109375,-17.715431213378906,-50.72574234008789
1738005557067183900,5.254183837890625,-24.314788818359375,-18.92249298095703,-50.20505142211914
1738005557077251800,5.264251953125,-24.412322998046875,-20.29621124267578,-49.667022705078125
1738005557087321000,5.274321044921875,-24.242034912109375,-21.89685821533203,-49.05588150024414
1738005557097389800,5.284389892578125,-24.322540283203125,-23.400238037109375,-48.6106071472168
1738005557107459000,5.294458984375,-24.387176513671875,-24.69007110595703,-47.843936920166016
1738005557117527000,5.304527099609375,-24.421356201171875,-26.299640655517578,-47.07312774658203
1738005557127595800,5.314595703125,-24.399505615234375,-27.599689483642578,-46.283016204833984
1738005557137665000,5.3246650390625,-24.618682861328125,-29.015655517578125,-45.6942138671875
1738005557147733000,5.33473291015625,-24.658660888671875,-30.152523040771484,-44.721534729003906
1738005557157802000,5.344802001953125,-24.757904052734375,-31.242366790771484,-43.906761169433594
1738005557167871000,5.35487109375,-24.437408447265625,-32.498504638671875,-43.301063537597656
1738005557177940000,5.36493994140625,-24.451141357421875,-33.410545349121094,-42.593170166015625
1738005557188008200,5.37500830078125,-24.480804443359375,-34.035240173339844,-41.97136688232422
1738005557198077000,5.385076904296875,-23.988739013671875,-34.75497055053711,-41.53742980957031
1738005557208146200,5.395146240234375,-24.227203369140625,-35.26424789428711,-41.511985778808594
1738005557218214100,5.405214111328125,-23.910614013671875,-35.39583206176758,-41.28887176513672
1738005557228283000,5.415282958984375,-23.848785400390625,-35.9283447265625,-41.0225830078125
1738005557238352100,5.42535205078125,-24.295684814453125,-35.87752151489258,-41.07339859008789
1738005557248420900,5.4354208984375,-24.553619384765625,-35.869712829589844,-40.94074630737305
1738005557258488800,5.44548876953125,-24.580413818359375,-35.83869552612305,-40.986019134521484
1738005557268558000,5.45555810546875,-24.789276123046875,-35.93638610839844,-40.883174896240234
1738005557278626800,5.465626708984375,-24.876495361328125,-35.975215911865234,-40.9608039855957
1738005557288695000,5.475695068359375,-24.557891845703125,-35.665924072265625,-40.98735046386719
1738005557298764000,5.485763916015625,-24.100006103515625,-35.4239616394043,-41.129249572753906
1738005557308832800,5.495832763671875,-24.738922119140625,-35.3586311340332,-41.2286262512207
1738005557318902000,5.505902099609375,-24.627227783203125,-35.162872314453125,-41.46489334106445
1738005557328970000,5.515969970703125,-24.572601318359375,-34.871360778808594,-41.375022888183594
1738005557339039000,5.5260390625,-24.772735595703125,-33.9476203918457,-41.53290939331055
1738005557349108000,5.53610791015625,-24.490875244140625,-33.508358001708984,-41.4394645690918
1738005557359176000,5.546176025390625,-24.448272705078125,-33.528018951416016,-41.942447662353516
1738005557369245000,5.556244873046875,-24.476409912109375,-33.13723373413086,-41.91912078857422
1738005557379313400,5.5663134765625,-24.394317626953125,-33.12813186645508,-41.882015228271484
1738005557389382700,5.576382568359375,-24.558624267578125,-33.03900909423828,-41.664398193359375
1738005557399450600,5.58645068359375,-24.592437744140625,-33.077972412109375,-41.77017593383789
1738005557409519400,5.596519287109375,-24.893280029296875,-32.87193298339844,-41.88551330566406
1738005557419588600,5.606588623046875,-24.545745849609375,-32.63908386230469,-41.89270782470703
1738005557429656600,5.616656494140625,-24.523345947265625,-32.788204193115234,-41.8468132019043
1738005557439725300,5.626725341796875,-24.366546630859375,-32.6358642578125,-41.69906997680664
1738005557449794600,5.636794677734375,-24.550262451171875,-32.351165771484375,-41.67823028564453
1738005557459863600,5.646863525390625,-24.266571044921875,-32.43174743652344,-41.80908966064453
1738005557469931500,5.656931640625,-24.076873779296875,-32.57706069946289,-41.5067138671875
1738005557480000500,5.66700048828125,-24.016082763671875,-32.19144058227539,-41.39017868041992
1738005557490069500,5.677069580078125,-24.444427490234375,-32.34453582763672,-41.497901916503906
1738005557500137500,5.687137451171875,-24.517364501953125,-32.25529098510742,-41.552303314208984
1738005557510206500,5.69720654296875,-24.199676513671875,-32.03487777709961,-41.69251251220703
1738005557520275700,5.707275634765625,-24.507965087890625,-32.08925247192383,-41.83759307861328
1738005557530344400,5.717344482421875,-24.520538330078125,-32.2493782043457,-41.68036651611328
1738005557540412400,5.727412353515625,-24.319427490234375,-32.041568756103516,-41.68484115600586
1738005557550481700,5.737481689453125,-24.569854736328125,-32.092674255371094,-41.82421112060547
1738005557560550400,5.74755029296875,-24.546173095703125,-32.044071197509766,-41.58062744140625
1738005557570618400,5.757618408203125,-24.410369873046875,-32.079566955566406,-41.7121696472168
1738005557580687600,5.7676875,-24.803497314453125,-31.973281860351562,-41.77177810668945
1738005557590756400,5.77775634765625,-24.619659423828125,-31.872703552246094,-41.72725296020508
1738005557600825600,5.78782568359375,-25.026031494140625,-32.12114715576172,-41.86265563964844
1738005557610893600,5.7978935546875,-25.038360595703125,-31.878807067871094,-41.61573791503906
1738005557620962300,5.80796240234375,-24.651031494140625,-31.791866302490234,-41.76279067993164
1738005557631031600,5.818031494140625,-24.273712158203125,-31.716266632080078,-41.66401290893555
1738005557641099500,5.828099609375,-24.187286376953125,-31.686016082763672,-41.512210845947266
1738005557651168500,5.83816845703125,-24.188751220703125,-31.963024139404297,-41.72471237182617
1738005557661237500,5.848237548828125,-24.556915283203125,-31.703388214111328,-41.81920623779297
1738005557671305500,5.858305419921875,-24.190460205078125,-32.179649353027344,-41.996578216552734
1738005557681374500,5.86837451171875,-24.359954833984375,-32.04966735839844,-41.86714172363281
1738005557691443500,5.878443359375,-24.201446533203125,-32.07155227661133,-41.81938552856445
1738005557701512400,5.888512451171875,-24.398956298828125,-32.007080078125,-41.840213775634766
1738005557711580400,5.898580322265625,-24.112762451171875,-32.13703536987305,-41.605934143066406
1738005557721649400,5.9086494140625,-24.332061767578125,-32.171531677246094,-41.88683319091797
1738005557731718700,5.91871875,-24.396392822265625,-32.42198181152344,-41.88436508178711
1738005557741786400,5.928786376953125,-24.518829345703125,-32.22468566894531,-41.96554183959961
1738005557751855400,5.93885546875,-24.807159423828125,-32.23626708984375,-41.8021125793457
1738005557761924600,5.948924560546875,-24.507354736328125,-32.254234313964844,-41.97890853881836
1738005557771993300,5.958993408203125,-24.375640869140625,-32.130462646484375,-41.848960876464844
1738005557782061600,5.9690615234375,-24.218231201171875,-31.84290313720703,-41.89048385620117
1738005557792130600,5.979130615234375,-24.693450927734375,-31.831336975097656,-41.808170318603516
1738005557802199600,5.989199462890625,-24.781219482421875,-32.073448181152344,-42.01795196533203
1738005557812267500,5.999267578125,-24.235382080078125,-32.302330017089844,-42.12934875488281
1738005557822336500,6.00933642578125,-24.058135986328125,-32.23776626586914,-41.93531036376953
1738005557832405500,6.019405517578125,-24.107025146484375,-32.20087814331055,-41.99411392211914
1738005557842473500,6.029473388671875,-24.703277587890625,-32.232383728027344,-41.9009895324707
1738005557852542500,6.03954248046875,-24.584625244140625,-32.21959686279297,-41.94895553588867
1738005557862611500,6.049611572265625,-24.608062744140625,-32.08640670776367,-41.90696716308594
1738005557872680400,6.059680419921875,-24.671661376953125,-32.22006607055664,-41.82283020019531
1738005557882748700,6.069748779296875,-24.515716552734375,-32.13587951660156,-41.744380950927734
1738005557892817400,6.0798173828125,-24.509796142578125,-32.10895919799805,-41.82762145996094
1738005557902886400,6.089886474609375,-24.711334228515625,-32.308387756347656,-41.70198059082031
1738005557912954600,6.09995458984375,-24.659271240234375,-32.36741638183594,-41.87624740600586
1738005557923023400,6.1100234375,-24.722747802734375,-32.33259582519531,-41.95936584472656
1738005557933092600,6.120092529296875,-24.897491455078125,-32.29573440551758,-41.91000747680664
1738005557943160600,6.13016064453125,-24.562957763671875,-31.996795654296875,-42.034568786621094
1738005557953229300,6.140229248046875,-24.347076416015625,-31.764076232910156,-41.816932678222656
1738005557963298600,6.150298583984375,-24.526031494140625,-31.922550201416016,-41.735740661621094
1738005557973367600,6.160367431640625,-24.862457275390625,-31.764801025390625,-41.813133239746094
1738005557983435500,6.170435546875,-25.015167236328125,-31.878402709960938,-41.730506896972656
1738005557993504500,6.18050439453125,-25.090301513671875,-32.13014602661133,-41.94060516357422
1738005558003573500,6.190573486328125,-24.696563720703125,-32.07526779174805,-41.8166389465332
1738005558013641500,6.200641357421875,-24.819549560546875,-32.1485710144043,-41.79743957519531
1738005558023710500,6.21071044921875,-24.691375732421875,-32.24544143676758,-41.961551666259766
1738005558033779500,6.220779541015625,-24.908050537109375,-31.766586303710938,-42.0687370300293
1738005558043848400,6.230848388671875,-24.554962158203125,-31.738346099853516,-41.96327209472656
1738005558053916400,6.24091650390625,-24.457122802734375,-31.758560180664062,-42.02015686035156
1738005558063985700,6.250985595703125,-24.497711181640625,-31.810344696044922,-41.71949005126953
1738005558074054400,6.261054443359375,-24.187713623046875,-32.04631805419922,-41.53045654296875
1738005558084122400,6.271122314453125,-24.614959716796875,-32.269588470458984,-41.607765197753906
1738005558094191600,6.281191650390625,-24.715545654296875,-32.249263763427734,-41.82631301879883
1738005558104260400,6.29126025390625,-24.585601806640625,-31.994728088378906,-41.99226760864258
1738005558114329600,6.30132958984375,-24.232574462890625,-31.95907211303711,-41.66145706176758
1738005558124397600,6.3113974609375,-23.782257080078125,-32.10919189453125,-41.597084045410156
1738005558134466300,6.32146630859375,-24.177398681640625,-32.26735305786133,-41.902828216552734
1738005558144535600,6.33153564453125,-24.370025634765625,-32.32829284667969,-41.92937088012695
1738005558154603500,6.341603515625,-24.485870361328125,-32.316165924072266,-41.81385803222656
1738005558164672300,6.35167236328125,-24.440460205078125,-32.40996551513672,-41.84115219116211
1738005558174741500,6.361741455078125,-24.752288818359375,-32.29883575439453,-42.08234786987305
1738005558184809500,6.3718095703125,-24.800079345703125,-32.1781120300293,-42.09803009033203
1738005558194878500,6.38187841796875,-24.325958251953125,-32.15909957885742,-41.876182556152344
1738005558204947500,6.391947509765625,-24.161529541015625,-32.04852294921875,-41.60214614868164
1738005558215016700,6.4020166015625,-24.371124267578125,-32.07647705078125,-41.89805603027344
1738005558225084400,6.41208447265625,-24.310760498046875,-31.99466323852539,-41.92788314819336
1738005558235153400,6.4221533203125,-24.403289794921875,-32.11919021606445,-42.005916595458984
1738005558245222700,6.43222265625,-24.843292236328125,-31.920494079589844,-41.922874450683594
1738005558255290600,6.44229052734375,-24.645904541015625,-32.31064987182617,-41.92216110229492
1738005558265359400,6.452359375,-24.537506103515625,-32.182586669921875,-41.96148681640625
1738005558275428600,6.4624287109375,-24.560089111328125,-32.14726257324219,-41.63310241699219
1738005558285496600,6.47249658203125,-24.561920166015625,-31.977596282958984,-41.83356475830078
1738005558295565600,6.482565673828125,-24.498016357421875,-32.239715576171875,-41.748023986816406
1738005558305634600,6.492634521484375,-24.266754150390625,-31.925750732421875,-41.59028625488281
1738005558315703300,6.502703369140625,-24.163482666015625,-31.85089874267578,-41.57868576049805
1738005558325771500,6.512771484375,-24.101104736328125,-32.22338104248047,-41.6956672668457
1738005558335840500,6.522840576171875,-23.979644775390625,-32.2812614440918,-41.63893508911133
1738005558345909500,6.532909423828125,-24.457489013671875,-32.236454010009766,-41.593807220458984
1738005558355977500,6.5429775390625,-24.415618896484375,-32.15656661987305,-41.473724365234375
1738005558366046500,6.55304638671875,-23.897430419921875,-32.280521392822266,-41.6336555480957
1738005558376116500,6.563116455078125,-24.175140380859375,-32.096397399902344,-41.63228988647461
1738005558386185700,6.573185791015625,-24.582611083984375,-32.1925163269043,-41.909549713134766
1738005558396253700,6.583253662109375,-24.427703857421875,-32.061092376708984,-41.71971130371094
1738005558406322700,6.59332275390625,-24.523284912109375,-32.100589752197266,-41.717159271240234
1738005558416391700,6.6033916015625,-24.428680419921875,-32.05809020996094,-41.58470916748047
1738005558426459600,6.613459716796875,-24.182647705078125,-32.09772491455078,-41.67518997192383
1738005558436528600,6.623528564453125,-24.715484619140625,-32.18454360961914,-41.795101165771484
1738005558446597600,6.63359765625,-24.712615966796875,-32.130802154541016,-41.75960922241211
1738005558456665600,6.64366552734375,-24.503997802734375,-31.96185302734375,-41.55729675292969
1738005558466734600,6.653734619140625,-24.385040283203125,-32.081993103027344,-41.61690139770508
1738005558476803600,6.663803466796875,-24.715789794921875,-32.27058410644531,-41.80740737915039
1738005558486872600,6.67387255859375,-24.778289794921875,-32.04874801635742,-41.700584411621094
1738005558496940500,6.6839404296875,-24.552093505859375,-31.998470306396484,-41.85416030883789
1738005558507009500,6.694009521484375,-24.382537841796875,-32.25840759277344,-41.95326232910156
1738005558517078500,6.70407861328125,-24.361358642578125,-32.114524841308594,-41.96816635131836
1738005558527146500,6.714146484375,-24.726287841796875,-32.30149841308594,-41.999881744384766
1738005558537215700,6.7242158203125,-24.595245361328125,-32.26094436645508,-41.79487991333008
1738005558547284500,6.734284423828125,-25.062530517578125,-32.4592399597168,-41.98305130004883
1738005558557353700,6.744353759765625,-25.026580810546875,-32.313438415527344,-42.08391571044922
1738005558567421700,6.754421630859375,-25.004302978515625,-32.18211364746094,-42.140750885009766
1738005558577490700,6.76449072265625,-25.008392333984375,-32.07914352416992,-41.75126647949219
1738005558587559700,6.7745595703125,-24.778656005859375,-32.05956268310547,-41.933719635009766
1738005558597627600,6.784627685546875,-24.923858642578125,-32.35235595703125,-41.896671295166016
1738005558607696600,6.794696533203125,-24.942413330078125,-32.0748405456543,-41.9572868347168
1738005558617765600,6.804765625,-24.955963134765625,-32.12150955200195,-41.996337890625
1738005558627834600,6.814834716796875,-24.718719482421875,-32.03223419189453,-42.208797454833984
1738005558637902600,6.824902587890625,-24.737457275390625,-32.11336898803711,-42.0087890625
1738005558647971600,6.8349716796875,-24.789520263671875,-32.07310104370117,-42.211666107177734
1738005558658040600,6.84504052734375,-24.753997802734375,-32.18464279174805,-42.17185974121094
1738005558668108800,6.85510888671875,-24.494049072265625,-32.219120025634766,-41.89920425415039
1738005558678177500,6.865177490234375,-24.804901123046875,-32.17137145996094,-41.93667984008789
1738005558688246800,6.875246826171875,-24.850250244140625,-32.27050018310547,-42.08768081665039
1738005558698314800,6.885314697265625,-24.729278564453125,-32.32025146484375,-42.011531829833984
1738005558708383500,6.895383544921875,-24.577484130859375,-32.313636779785156,-41.86137771606445
1738005558718452700,6.90545263671875,-24.750152587890625,-32.16987991333008,-42.12751007080078
1738005558728521500,6.915521484375,-24.848785400390625,-32.02411651611328,-42.03314971923828
1738005558738589400,6.92558935546875,-24.929534912109375,-32.176475524902344,-41.942195892333984
1738005558748658700,6.93565869140625,-24.537261962890625,-32.212669372558594,-41.98149871826172
1738005558758727400,6.9457275390625,-24.827301025390625,-31.930953979492188,-41.977542877197266
1738005558768795600,6.955795654296875,-24.708343505859375,-31.88536834716797,-42.31081771850586
1738005558778864600,6.96586474609375,-24.757171630859375,-31.847068786621094,-42.227294921875
1738005558788933600,6.97593359375,-24.354034423828125,-31.88840103149414,-41.767459869384766
1738005558799002600,6.986002685546875,-23.973907470703125,-31.841766357421875,-41.75871658325195
1738005558809070600,6.996070556640625,-24.610992431640625,-31.908451080322266,-41.756587982177734
1738005558819139800,7.006139892578125,-24.785980224609375,-31.822429656982422,-41.81382751464844
1738005558829208600,7.01620849609375,-24.256927490234375,-31.509056091308594,-41.621849060058594
1738005558839276500,7.026276611328125,-24.555328369140625,-31.384662628173828,-41.64042663574219
1738005558849345800,7.036345703125,-24.674163818359375,-31.328792572021484,-41.57306671142578
1738005558859414500,7.04641455078125,-24.704010009765625,-31.086536407470703,-41.37351989746094
1738005558869483800,7.05648388671875,-24.873504638671875,-30.854339599609375,-41.1756591796875
1738005558879551700,7.0665517578125,-24.641387939453125,-30.929759979248047,-40.9131965637207
1738005558889620500,7.076620361328125,-24.456634521484375,-30.499813079833984,-40.608638763427734
1738005558899689700,7.086689697265625,-24.795440673828125,-29.967247009277344,-40.528499603271484
1738005558909757700,7.0967578125,-24.583282470703125,-30.000686645507812,-40.1087532043457
1738005558919826400,7.106826416015625,-24.915435791015625,-29.807384490966797,-40.13510513305664
1738005558929895700,7.116895751953125,-25.067413330078125,-29.45583724975586,-39.92311477661133
1738005558939963600,7.126963623046875,-25.796234130859375,-28.978134155273438,-39.69844055175781
1738005558950032600,7.13703271484375,-25.835906982421875,-28.433502197265625,-39.03312301635742
1738005558960101600,7.1471015625,-25.648223876953125,-28.08000946044922,-38.66014099121094
1738005558970170600,7.157170654296875,-25.735076904296875,-27.872840881347656,-38.12392807006836
1738005558980238600,7.167238525390625,-25.858062744140625,-27.334972381591797,-37.68232727050781
1738005558990307600,7.1773076171875,-25.846832275390625,-26.813560485839844,-37.06060028076172
1738005559000376600,7.18737646484375,-25.653106689453125,-26.56146240234375,-36.43971633911133
1738005559010444500,7.197444580078125,-25.516754150390625,-26.142887115478516,-35.724830627441406
1738005559020513500,7.207513427734375,-25.854278564453125,-25.795604705810547,-35.07832717895508
1738005559030582800,7.217582763671875,-26.147674560546875,-25.07723617553711,-34.278316497802734
1738005559040651500,7.227651611328125,-26.103118896484375,-24.647335052490234,-33.30479049682617
1738005559050719500,7.237719482421875,-26.411590576171875,-24.140769958496094,-32.1910285949707
1738005559060788700,7.247788818359375,-26.835113525390625,-23.189659118652344,-29.95874786376953
1738005559070857500,7.257857421875,-26.926177978515625,-22.463226318359375,-28.487226486206055
1738005559080925700,7.26792578125,-27.180328369140625,-21.60120391845703,-27.089590072631836
1738005559090994700,7.27799462890625,-27.583404541015625,-20.957984924316406,-25.31842613220215
1738005559101063700,7.288063720703125,-27.710601806640625,-20.12646484375,-23.547338485717773
1738005559111131600,7.298131591796875,-27.887847900390625,-19.382347106933594,-21.504060745239258
1738005559121200600,7.30820068359375,-27.995086669921875,-18.486114501953125,-19.260454177856445
1738005559131269600,7.31826953125,-28.209014892578125,-17.50701904296875,-17.309200286865234
1738005559141338600,7.328338623046875,-28.500274658203125,-16.2965087890625,-15.174922943115234
1738005559151406600,7.338406494140625,-28.731903076171875,-15.408645629882812,-13.435454368591309
1738005559161475600,7.3484755859375,-28.903472900390625,-14.42529296875,-11.832935333251953
1738005559171544600,7.358544677734375,-28.867889404296875,-13.391120910644531,-9.98512077331543
1738005559181612800,7.36861279296875,-29.079437255859375,-12.150100708007812,-8.647424697875977
1738005559191681500,7.378681640625,-29.611846923828125,-11.145599365234375,-7.0164408683776855
1738005559201750500,7.38875048828125,-29.392059326171875,-10.367324829101562,-5.380939483642578
1738005559211818800,7.39881884765625,-29.486297607421875,-9.323257446289062,-3.826305866241455
1738005559221887500,7.408887451171875,-29.590667724609375,-7.98431396484375,-2.387103319168091
1738005559231956700,7.418956787109375,-29.668243408203125,-7.202980041503906,-1.1201834678649902
1738005559242025700,7.429025634765625,-29.558563232421875,-5.970573425292969,0.14813566207885742
1738005559252093400,7.439093505859375,-29.734588623046875,-4.842552185058594,1.159846305847168
1738005559262162700,7.44916259765625,-30.060577392578125,-3.8503570556640625,2.3694586753845215
1738005559272231700,7.459231689453125,-30.590789794921875,-3.1651382446289062,3.227541446685791
1738005559282299400,7.46929931640625,-30.221466064453125,-2.1021575927734375,4.18384313583374
1738005559292368600,7.47936865234375,-30.509185791015625,-1.2754364013671875,4.957605838775635
1738005559302437600,7.489437744140625,-30.719146728515625,-0.5965194702148438,5.546851634979248
1738005559312506600,7.499506591796875,-30.623931884765625,0.31276702880859375,6.329225063323975
1738005559322574600,7.50957470703125,-30.655853271484375,1.2446136474609375,6.898009777069092
1738005559332643600,7.5196435546875,-30.649749755859375,2.1769180297851562,7.541712284088135
1738005559342712600,7.529712646484375,-30.737579345703125,3.0483932495117188,8.530887603759766
1738005559352780500,7.539780517578125,-30.729705810546875,3.8753204345703125,9.115575790405273
1738005559362849800,7.549849853515625,-30.889373779296875,4.604713439941406,9.325111389160156
1738005559372918000,7.55991796875,-30.372406005859375,5.1947174072265625,9.568300247192383
1738005559382985700,7.56998583984375,-30.338043212890625,5.930488586425781,9.906484603881836
1738005559393055000,7.580054931640625,-30.364349365234375,6.8046875,10.5047607421875
1738005559403124000,7.5901240234375,-30.371612548828125,7.562049865722656,10.795909881591797
1738005559413193000,7.60019287109375,-30.075592041015625,8.148109436035156,10.953035354614258
1738005559423261000,7.610260986328125,-29.584014892578125,8.750663757324219,11.317384719848633
1738005559433330000,7.620329833984375,-29.760711669921875,9.234184265136719,11.255781173706055
1738005559443399000,7.63039892578125,-29.230804443359375,9.737045288085938,11.100717544555664
1738005559453467000,7.640466796875,-28.530914306640625,10.284065246582031,11.020891189575195
1738005559463536000,7.6505361328125,-28.036895751953125,11.03228759765625,10.905242919921875
1738005559473604900,7.66060498046875,-27.370941162109375,11.540435791015625,10.379493713378906
1738005559483672800,7.6706728515625,-27.095062255859375,11.822883605957031,9.537599563598633
1738005559493742000,7.6807421875,-26.479827880859375,12.145454406738281,9.384891510009766
1738005559503810800,7.690810791015625,-25.699005126953125,12.331825256347656,8.59561538696289
1738005559513880000,7.700880126953125,-25.093170166015625,12.562286376953125,7.914201259613037
1738005559523948000,7.710947998046875,-23.916778564453125,12.789138793945312,7.2829909324646
1738005559534016800,7.721016845703125,-22.7060546875,12.805641174316406,6.726489543914795
1738005559544086000,7.7310859375,-22.0472412109375,13.155303955078125,6.059123516082764
1738005559554154000,7.741154052734375,-20.881927490234375,13.237510681152344,5.252333164215088
1738005559564222700,7.75122265625,-19.229339599609375,13.151222229003906,4.635916233062744
1738005559574292000,7.7612919921875,-18.329071044921875,13.080299377441406,4.19148588180542
1738005559584360000,7.77135986328125,-17.920257568359375,13.015083312988281,3.7718043327331543
1738005559594429000,7.781428955078125,-17.343536376953125,13.358474731445312,3.5110840797424316
1738005559604498000,7.791497802734375,-16.10748291015625,13.927032470703125,4.385682582855225
1738005559614567000,7.80156689453125,-15.834686279296875,14.34674072265625,5.131851673126221
1738005559624635000,7.811634765625,-16.153350830078125,14.948570251464844,5.94883394241333
1738005559634704000,7.821703857421875,-16.3935546875,15.486442565917969,6.55757474899292
1738005559644773000,7.831773193359375,-17.296844482421875,16.411972045898438,7.805736064910889
1738005559654840800,7.8418408203125,-18.388153076171875,17.3590087890625,8.714153289794922
1738005559664909800,7.851909912109375,-20.17279052734375,18.331993103027344,9.4014892578125
1738005559674979000,7.86197900390625,-21.0247802734375,19.316490173339844,10.12407112121582
1738005559685046800,7.872046875,-22.412872314453125,20.271751403808594,10.31321907043457
1738005559695115800,7.88211572265625,-23.734039306640625,21.177093505859375,10.333562850952148
1738005559705185000,7.89218505859375,-24.574249267578125,21.802207946777344,10.543842315673828
1738005559715253000,7.9022529296875,-25.157867431640625,22.591339111328125,10.729015350341797
1738005559725322000,7.912322021484375,-25.807586669921875,23.067474365234375,10.517026901245117
1738005559735391000,7.922390869140625,-26.749908447265625,23.289779663085938,10.303945541381836
1738005559745459700,7.932459716796875,-26.605010986328125,23.363967895507812,10.346696853637695
1738005559755528000,7.94252783203125,-26.529083251953125,23.766334533691406,10.520780563354492
1738005559765597000,7.952596923828125,-26.513275146484375,23.973434448242188,10.849939346313477
1738005559775666000,7.962666015625,-26.967315673828125,23.946556091308594,11.257959365844727
1738005559785734000,7.97273388671875,-26.769561767578125,23.746780395507812,11.133966445922852
1738005559795803000,7.982802978515625,-27.082061767578125,24.19586181640625,11.536539077758789
1738005559805871900,7.992871826171875,-27.440826416015625,24.107215881347656,11.876192092895508
1738005559815939800,8.00293994140625,-27.343414306640625,23.840911865234375,12.527250289916992
1738005559826008800,8.0130087890625,-27.527191162109375,23.91246795654297,13.067546844482422
1738005559836077800,8.023077880859375,-27.934783935546875,23.75653076171875,13.399971008300781
1738005559846145800,8.033145751953125,-28.037994384765625,23.742652893066406,13.588613510131836
1738005559856215000,8.043215087890625,-28.025115966796875,23.568359375,14.139570236206055
1738005559866283800,8.05328369140625,-28.183135986328125,23.585006713867188,14.369831085205078
1738005559876351700,8.063351806640625,-28.436981201171875,23.472503662109375,14.617008209228516
1738005559886421000,8.0734208984375,-28.407012939453125,23.258766174316406,15.266035079956055
1738005559896490000,8.083489990234375,-28.781585693359375,23.137550354003906,15.705162048339844
1738005559906559000,8.09355908203125,-28.619415283203125,23.20441436767578,15.795036315917969
1738005559916627000,8.103626953125,-28.982452392578125,23.019699096679688,16.040462493896484
1738005559926696000,8.113696044921875,-28.927886962890625,22.917991638183594,16.23283576965332
1738005559936765000,8.123764892578125,-29.041534423828125,22.648101806640625,16.301362991333008
1738005559946833000,8.1338330078125,-29.565460205078125,22.609107971191406,16.672273635864258
1738005559956902100,8.143902099609376,-29.705413818359375,22.490814208984375,16.752948760986328
1738005559966971000,8.153970947265625,-29.707000732421875,22.246505737304688,17.074604034423828
1738005559977038800,8.164038818359375,-29.551727294921875,22.181732177734375,17.029123306274414
1738005559987108000,8.174108154296874,-29.404693603515625,22.269027709960938,17.064983367919922
1738005559997176800,8.1841767578125,-29.884918212890625,22.05683135986328,17.280574798583984
1738005560007244800,8.194244873046875,-30.369293212890625,21.962608337402344,17.293193817138672
1738005560017314000,8.20431396484375,-30.131561279296875,21.731956481933594,17.430320739746094
1738005560027382800,8.2143828125,-30.492828369140625,21.83599853515625,17.33918571472168
1738005560037450800,8.22445068359375,-30.920806884765625,21.609085083007812,17.39838218688965
1738005560047520000,8.23452001953125,-30.706695556640625,21.468040466308594,17.619915008544922
1738005560057588700,8.244588623046875,-31.062408447265625,21.50048065185547,17.513134002685547
1738005560067658000,8.254657958984374,-30.823638916015625,21.118995666503906,17.306364059448242
1738005560077726000,8.264725830078126,-31.194244384765625,21.03857421875,17.537214279174805
1738005560087795000,8.274794921875,-30.871185302734375,20.97876739501953,17.732685089111328
1738005560097864000,8.284864013671875,-31.360992431640625,20.972869873046875,17.656322479248047
1738005560107932000,8.294931884765624,-31.593658447265625,20.83972930908203,17.729122161865234
1738005560118001000,8.3050009765625,-31.746307373046875,20.677268981933594,17.647907257080078
1738005560128070000,8.31506982421875,-31.704925537109375,20.5001220703125,17.906490325927734
1738005560138137900,8.325137939453125,-32.022857666015625,20.292564392089844,17.934871673583984
1738005560148206800,8.335206787109374,-31.837921142578125,20.177764892578125,17.797407150268555
1738005560158275800,8.34527587890625,-31.986541748046875,19.99114227294922,17.7622013092041
1738005560168344000,8.355343994140625,-32.309844970703125,20.127464294433594,17.672746658325195
1738005560178412800,8.365412841796875,-32.138641357421875,20.222442626953125,17.819976806640625
1738005560188481800,8.375481689453125,-32.121185302734375,19.965118408203125,17.939777374267578
1738005560198550000,8.385550048828126,-32.448272705078125,20.00580596923828,17.87230110168457
1738005560208618800,8.39561865234375,-32.534576416015625,19.79547882080078,17.60615348815918
1738005560218688000,8.40568798828125,-32.791229248046875,19.642715454101562,17.497581481933594
1738005560228756000,8.415755859375,-32.824615478515625,19.56005096435547,17.395278930664062
1738005560238825000,8.425824951171874,-32.818572998046875,19.532997131347656,17.58279037475586
1738005560248894000,8.43589404296875,-33.294830322265625,19.443557739257812,17.748659133911133
1738005560258963000,8.445962890625,-33.278717041015625,19.504600524902344,17.758882522583008
1738005560269031000,8.456031005859375,-33.437835693359375,19.337806701660156,17.50103187561035
1738005560279100000,8.466099853515624,-33.709991455078125,19.46198272705078,17.430221557617188
1738005560289169000,8.4761689453125,-33.551177978515625,19.303848266601562,17.505800247192383
1738005560299237000,8.486237060546875,-33.599639892578125,19.121810913085938,17.385208129882812
1738005560309305900,8.496305908203125,-33.577301025390625,18.924636840820312,17.31098747253418
1738005560319374800,8.506374755859374,-33.572235107421875,18.79552459716797,17.265117645263672
1738005560329443000,8.516443115234376,-33.481475830078125,18.773574829101562,17.254222869873047
1738005560339511800,8.52651171875,-34.209747314453125,18.8311767578125,17.402713775634766
1738005560349581000,8.5365810546875,-34.193695068359375,18.879356384277344,17.203121185302734
1738005560359649000,8.54664892578125,-34.199981689453125,18.834510803222656,17.190589904785156
1738005560369717800,8.5567177734375,-33.730316162109375,18.691604614257812,17.42629051208496
1738005560379787300,8.566787353515625,-33.761627197265625,18.573440551757812,17.343976974487305
1738005560389855200,8.576855224609375,-33.786895751953125,18.61467742919922,17.202863693237305
1738005560399924200,8.58692431640625,-33.798187255859375,18.485107421875,17.428844451904297
1738005560409993200,8.5969931640625,-33.817291259765625,18.55785369873047,17.42195701599121
1738005560420061400,8.6070615234375,-33.962921142578125,18.436859130859375,17.307889938354492
1738005560430130200,8.617130126953125,-33.998504638671875,18.368499755859375,17.31161117553711
1738005560440199200,8.62719921875,-33.639739990234375,18.321449279785156,17.32699203491211
1738005560450267400,8.637267333984376,-34.084075927734375,18.276023864746094,17.167890548706055
1738005560460336000,8.647336181640625,-33.876068115234375,18.257949829101562,17.347030639648438
1738005560470405400,8.6574052734375,-34.148834228515625,18.4647216796875,17.2503662109375
1738005560480473300,8.667473388671874,-34.081329345703125,18.43439483642578,17.216753005981445
1738005560490542000,8.6775419921875,-34.169158935546875,18.39325714111328,17.243919372558594
1738005560500611300,8.687611328125,-34.267547607421875,18.48552703857422,17.207605361938477
1738005560510679300,8.69767919921875,-34.277862548828125,18.38445281982422,17.057676315307617
1738005560520748000,8.707748046875,-34.755279541015625,18.178611755371094,17.096677780151367
1738005560530817300,8.7178173828125,-34.836639404296875,18.277786254882812,17.07806396484375
1738005560540885200,8.72788525390625,-34.832183837890625,18.23065185546875,17.0709228515625
1738005560550954200,8.737954345703125,-34.953643798828125,18.214187622070312,16.94062614440918
1738005560561023200,8.748023193359375,-35.117950439453125,18.183700561523438,17.03742790222168
1738005560571091200,8.75809130859375,-34.602264404296875,17.850555419921875,17.221492767333984
1738005560581160200,8.76816015625,-34.441070556640625,17.898651123046875,17.050722122192383
1738005560591229200,8.778229248046875,-34.305999755859375,17.76781463623047,17.01027488708496
1738005560601297200,8.788297119140625,-34.951385498046875,17.70520782470703,16.92861557006836
1738005560611366100,8.7983662109375,-35.007293701171875,17.80377197265625,16.85991096496582
1738005560621435100,8.80843505859375,-35.035614013671875,17.973304748535156,16.958412170410156
1738005560631503400,8.81850341796875,-34.753692626953125,17.69207000732422,16.859111785888672
1738005560641572400,8.828572265625,-34.426605224609375,17.848159790039062,16.964298248291016
1738005560651641000,8.83864111328125,-35.012786865234375,17.626968383789062,16.83775520324707
1738005560661709300,8.848709228515625,-34.872528076171875,17.56024169921875,16.827829360961914
1738005560671778300,8.8587783203125,-34.828521728515625,17.61102294921875,16.839588165283203
1738005560681847300,8.868847412109375,-35.234161376953125,17.468841552734375,16.827566146850586
1738005560691916300,8.878916259765624,-35.224884033203125,17.298561096191406,16.81342315673828
1738005560701984300,8.888984375,-34.843658447265625,17.533737182617188,16.783788681030273
1738005560712053200,8.89905322265625,-35.050201416015625,17.506881713867188,16.879013061523438
1738005560722122200,8.909122314453125,-34.917266845703125,17.352096557617188,17.015504837036133
1738005560732190200,8.919190185546874,-35.020721435546875,17.361549377441406,17.201879501342773
1738005560742259200,8.92925927734375,-34.440582275390625,17.37248992919922,17.019794464111328
1738005560752328200,8.939328125,-34.718780517578125,17.39006805419922,16.88327407836914
1738005560762396400,8.949396484375,-34.868438720703125,17.461692810058594,16.699792861938477
1738005560772465200,8.959465087890624,-34.433746337890625,17.365463256835938,16.61690902709961
1738005560782534400,8.969534423828126,-34.601226806640625,17.17992401123047,16.737071990966797
1738005560792602400,8.979602294921875,-34.653411865234375,17.210121154785156,16.67277717590332
1738005560802671000,8.989671142578125,-34.996368408203125,17.16259765625,16.764925003051758
1738005560812740400,8.999740234375,-34.872161865234375,17.232933044433594,16.718233108520508
1738005560822808300,9.009808349609376,-35.193572998046875,17.22455596923828,16.66171646118164
1738005560832877000,9.019876953125,-35.475738525390625,17.279220581054688,16.784406661987305
1738005560842945300,9.0299453125,-35.679962158203125,17.198150634765625,16.86463737487793
1738005560853014300,9.04001416015625,-35.668182373046875,17.219772338867188,16.967126846313477
1738005560863083000,9.0500830078125,-35.409088134765625,17.067703247070312,16.703397750854492
1738005560873152300,9.06015234375,-35.366485595703125,16.91986083984375,16.982528686523438
1738005560883220200,9.07022021484375,-35.127410888671875,16.7109375,16.818851470947266
1738005560893289200,9.080289306640625,-35.153289794921875,16.808021545410156,16.899078369140625
1738005560903357200,9.090357177734376,-35.537811279296875,16.858062744140625,16.826221466064453
1738005560913426200,9.10042626953125,-35.403045654296875,16.903175354003906,16.695650100708008
1738005560923495200,9.1104951171875,-35.657806396484375,17.05029296875,16.628795623779297
1738005560933563100,9.120563232421874,-35.303680419921875,16.769775390625,16.896696090698242
1738005560943632100,9.130632080078126,-34.812408447265625,16.580177307128906,16.805448532104492
1738005560953701400,9.140701416015625,-35.173492431640625,16.44464111328125,16.872886657714844
1738005560963769000,9.15076904296875,-35.321563720703125,16.743125915527344,16.667003631591797
1738005560973838300,9.16083837890625,-34.977752685546875,16.695526123046875,17.001163482666016
1738005560983907300,9.1709072265625,-35.116363525390625,16.580963134765625,17.050214767456055
1738005560993975000,9.18097509765625,-35.085540771484375,16.45793914794922,17.046262741088867
1738005561004044300,9.191044189453125,-34.868560791015625,16.599952697753906,17.017398834228516
1738005561014113300,9.20111328125,-35.246368408203125,16.7652587890625,16.79401969909668
1738005561024181200,9.21118115234375,-35.126312255859375,16.75933074951172,16.776443481445312
1738005561034250200,9.221250244140625,-35.382965087890625,16.603355407714844,16.77914810180664
1738005561044319200,9.2313193359375,-35.211639404296875,16.608680725097656,16.41215705871582
1738005561054387500,9.241387451171875,-35.196502685546875,16.74591827392578,16.813032150268555
1738005561064456200,9.251456298828124,-35.458282470703125,16.753402709960938,16.71807289123535
1738005561074525400,9.261525390625,-35.023040771484375,16.60717010498047,16.770427703857422
1738005561084593400,9.271593505859375,-34.899749755859375,16.787673950195312,16.953662872314453
1738005561094662100,9.281662109375,-35.060760498046875,16.832542419433594,16.79845428466797
1738005561104731400,9.2917314453125,-35.183868408203125,16.656234741210938,16.68113136291504
1738005561114799400,9.30179931640625,-35.027679443359375,16.725799560546875,16.769573211669922
1738005561124868000,9.3118681640625,-35.314666748046875,16.80182647705078,16.907987594604492
1738005561134937300,9.321937255859375,-35.171966552734375,16.861862182617188,16.75823974609375
1738005561145005300,9.33200537109375,-35.379119873046875,17.22777557373047,16.66130256652832
1738005561155074300,9.34207421875,-35.396697998046875,17.073898315429688,16.363313674926758
1738005561165143300,9.352143310546875,-35.573638916015625,16.884735107421875,16.524538040161133
1738005561175211300,9.362211181640625,-35.574676513671875,16.80438232421875,16.397123336791992
1738005561185280300,9.3722802734375,-35.562042236328125,16.695571899414062,16.443613052368164
1738005561195349200,9.382349365234376,-35.475433349609375,16.81334686279297,16.238372802734375
1738005561205417200,9.392417236328125,-35.742095947265625,16.705596923828125,16.366458892822266
1738005561215486200,9.402486328125,-35.720062255859375,16.81140899658203,16.429384231567383
1738005561225555200,9.41255517578125,-35.295684814453125,16.871055603027344,16.339632034301758
1738005561235623400,9.42262353515625,-35.357757568359375,16.82183074951172,16.346134185791016
1738005561245692200,9.432692138671875,-35.187713623046875,16.68389892578125,16.427289962768555
1738005561255761200,9.44276123046875,-35.237640380859375,16.697433471679688,16.33026695251465
1738005561265829400,9.452829345703124,-35.351409912109375,16.823219299316406,16.424617767333984
1738005561275898000,9.462898193359376,-35.345672607421875,16.823959350585938,16.35368537902832
1738005561285967400,9.47296728515625,-35.154510498046875,16.848365783691406,16.46649742126465
1738005561296035300,9.483035400390625,-35.249420166015625,16.796051025390625,16.43816375732422
1738005561306104000,9.49310400390625,-35.112640380859375,16.954200744628906,16.29138946533203
1738005561316172000,9.503172119140626,-35.724822998046875,16.977645874023438,16.121015548706055
1738005561326241300,9.5132412109375,-35.704315185546875,16.764610290527344,16.313190460205078
1738005561336310300,9.523310302734375,-35.884185791015625,16.732574462890625,16.219383239746094
1738005561346378200,9.533378173828124,-35.596649169921875,16.694442749023438,16.25522232055664
1738005561356447200,9.543447265625,-35.725677490234375,16.73779296875,15.942790985107422
1738005561366516200,9.55351611328125,-35.455596923828125,16.561553955078125,16.130687713623047
1738005561376584700,9.563584716796875,-35.548309326171875,16.645614624023438,16.137041091918945
1738005561386653700,9.57365380859375,-35.932403564453125,16.769912719726562,15.92793083190918
1738005561396722700,9.58372265625,-35.722625732421875,16.670028686523438,16.17584228515625
1738005561406790700,9.593790771484375,-35.521514892578125,16.722068786621094,16.163591384887695
1738005561416859600,9.603859619140625,-35.847198486328125,16.669601440429688,16.19805908203125
1738005561426928600,9.6139287109375,-35.947479248046875,16.815818786621094,16.14902114868164
1738005561436996600,9.62399658203125,-36.172760009765625,16.62976837158203,16.2202091217041
1738005561447065900,9.63406591796875,-35.843902587890625,16.686256408691406,16.158611297607422
1738005561457134800,9.644134765625,-35.700897216796875,16.782859802246094,16.158971786499023
1738005561467202600,9.65420263671875,-35.513275146484375,16.961013793945312,16.131139755249023
1738005561477271800,9.664271728515626,-35.528228759765625,16.95941925048828,16.088375091552734
1738005561487340800,9.6743408203125,-35.560638427734375,16.879501342773438,16.255870819091797
1738005561497408500,9.684408447265625,-35.518585205078125,16.964187622070312,16.231603622436523
1738005561507477800,9.694477783203125,-35.379180908203125,16.881149291992188,16.328411102294922
1738005561517546800,9.704546630859374,-35.611053466796875,16.844863891601562,16.061155319213867
1738005561527614700,9.71461474609375,-35.713958740234375,16.833274841308594,16.082931518554688
1738005561537683700,9.72468359375,-35.741668701171875,16.820838928222656,16.203638076782227
1738005561547751700,9.734751708984374,-35.508575439453125,16.96582794189453,15.948554992675781
1738005561557820700,9.744820556640626,-35.004486083984375,16.833290100097656,15.97941780090332
1738005561567889700,9.7548896484375,-35.003814697265625,16.713623046875,15.854578018188477
1738005561577957600,9.76495751953125,-34.994903564453125,16.919387817382812,16.024934768676758
1738005561588027000,9.77502685546875,-34.851837158203125,16.959548950195312,16.009593963623047
1738005561598095600,9.785095703125,-34.818878173828125,16.987022399902344,15.906427383422852
1738005561608163800,9.795163818359375,-35.014190673828125,17.06201934814453,15.76095199584961
1738005561618232800,9.80523291015625,-35.143768310546875,17.20043182373047,15.515495300292969
1738005561628301800,9.8153017578125,-35.301116943359375,16.9542236328125,15.426958084106445
1738005561638369800,9.825369873046874,-35.222320556640625,16.744888305664062,15.66497802734375
1738005561648438800,9.835438720703126,-35.341461181640625,16.965927124023438,15.512828826904297
1738005561658507800,9.8455078125,-35.044769287109375,16.833023071289062,15.649747848510742
1738005561668575700,9.85557568359375,-35.390960693359375,16.958282470703125,15.676851272583008
1738005561678644700,9.865644775390624,-35.470245361328125,17.000938415527344,15.701343536376953
1738005561688713700,9.875713623046876,-35.592132568359375,16.986717224121094,15.42045783996582
1738005561698781700,9.88578173828125,-35.650665283203125,16.95355987548828,15.419515609741211
1738005561708851000,9.895850830078125,-35.332489013671875,16.786888122558594,15.445270538330078
1738005561718919000,9.9059189453125,-35.597137451171875,16.854400634765625,15.372587203979492
1738005561728987600,9.915987548828125,-35.625457763671875,16.925094604492188,15.410726547241211
1738005561739057000,9.926056884765625,-35.642486572265625,16.89215087890625,15.590702056884766
1738005561749124900,9.936124755859375,-35.659515380859375,16.930953979492188,15.282733917236328
1738005561759193600,9.946193603515624,-35.776458740234375,16.957366943359375,15.069145202636719
1738005561769262800,9.956262939453126,-35.650787353515625,17.18181610107422,15.07192611694336
1738005561779330800,9.966330810546875,-35.963104248046875,17.234100341796875,14.991497039794922
1738005561789399600,9.976399658203125,-36.081146240234375,17.14867401123047,15.063203811645508
1738005561799468800,9.98646875,-36.196807861328125,17.117576599121094,15.296770095825195
1738005561809536800,9.996536865234376,-35.926544189453125,16.980552673339844,15.152467727661133
1738005561819605800,10.006605712890625,-35.693878173828125,17.06365203857422,15.04551887512207
1738005561829674800,10.0166748046875,-35.250579833984375,16.830642700195312,15.258169174194336
1738005561839742700,10.02674267578125,-35.478302001953125,17.039749145507812,15.350784301757812
1738005561849811700,10.036811767578126,-35.649810791015625,16.907493591308594,15.287784576416016
1738005561859879700,10.046879638671875,-35.750274658203125,17.038291931152344,15.15481185913086
1738005561869948700,10.05694873046875,-35.886749267578125,16.967628479003906,15.130971908569336
1738005561880017700,10.067017578125,-35.923797607421875,16.850440979003906,15.162775039672852
1738005561890085600,10.077085693359376,-35.737152099609375,16.95354461669922,15.105205535888672
1738005561900155000,10.08715478515625,-35.364349365234375,16.822669982910156,15.078178405761719
1738005561910223600,10.0972236328125,-35.568084716796875,17.125564575195312,15.082284927368164
1738005561920291600,10.10729150390625,-35.116546630859375,16.836746215820312,14.845136642456055
1738005561930360800,10.11736083984375,-35.610198974609375,16.966964721679688,14.917442321777344
1738005561940429600,10.1274296875,-35.475555419921875,16.954086303710938,14.983552932739258
1738005561950497500,10.13749755859375,-35.694854736328125,17.27509307861328,14.783065795898438
1738005561960566800,10.14756689453125,-35.866424560546875,17.121337890625,14.727741241455078
1738005561970634800,10.157634765625,-35.831817626953125,17.174827575683594,14.60153579711914
1738005561980703700,10.167703857421875,-36.194427490234375,17.325332641601562,14.49301528930664
1738005561990772700,10.177772705078125,-35.742889404296875,17.359710693359375,14.465545654296875
1738005562000840700,10.1878408203125,-35.959014892578125,17.453086853027344,14.381980895996094
1738005562010909700,10.19790966796875,-35.504669189453125,17.449569702148438,14.586418151855469
1738005562020978700,10.207978759765625,-35.460052490234375,17.34278106689453,14.720544815063477
1738005562031046700,10.218046630859375,-35.753448486328125,17.173171997070312,14.497182846069336
1738005562041115600,10.22811572265625,-35.796112060546875,17.362884521484375,14.572244644165039
1738005562051184600,10.2381845703125,-35.356658935546875,17.411361694335938,14.530929565429688
1738005562061252900,10.2482529296875,-35.480072021484375,17.583091735839844,14.527172088623047
1738005562071321600,10.258321533203125,-35.402069091796875,17.45868682861328,14.619522094726562
1738005562081389600,10.2683896484375,-35.621185302734375,17.432723999023438,14.173896789550781
1738005562091458800,10.278458740234376,-35.411407470703125,17.567642211914062,14.418636322021484
1738005562101527800,10.28852783203125,-35.252288818359375,17.92498016357422,14.410045623779297
1738005562111595500,10.298595458984375,-35.536407470703125,17.81549072265625,14.529314041137695
1738005562121664800,10.308664794921874,-35.503265380859375,17.665016174316406,14.293830871582031
1738005562131733800,10.318733642578126,-35.797332763671875,17.659217834472656,14.697212219238281
1738005562141801700,10.3288017578125,-35.543609619140625,17.682411193847656,14.783451080322266
1738005562151870700,10.33887060546875,-35.358001708984375,17.6357421875,14.510721206665039
1738005562161940000,10.34893994140625,-35.502593994140625,17.548553466796875,14.281551361083984
1738005562172007700,10.359007568359376,-35.527679443359375,17.610008239746094,14.418458938598633
1738005562182076700,10.36907666015625,-35.820770263671875,17.642684936523438,14.475830078125
1738005562192144600,10.37914453125,-35.623565673828125,17.4586181640625,14.54969596862793
1738005562202214000,10.3892138671875,-35.626739501953125,17.401473999023438,14.508420944213867
1738005562212282600,10.39928271484375,-35.375091552734375,17.3426513671875,14.593542098999023
1738005562222350800,10.409350830078125,-35.649444580078125,17.205284118652344,14.622865676879883
1738005562232419800,10.419419921875,-35.680450439453125,17.411758422851562,14.530502319335938
1738005562242488600,10.429488525390624,-35.545501708984375,17.212791442871094,14.477415084838867
1738005562252556800,10.439556884765626,-35.372528076171875,17.357749938964844,14.479084014892578
1738005562262625800,10.449625732421875,-35.313995361328125,17.53423309326172,14.712200164794922
1738005562272694800,10.45969482421875,-35.159027099609375,17.52777862548828,14.585094451904297
1738005562282762800,10.4697626953125,-35.143280029296875,17.22917938232422,14.508901596069336
1738005562292831700,10.479831787109376,-35.746490478515625,17.374282836914062,14.435735702514648
1738005562302899700,10.489899658203125,-36.034881591796875,17.470603942871094,14.401376724243164
1738005562312968700,10.49996875,-35.372711181640625,17.125938415527344,14.32332992553711
1738005562323037700,10.51003759765625,-35.342987060546875,17.380615234375,14.410003662109375
1738005562333106000,10.52010595703125,-35.566131591796875,17.431297302246094,14.07642936706543
1738005562343174700,10.530174560546875,-35.438873291015625,17.438209533691406,14.358901977539062
1738005562353244000,10.540243896484375,-35.901641845703125,17.391616821289062,14.328531265258789
1738005562363311900,10.550311767578124,-35.726409912109375,17.457168579101562,14.379716873168945
1738005562373380600,10.560380615234376,-35.860992431640625,17.454261779785156,14.24574089050293
1738005562383447800,10.57044775390625,-35.566497802734375,17.521331787109375,14.157299041748047
1738005562393517000,10.58051708984375,-35.937286376953125,17.586654663085938,14.174427032470703
1738005562403585800,10.590585693359374,-35.602752685546875,17.311187744140625,14.138900756835938
1738005562413654000,10.600654052734376,-35.405303955078125,17.268447875976562,14.020612716674805
1738005562423723000,10.610722900390625,-35.568023681640625,17.656959533691406,14.035390853881836
1738005562433792000,10.6207919921875,-35.769561767578125,17.638427734375,13.95791244506836
1738005562443860000,10.63085986328125,-35.490386962890625,17.40045928955078,14.112756729125977
1738005562453929000,10.640928955078126,-35.513763427734375,17.38904571533203,14.168996810913086
1738005562463997000,10.650996826171875,-35.774261474609375,17.437034606933594,14.116735458374023
1738005562474066000,10.66106591796875,-35.592010498046875,17.30725860595703,14.112024307250977
1738005562484135000,10.671135009765624,-35.604522705078125,17.276931762695312,14.010921478271484
1738005562494203100,10.681203125,-35.319244384765625,17.375991821289062,14.111555099487305
1738005562504272000,10.69127197265625,-35.667022705078125,17.542190551757812,14.178140640258789
1738005562514340900,10.7013408203125,-35.683746337890625,17.462615966796875,14.093095779418945
1738005562524409000,10.7114091796875,-36.054229736328125,17.647361755371094,14.128885269165039
1738005562534477800,10.721477783203126,-35.842803955078125,17.54743194580078,14.110612869262695
1738005562544547000,10.731547119140625,-35.333709716796875,17.492019653320312,14.272417068481445
1738005562554615000,10.741614990234375,-35.789031982421875,17.297401428222656,14.20541000366211
1738005562564684000,10.75168408203125,-35.676727294921875,17.288475036621094,14.291580200195312
1738005562574752000,10.761751953125,-35.980316162109375,17.290573120117188,14.166141510009766
1738005562584821000,10.771821044921875,-36.028900146484375,17.521339416503906,13.992364883422852
1738005562594890000,10.781889892578125,-35.787322998046875,17.55255126953125,14.043344497680664
1738005562604958000,10.7919580078125,-36.025054931640625,17.590919494628906,14.037221908569336
1738005562615027000,10.80202685546875,-35.875701904296875,17.454757690429688,14.152225494384766
1738005562625096200,10.81209619140625,-35.937591552734375,17.57463836669922,14.345346450805664
1738005562635164000,10.822163818359375,-35.735992431640625,17.553260803222656,14.555131912231445
1738005562645233000,10.83223291015625,-35.911773681640625,17.345535278320312,14.385623931884766
1738005562655301000,10.842301025390626,-35.863616943359375,17.562850952148438,14.21965217590332
1738005562665370000,10.8523701171875,-35.799407958984375,17.518661499023438,14.318733215332031
1738005562675438800,10.86243896484375,-35.538787841796875,17.617767333984375,14.171436309814453
1738005562685507000,10.872507080078124,-35.645599365234375,17.556793212890625,14.412609100341797
1738005562695576000,10.882576171875,-35.822296142578125,17.228302001953125,14.242385864257812
1738005562705645000,10.89264501953125,-35.825775146484375,17.096458435058594,14.334754943847656
1738005562715713000,10.902713134765625,-35.572784423828125,17.19768524169922,14.372100830078125
1738005562725782000,10.912781982421874,-35.744598388671875,17.365020751953125,14.47369384765625
1738005562735850000,10.92285009765625,-36.007171630859375,17.530929565429688,14.472610473632812
1738005562745919000,10.9329189453125,-35.947235107421875,17.52740478515625,14.270586013793945
1738005562755988000,10.942988037109375,-35.373199462890625,17.55517578125,14.460029602050781
1738005562766056000,10.953055908203124,-35.608795166015625,17.598556518554688,14.292842864990234
1738005562776125000,10.963125,-35.732513427734375,17.43805694580078,14.248764038085938
1738005562786194200,10.973194091796875,-35.765899658203125,17.46204376220703,14.051301956176758
1738005562796262100,10.98326220703125,-35.898345947265625,17.317413330078125,14.105550765991211
1738005562806331000,10.993330810546874,-35.679290771484375,17.446617126464844,14.382068634033203
1738005562816399000,11.003399169921876,-35.776580810546875,17.465538024902344,14.403644561767578
1738005562826468000,11.013468017578125,-35.861297607421875,17.344635009765625,14.197042465209961
1738005562836536800,11.023536865234375,-36.052276611328125,17.37177276611328,14.379539489746094
1738005562846605000,11.03360498046875,-36.170074462890625,17.56720733642578,14.206600189208984
1738005562856674000,11.043674072265626,-35.501617431640625,17.52471160888672,14.475069046020508
1738005562866742000,11.053741943359375,-35.436859130859375,17.33446502685547,14.491100311279297
1738005562876811000,11.06381103515625,-35.864227294921875,17.18750762939453,14.49039077758789
1738005562886880000,11.0738798828125,-36.053009033203125,17.00688934326172,14.157207489013672
1738005562896948200,11.0839482421875,-35.902374267578125,17.18482208251953,14.338741302490234
1738005562907017000,11.094016845703125,-35.512176513671875,17.3734130859375,14.466524124145508
1738005562917086000,11.1040859375,-35.616973876953125,17.029388427734375,14.324687957763672
1738005562927154200,11.114154296875,-35.745574951171875,17.213485717773438,14.371288299560547
1738005562937223000,11.124222900390626,-35.695404052734375,17.219566345214844,14.570898056030273
1738005562947291000,11.134290771484375,-35.620941162109375,17.16236114501953,14.510831832885742
1738005562957360000,11.144360107421875,-35.970489501953125,17.343551635742188,14.618396759033203
1738005562967428900,11.154428955078124,-35.749176025390625,17.2066650390625,14.474748611450195
1738005562977497000,11.1644970703125,-35.995391845703125,17.14757537841797,14.404184341430664
1738005562987566000,11.174566162109375,-35.721771240234375,17.209365844726562,14.274459838867188
1738005562997634800,11.184634765625,-35.644622802734375,17.055999755859375,14.381793975830078
1738005563007703000,11.194703125,-35.523345947265625,17.099365234375,14.716068267822266
1738005563017772000,11.20477197265625,-36.073028564453125,17.11016845703125,14.614347457885742
1738005563027840000,11.214840087890625,-35.746490478515625,17.31726837158203,14.653173446655273
1738005563037909000,11.224908935546875,-35.909332275390625,17.247161865234375,14.530155181884766
1738005563047978000,11.23497802734375,-35.676300048828125,17.148284912109375,14.716714859008789
1738005563058046200,11.245046142578126,-35.750885009765625,17.342674255371094,14.670673370361328
1738005563068115000,11.255114990234375,-35.607391357421875,17.196075439453125,14.641304016113281
1738005563078183000,11.265182861328125,-35.780731201171875,17.16582489013672,14.64942741394043
1738005563088252200,11.275252197265624,-35.670074462890625,17.142250061035156,14.542722702026367
1738005563098321000,11.28532080078125,-35.724334716796875,17.107223510742188,14.223505020141602
1738005563108388900,11.295388916015625,-35.523529052734375,17.02381134033203,14.426631927490234
1738005563118458000,11.3054580078125,-35.376800537109375,17.16223907470703,14.220909118652344
1738005563128526800,11.31552685546875,-35.973602294921875,17.376708984375,14.21452522277832
1738005563138595000,11.325594970703126,-36.036895751953125,17.380889892578125,14.16140365600586
1738005563148664000,11.3356640625,-35.792816162109375,17.33557891845703,14.128076553344727
1738005563158732000,11.34573193359375,-35.678314208984375,17.119041442871094,14.309284210205078
1738005563168801000,11.355801025390624,-35.488616943359375,17.20085906982422,14.248859405517578
1738005563178870000,11.3658701171875,-35.249481201171875,17.275596618652344,14.273763656616211
1738005563188938000,11.37593798828125,-35.604705810546875,17.39995574951172,14.304388046264648
1738005563199007000,11.386007080078125,-35.681915283203125,17.371612548828125,14.450414657592773
1738005563209076000,11.396075927734374,-35.429351806640625,17.26250457763672,14.333738327026367
1738005563219144200,11.406144287109376,-35.721282958984375,17.374801635742188,14.172399520874023
1738005563229213000,11.416212890625,-35.535247802734375,17.130470275878906,14.270963668823242
1738005563239281000,11.426281005859375,-35.885467529296875,17.327659606933594,14.434200286865234
1738005563249350100,11.43635009765625,-35.811859130859375,17.190078735351562,14.34903335571289
1738005563259419000,11.4464189453125,-35.625457763671875,17.377296447753906,14.291532516479492
1738005563269486800,11.45648681640625,-35.872406005859375,17.48358917236328,14.688228607177734
1738005563279556000,11.46655615234375,-36.018585205078125,17.243301391601562,14.306529998779297
1738005563289624000,11.4766240234375,-35.956024169921875,17.284103393554688,14.495965957641602
1738005563299693000,11.486693115234376,-36.168304443359375,17.598770141601562,14.311716079711914
1738005563309762000,11.496761962890625,-35.855743408203125,17.56255340576172,14.457206726074219
1738005563319830000,11.506830078125,-35.768829345703125,17.397315979003906,14.345331192016602
1738005563329899000,11.51689892578125,-35.989349365234375,17.389923095703125,14.579687118530273
1738005563339967000,11.526967041015626,-35.925750732421875,17.392967224121094,14.678382873535156
1738005563350036000,11.537035888671875,-35.516326904296875,17.403732299804688,14.595184326171875
1738005563360105000,11.54710498046875,-35.726226806640625,17.238037109375,14.483575820922852
1738005563370173000,11.5571728515625,-35.767913818359375,17.359039306640625,14.456418991088867
1738005563380242000,11.567241943359376,-35.933197021484375,17.26323699951172,14.25478744506836
1738005563390310700,11.577310546875,-35.548004150390625,17.445083618164062,14.479177474975586
1738005563400379000,11.58737890625,-35.713104248046875,17.184356689453125,14.65230941772461
1738005563410448000,11.59744775390625,-35.751251220703125,17.37250518798828,14.643281936645508
1738005563420515800,11.607515869140625,-35.795745849609375,17.178314208984375,14.462432861328125
1738005563430584800,11.617584716796875,-35.909698486328125,17.196578979492188,14.42507553100586
1738005563440653800,11.62765380859375,-35.970184326171875,17.24665069580078,14.287992477416992
1738005563450722000,11.63772216796875,-35.764251708984375,17.216285705566406,14.354480743408203
1738005563460790800,11.647790771484376,-35.672271728515625,17.22972869873047,14.386077880859375
1738005563470858800,11.657858642578125,-36.113677978515625,17.228347778320312,14.312414169311523
1738005563480928000,11.667927978515625,-35.549285888671875,17.268997192382812,14.27438735961914
1738005563490996700,11.677996826171874,-35.344390869140625,17.214385986328125,14.42667007446289
1738005563501064700,11.688064697265625,-35.525970458984375,17.24156951904297,14.427986145019531
1738005563511134000,11.698134033203125,-35.620330810546875,17.050941467285156,14.492361068725586
1738005563521202000,11.708201904296875,-35.608978271484375,17.153663635253906,14.451200485229492
1738005563531271000,11.71827099609375,-35.618011474609375,17.13330841064453,14.407588958740234
1738005563541340000,11.72833984375,-35.657501220703125,17.33831787109375,14.263017654418945
1738005563551407900,11.738407958984375,-35.593170166015625,17.364112854003906,14.453399658203125
1738005563561476900,11.748476806640625,-35.606842041015625,17.501220703125,14.486713409423828
1738005563571545900,11.7585458984375,-35.365386962890625,17.428977966308594,14.476762771606445
1738005563581613800,11.76861376953125,-35.216888427734375,17.580528259277344,14.413740158081055
1738005563591682800,11.778682861328125,-35.405670166015625,17.526573181152344,14.316640853881836
1738005563601750800,11.788750732421875,-35.311981201171875,17.418731689453125,14.435018539428711
1738005563611820000,11.798820068359374,-35.635772705078125,17.51348114013672,14.530111312866211
1738005563621888800,11.808888671875,-35.806976318359375,17.890228271484375,14.284811019897461
1738005563631956700,11.818956787109375,-35.488250732421875,17.36402130126953,14.327125549316406
1738005563642026000,11.82902587890625,-35.524566650390625,17.23590850830078,14.528921127319336
1738005563652094000,11.839093994140624,-35.352752685546875,17.25969696044922,14.411239624023438
1738005563662162700,11.84916259765625,-34.980743408203125,17.388916015625,14.542108535766602
1738005563672232000,11.85923193359375,-35.014434814453125,17.344161987304688,14.512723922729492
1738005563682300000,11.8692998046875,-35.482513427734375,17.551918029785156,14.107139587402344
1738005563692369000,11.879368896484374,-35.209686279296875,17.229270935058594,14.186042785644531
1738005563702436900,11.889436767578125,-35.541351318359375,17.39435577392578,14.417999267578125
1738005563712505900,11.899505859375,-35.105010986328125,17.184303283691406,14.234355926513672
1738005563722574800,11.909574951171875,-35.550689697265625,17.556259155273438,14.234487533569336
1738005563732642800,11.919642822265626,-35.457000732421875,17.317886352539062,14.062204360961914
1738005563742711800,11.9297119140625,-35.402740478515625,17.436912536621094,14.216732025146484
1738005563752780800,11.93978076171875,-35.548431396484375,17.214492797851562,14.391071319580078
1738005563762848800,11.949848876953125,-35.219635009765625,17.52080535888672,14.446857452392578
1738005563772918000,11.95991796875,-35.251007080078125,17.5224609375,14.430007934570312
1738005563782986000,11.969986083984375,-35.088348388671875,17.736907958984375,14.407093048095703
1738005563793054700,11.9800546875,-35.150604248046875,17.642059326171875,14.212455749511719
1738005563803124000,11.9901240234375,-35.255950927734375,17.597923278808594,14.402189254760742
1738005563813192000,12.00019189453125,-35.160491943359375,17.448715209960938,14.51161003112793
1738005563823260700,12.0102607421875,-35.222930908203125,17.709304809570312,14.510965347290039
1738005563833329000,12.020328857421875,-35.155426025390625,17.65654754638672,14.925260543823242
1738005563843398000,12.03039794921875,-35.568328857421875,17.555252075195312,14.700040817260742
1738005563853466600,12.040466552734374,-34.794891357421875,17.225143432617188,14.736858367919922
1738005563863534800,12.050534912109375,-35.264190673828125,17.366371154785156,14.747163772583008
1738005563873603800,12.060603759765625,-35.670440673828125,17.196090698242188,14.633186340332031
1738005563883671800,12.070671875,-35.086212158203125,17.27679443359375,14.369468688964844
1738005563893740800,12.08074072265625,-35.092559814453125,17.50994110107422,14.569452285766602
1738005563903809800,12.090809814453126,-35.293121337890625,17.365928649902344,14.58151626586914
1738005563913878000,12.1008779296875,-35.338409423828125,17.10773468017578,14.698049545288086
1738005563923946800,12.11094677734375,-35.354095458984375,17.23004150390625,14.72372817993164
1738005563934014700,12.1210146484375,-35.056610107421875,17.295921325683594,14.587217330932617
1738005563944084000,12.131083984375,-35.184722900390625,17.516441345214844,14.426401138305664
1738005563954152700,12.141152587890625,-35.239898681640625,17.43242645263672,14.597587585449219
1738005563964220700,12.151220703125,-35.625518798828125,17.51116943359375,14.838811874389648
1738005563974290000,12.1612900390625,-35.525299072265625,17.221389770507812,14.662010192871094
1738005563984358000,12.17135791015625,-35.239410400390625,17.38153839111328,14.36417007446289
1738005563994427000,12.181427001953125,-35.063568115234375,17.58794403076172,14.45490837097168
1738005564004496000,12.191495849609375,-35.161041259765625,17.369346618652344,14.587884902954102
1738005564014563800,12.201563720703126,-35.130523681640625,17.568588256835938,14.592044830322266
1738005564024632800,12.2116328125,-35.405670166015625,17.631195068359375,14.51418685913086
1738005564034700800,12.22170068359375,-35.944793701171875,17.541717529296875,14.303192138671875
1738005564044769800,12.231769775390624,-35.635101318359375,17.457191467285156,14.526924133300781
1738005564054838800,12.2418388671875,-35.615264892578125,17.44178009033203,14.454509735107422
1738005564064906800,12.25190673828125,-35.371246337890625,17.53314208984375,14.388174057006836
1738005564074976000,12.26197607421875,-35.434051513671875,17.381935119628906,14.712175369262695
1738005564085044000,12.2720439453125,-35.603729248046875,17.618499755859375,14.48038101196289
1738005564095112700,12.28211279296875,-35.580230712890625,17.359176635742188,14.77413558959961
1738005564105182000,12.292181884765625,-35.538177490234375,17.360260009765625,14.53057861328125
1738005564115250000,12.30225,-35.056304931640625,17.41362762451172,14.465963363647461
1738005564125318700,12.312318603515624,-35.143402099609375,17.521339416503906,14.46103286743164
1738005564135387000,12.322386962890626,-35.197845458984375,17.390602111816406,14.366199493408203
1738005564145455900,12.332455810546875,-35.255462646484375,17.449501037597656,14.25790786743164
1738005564155524900,12.34252490234375,-35.501556396484375,17.18505859375,14.62808609008789
1738005564165592800,12.3525927734375,-35.428924560546875,17.393157958984375,14.628223419189453
1738005564175661800,12.362661865234376,-35.542388916015625,17.157546997070312,14.456748962402344
1738005564185730000,12.37272998046875,-35.562469482421875,17.316612243652344,14.431568145751953
1738005564195798800,12.382798828125,-35.358551025390625,17.237335205078125,14.247825622558594
1738005564205867800,12.39286767578125,-35.582427978515625,17.386993408203125,14.313652038574219
1738005564215936000,12.40293603515625,-35.781951904296875,17.490249633789062,14.507490158081055
1738005564226004700,12.413004638671875,-35.512176513671875,17.440689086914062,14.614574432373047
1738005564236072700,12.42307275390625,-35.363677978515625,17.32159423828125,14.645149230957031
1738005564246142000,12.433141845703124,-35.520294189453125,17.283843994140625,14.505657196044922
1738005564256210700,12.443210693359376,-35.336578369140625,17.156784057617188,14.27625846862793
1738005564266279000,12.45327880859375,-35.309844970703125,17.07415771484375,14.429277420043945
1738005564276348000,12.463347900390625,-35.243011474609375,17.31543731689453,14.327362060546875
1738005564286416000,12.473415771484374,-35.678924560546875,17.185409545898438,14.469322204589844
1738005564296484900,12.48348486328125,-36.040252685546875,17.195518493652344,14.534427642822266
1738005564306553900,12.493553955078125,-35.521026611328125,17.083023071289062,14.479351043701172
1738005564316621800,12.503621826171875,-35.607452392578125,17.06140899658203,14.335882186889648
1738005564326690800,12.51369091796875,-35.192840576171875,17.1722412109375,14.209589004516602
1738005564336758800,12.5237587890625,-35.100616455078125,17.22301483154297,14.429460525512695
1738005564346828000,12.533828125,-35.143280029296875,17.31438446044922,14.25741958618164
1738005564356896800,12.543896728515625,-35.432220458984375,17.431373596191406,14.562898635864258
1738005564366964700,12.55396484375,-35.727386474609375,17.238136291503906,14.259178161621094
1738005564377037600,12.56403759765625,-35.445281982421875,17.246849060058594,14.175727844238281
1738005564387105500,12.57410546875,-35.395660400390625,17.283409118652344,14.163799285888672
1738005564397174300,12.58417431640625,-35.532623291015625,17.340614318847656,14.234556198120117
1738005564407243500,12.594243408203125,-35.837738037109375,17.552764892578125,14.398086547851562
1738005564417311500,12.6043115234375,-35.725006103515625,17.47112274169922,14.203680038452148
1738005564427380200,12.614380126953124,-35.505584716796875,17.492568969726562,14.192157745361328
1738005564437448400,12.624448486328125,-35.331634521484375,17.2054443359375,14.537708282470703
1738005564447517400,12.634517333984375,-35.467254638671875,17.32819366455078,14.523260116577148
1738005564457586400,12.64458642578125,-35.395843505859375,17.36664581298828,14.47618293762207
1738005564467654400,12.654654296875,-35.448577880859375,17.250381469726562,14.223003387451172
1738005564477723400,12.664723388671876,-35.381439208984375,17.302886962890625,14.061904907226562
1738005564487791400,12.674791259765625,-35.290863037109375,17.4605712890625,14.130876541137695
1738005564497860400,12.6848603515625,-35.371612548828125,17.380996704101562,14.137126922607422
1738005564507929300,12.694929443359374,-35.645599365234375,17.507667541503906,14.317558288574219
1738005564517997600,12.70499755859375,-35.546661376953125,17.272850036621094,14.491277694702148
1738005564528066300,12.71506640625,-35.138092041015625,17.047134399414062,14.279817581176758
1738005564538134300,12.72513427734375,-35.360565185546875,17.157913208007812,14.338890075683594
1738005564548203500,12.73520361328125,-35.325531005859375,17.41283416748047,14.422607421875
1738005564558272300,12.745272216796875,-35.574432373046875,17.387481689453125,14.419580459594727
1738005564568340200,12.75534033203125,-35.616180419921875,17.434860229492188,14.50156021118164
1738005564578409500,12.765409423828125,-35.630767822265625,17.6041259765625,14.68972396850586
