time,seconds_elapsed,z,y,x
1739555411945134600,0.031134521484375,0.0034071780949831007,-0.010021920059621334,0.06360109616443514
1739555411955203800,0.041203857421875,0.011283610558509826,-0.016804419806599614,0.01335332950465381
1739555411965273600,0.051273681640625,0.027870003700256347,-0.020865677896142003,-0.05165339567400515
1739555411975343600,0.061343505859375,0.07898819651901721,-0.010908785896748303,-0.06002097265534102
1739555411985414000,0.071413818359375,0.1479781461149454,0.002975216418504715,-0.026205285358428955
1739555411995483600,0.081483642578125,0.17050269713401794,0.006084726741164922,0.04517798911482095
1739555412005553700,0.0915537109375,0.21653905664384362,0.00866159149184823,0.1099179531160742
1739555412015622700,0.10162255859375,0.2535895611435175,0.053807724163681264,0.12639840166531502
1739555412025692700,0.111692626953125,0.1667792926967144,0.10372048671543597,0.16527809435352683
1739555412035762700,0.1217626953125,0.11609306155443191,0.11460340751856565,0.18225392520427702
1739555412045832700,0.131832763671875,0.13158464519679547,0.12809636468961835,0.14579378781318664
1739555412055902700,0.14190283203125,0.028006197300553322,0.1416039349079132,0.10617248297743499
1739555412065971700,0.1519716796875,-0.018985270977020262,0.11388970629125833,0.1002237306408584
1739555412076041700,0.162041748046875,-0.03816109609007835,0.10406550076082348,0.12548713203929365
1739555412086111700,0.17211181640625,-0.03079904288947582,0.13698825780600307,0.1254867667131126
1739555412096181500,0.182181396484375,0.038676644396781916,0.1403666481979191,0.15382117305472492
1739555412106251800,0.192251708984375,0.10349193865656853,0.15163739927485584,0.17921148876845835
1739555412116321800,0.20232177734375,0.12820377058684826,0.1273399933643639,0.1636806690942496
1739555412126390800,0.212390869140625,0.14699439577460288,0.09708426357135176,0.1446600345429033
1739555412136460800,0.222460693359375,0.11748948434889316,0.07781316139027476,0.08875957588367163
1739555412146530600,0.232530517578125,0.08423544952273368,0.0691148911498487,0.018938728421553967
1739555412156600800,0.242600830078125,0.04160276097655296,0.029289661239832638,-0.019384207166731355
1739555412166670800,0.2526708984375,-0.02568739896416664,-0.0258504805713892,-0.0435155357953161
1739555412176740600,0.26274072265625,-0.09963292514085768,-0.034130087008327245,-0.06070040628686547
1739555412186809900,0.272809814453125,-0.14197802891731262,0.02142988765016198,-0.03997019133865833
1739555412196879600,0.282879638671875,-0.17880758414268494,0.06819046978130937,-0.016454510390385986
1739555412206949600,0.29294970703125,-0.22830665132701394,0.09253478357344866,0.02936258034557104
1739555412217020000,0.30302001953125,-0.22742168518602845,0.08316387476846575,0.08721694955155253
1739555412227089700,0.313089599609375,-0.14948504354655742,0.0372452964194119,0.08311967030055821
1739555412237158700,0.32315869140625,-0.059435939309000964,-0.02246229943782091,0.04472374254129827
1739555412247228700,0.333228759765625,0.0328910467326641,-0.03831219499856233,-0.0027965719159692526
1739555412257298700,0.343298583984375,0.1353460435569286,-0.05438157852888107,-0.04090761831924319
1739555412267368700,0.35336865234375,0.16478256592154503,-0.09016527796313166,-0.04107537610158324
1739555412277438700,0.363438720703125,0.09030454030334949,-0.07587766328305005,-0.024020415600016713
1739555412287508700,0.3735087890625,0.020955694267153737,-0.04901318336352706,-0.035184856758266686
1739555412297577700,0.38357763671875,0.000049099838733673096,-0.00009264671951532363,-0.03706497141644358
1739555412307648000,0.39364794921875,-0.013575520887970923,0.034583968255668875,-0.04088993653208017
1739555412317717800,0.4037177734375,-0.01100245552957058,0.053398412710428236,-0.06671265231370925
1739555412327787800,0.413787841796875,0.025679800179600715,0.08156988357529044,-0.07596417252272367
1739555412337857800,0.42385791015625,0.0521755929172039,0.09073694037124513,-0.016301146459579467
1739555412347926800,0.4339267578125,0.03644318625628948,0.06674480101764202,0.039128041426092386
1739555412357997000,0.4439970703125,0.011404606589674949,0.04619213459342718,0.03949716699942946
1739555412368066800,0.45406689453125,0.016716741523146627,0.06462006394863128,-0.0041006402518600224
1739555412378136800,0.46413671875,0.039406127715110775,0.046939153568446634,-0.05713014658465981
1739555412388206800,0.474206787109375,0.0167921448469162,0.0670450991384685,-0.09302490517795085
1739555412398276900,0.48427685546875,0.047938978260755535,0.07116524780839681,-0.10379282129928469
1739555412408345900,0.494345947265625,0.08550152393579483,0.06200155201330781,-0.08006167096942662
1739555412418415900,0.504415771484375,0.06794131732583046,0.03601823884248733,-0.030103681036457417
1739555412428486000,0.51448583984375,0.018884148690104484,0.013267331721633671,0.021746187057718632
1739555412438555600,0.5245556640625,-0.06413724886775016,-0.011028905145078897,0.0594436111588031
1739555412448626000,0.5346259765625,-0.10936521460413932,-0.00012026537880301475,0.056646820047125214
1739555412458696000,0.544696044921875,-0.14929039775729178,0.03363470470681786,0.04538359468951821
1739555412468764700,0.5547646484375,-0.1449590905547142,0.02456789341494441,0.015195742500945925
1739555412478835000,0.5648349609375,-0.10484686039686203,0.0036054771460592746,-0.02228277815245092
1739555412488904700,0.57490478515625,-0.12206219909191131,0.004654109416157007,-0.037911139917001124
1739555412498974700,0.584974609375,-0.09207096545398234,0.014118249462544917,-0.010447378930076957
1739555412509045000,0.595044921875,-0.022915596163272857,0.02137114320024848,0.0037128099780529733
1739555412519114800,0.60511474609375,-0.02615267838835716,0.009135200352966786,0.026143326038122177
1739555412529183700,0.615183837890625,-0.021429156997799872,0.01405278301090002,0.028692060672864315
1739555412539253800,0.625253662109375,-0.0035270050823688506,0.004713292257487773,0.014697364524751901
1739555412549323800,0.63532373046875,-0.022429273951053617,0.00904240750297904,-0.0075248425468802446
1739555412559393800,0.645393798828125,-0.037592356291413304,0.014629267724603413,0.011183218923956155
1739555412569463800,0.6554638671875,0.03183715376555919,0.025635522646456955,0.0366850321881473
1739555412579533800,0.665533935546875,0.06375555607378483,0.05009513338133693,0.06811294756568968
1739555412589602800,0.675602783203125,0.011483517044782638,0.038430560681223865,0.07112550031989813
1739555412599672800,0.6856728515625,-0.0023316578179597854,0.012171937700361013,0.028313948075473307
1739555412609742800,0.695742919921875,0.06335866571068763,0.031028467731177806,-0.03901267141811549
1739555412619812600,0.7058125,0.08404898703992367,0.06570800531581043,-0.1141223460033536
1739555412629883000,0.7158828125,0.06082768592834472,0.09789967160746454,-0.119641986207664
1739555412639952000,0.725951904296875,0.027498832300305365,0.09388955918326973,-0.06031330666542053
1739555412650022000,0.73602197265625,-0.03525660682022572,0.08487447807863355,0.009416647642850875
1739555412660092000,0.746091796875,-0.09209668441712855,0.09418941891267896,0.045161987828090784
1739555412670161700,0.75616162109375,-0.1011053357809782,0.12328998732119797,0.05069404912255704
1739555412680232000,0.76623193359375,-0.12773673759698867,0.10482274886891245,0.04170037613213062
1739555412690302000,0.776302001953125,-0.16713643557131289,0.07546469856798649,0.03964117858000099
1739555412700370700,0.78637060546875,-0.08045417741835117,0.06886252382397651,-0.005569909086823463
1739555412710441000,0.79644091796875,-0.07936872026920318,0.13798647506311534,-0.05209003352560103
1739555412720510700,0.8065107421875,-0.17190438062548635,0.16795900400057434,-0.017661913418769836
1739555412730580700,0.816580810546875,-0.12949731752872468,0.09755290399640798,0.05376351969577372
1739555412740651000,0.826651123046875,-0.01328501350879669,0.0801898273937404,0.0827145235657692
1739555412750720800,0.836720703125,0.012227613410353659,0.07808437954708933,0.06113675187751651
1739555412760789800,0.846789794921875,0.06571545796990394,-0.005381108516454697,0.04932487966120243
1739555412770859800,0.85685986328125,0.13508826940357685,-0.04393631849065423,0.024016908468678592
1739555412780929800,0.8669296875,0.09564765489697456,-0.035867432194948194,-0.005176818116009235
1739555412790999800,0.876999755859375,-0.009051905983686447,-0.07550926836207508,0.013092486611381172
1739555412801069800,0.88706982421875,-0.07722060232460498,-0.08946706656590103,0.05159589333310723
1739555412811139800,0.897139892578125,-0.11154080507755279,-0.045209261035919185,0.05743921253383159
1739555412821209900,0.9072099609375,-0.17861176930963993,0.00035188217759132384,0.04898877957463264
1739555412831278800,0.91727880859375,-0.23463526982665062,-0.041243280014395714,0.10101005871295929
1739555412841348900,0.927348876953125,-0.19673019432425498,-0.11609393833726644,0.14463409638404845
1739555412851418600,0.937418701171875,-0.129722358456254,-0.13424582723006606,0.04937777889221907
1739555412861489000,0.947489013671875,-0.0400151995241642,-0.10038403576910496,-0.07369710437357425
1739555412871559000,0.957558837890625,0.009637596917152404,-0.08765402579456567,-0.09800649298280477
1739555412881628700,0.967628662109375,-0.044732291173934936,-0.11821838314533233,-0.03412767585553229
1739555412891698000,0.977697998046875,-0.1308627606630325,-0.12189984813705086,0.032125103861466046
1739555412901767700,0.987767578125,-0.19296236622333526,-0.08064999225139617,0.069577321029827
1739555412911837700,0.997837646484375,-0.23131226288378237,0.012892945451289415,0.07094656355641782
1739555412921908000,1.007907958984375,-0.23085049059092996,0.07188289455845952,0.0607991904862225
1739555412931977700,1.017977783203125,-0.1910042178928852,0.08627206991687417,0.03704582832455635
1739555412942047700,1.0280478515625,-0.15346037691831588,0.09110869629308581,0.0026276450898498295
1739555412952116700,1.03811669921875,-0.08807108216285706,0.0856431243635714,0.013551701620966194
1739555412962186800,1.048186767578125,0.04660100765526294,0.07927022833079099,0.013423837457597254
1739555412972257000,1.058257080078125,0.14137071067392826,0.057817690457403655,-0.01890358404293656
1739555412982326800,1.068326904296875,0.18252397431731224,0.0031995266936719418,-0.027766762521490452
1739555412992396800,1.078396728515625,0.26107085680961606,-0.06336699514761567,-0.053342298609018325
1739555413002466800,1.088466796875,0.3125175509303808,-0.05800780620202422,-0.07144647590257228
1739555413012535800,1.098535888671875,0.2636228793799877,-0.04447568606436252,-0.06626227819770575
1739555413022605800,1.108605712890625,0.17591887696385383,-0.012311638431996107,0.009111161890253424
1739555413032675800,1.11867578125,0.08857377098798751,0.061950844739377495,0.04344290895052254
1739555413042745900,1.128745849609375,0.021715572723746298,0.14423121467158198,0.0269205209556967
1739555413052816000,1.13881591796875,0.011976268997788428,0.18616539955958722,0.014210676986351608
1739555413062886000,1.148885986328125,-0.0249310276389122,0.14909925909936428,0.028735315292701125
1739555413072956000,1.158955810546875,0.03922258784174919,0.06897387524396181,0.019859350397810338
1739555413083024600,1.169024658203125,0.20414368545114994,0.06398454252406954,-0.01743796846978366
1739555413093095000,1.179094970703125,0.27073534173369407,0.08571282859891653,-0.05053937001749873
1739555413103165000,1.1891650390625,0.27510639642477036,0.056104602929204696,-0.0037406478330492972
1739555413113234700,1.199234619140625,0.25872867759764195,-0.011877484798431396,0.04549268108718097
1739555413123305000,1.209304931640625,0.2708820567280054,-0.02841521649286151,0.026762919241189956
1739555413133375000,1.219375,0.2151648456811905,-0.009132423873990774,0.0007649930231273174
1739555413143444700,1.22944482421875,0.1713017385572195,-0.015540245089679956,0.00036627602912485597
1739555413153514000,1.239513916015625,0.1124818853199482,-0.013557839100807904,-0.008525178695842623
1739555413163583700,1.249583740234375,0.10888824474215507,-0.006286679054051637,-0.04297003074176609
1739555413173653800,1.25965380859375,0.09056465254426002,0.0010028934322297573,-0.06264759483188391
1739555413183724000,1.26972412109375,0.061661214143037796,-0.025404490369558334,-0.03822495510652661
1739555413193793800,1.279793701171875,0.08210077558159827,-0.0463644224204123,-0.01429514039941132
1739555413203863800,1.28986376953125,0.07685995231866836,-0.05199585243612528,-0.04010382765568793
1739555413213933800,1.299933837890625,0.08760755630433559,-0.07381883105710148,-0.07027414418756961
1739555413224002800,1.3100029296875,0.047135260662436486,-0.09917582902312279,-0.07416705997288227
1739555413234072800,1.32007275390625,-0.011155015742778777,-0.0907015767969191,-0.07241049862913787
1739555413244142800,1.330142822265625,-0.07603402288854122,-0.06345715764909983,-0.011891659454256295
1739555413254212900,1.340212890625,-0.11690963863432406,-0.011173428182303905,0.029986995854228732
1739555413264283000,1.350282958984375,-0.15768471661508082,0.0466094832226634,0.09688530693314969
1739555413274353000,1.360352783203125,-0.15526070433855055,0.059982467275857924,0.14628924317993222
1739555413284423000,1.3704228515625,-0.11080255393087864,0.04030848338231444,0.1745765224441886
1739555413294491600,1.38049169921875,-0.08703706294000148,0.023104688994586467,0.15580292145647107
1739555413304562000,1.39056201171875,-0.0745183576285839,0.012703998750448225,0.11130005512423813
1739555413314631700,1.400631591796875,-0.04181552694439888,-0.0025476386561989785,0.05545563750118017
1739555413324701700,1.41070166015625,-0.025156653088331222,-0.04225274931788444,-0.0034378654941916464
1739555413334771700,1.420771728515625,-0.01452770704627037,-0.06743409845605493,-0.007023615026473999
1739555413344841700,1.430841796875,-0.0385293448805809,-0.026321459084004163,0.0054010553259402514
1739555413354911700,1.440911865234375,0.01501344473659992,0.00239595522582531,0.025267346921190616
1739555413364980700,1.450980712890625,0.026498130825161934,0.02450125791952014,0.031318755914643406
1739555413375050800,1.46105078125,0.002585340318083763,0.024129648128151892,0.0382532313529402
1739555413385120500,1.47112060546875,0.055223874571919435,-0.02058393834531307,0.03727035779543221
1739555413395190800,1.481190673828125,0.11459610099494456,-0.0692829411931336,0.038784415620192886
1739555413405260800,1.4912607421875,0.14379706103801726,-0.11239391477555036,0.013270035135373472
1739555413415330600,1.50133056640625,0.1576987451404333,-0.1079609007641673,-0.01672930874377489
1739555413425400800,1.51140087890625,0.14456336923539637,-0.11758256945982574,-0.05812441831901669
1739555413435470600,1.521470703125,0.11227145743966102,-0.14339447158649563,-0.10025719451904297
1739555413445539800,1.531539794921875,0.02956219457089901,-0.13019655183926224,-0.11805362103767693
1739555413455609900,1.54160986328125,-0.07795593086183071,-0.07631400887370109,-0.09566796703264116
1739555413465679600,1.5516796875,-0.15831424669027327,-0.039299160209298134,-0.06131364281438291
1739555413475749600,1.56174951171875,-0.1899848117172718,0.014480506903678178,0.011252703963592648
1739555413485820000,1.57181982421875,-0.17295418193936346,0.02477028411924839,0.06894559899754822
1739555413495889700,1.5818896484375,-0.14095394656658172,0.056273529755324125,0.11523352211564779
1739555413505959700,1.591959716796875,-0.07819733840227126,0.09197013542801141,0.16788557343818247
1739555413516028700,1.602028564453125,-0.009365209716558456,0.10462634951397776,0.19794103141874073
1739555413526098700,1.6120986328125,-0.006988543713092803,0.08559533969908953,0.17291436138562857
1739555413536168700,1.622168701171875,-0.03931260421276092,0.05684139277115464,0.0990592169061303
1739555413546238700,1.63223876953125,-0.05513093559145927,0.04991802324876189,0.0018551263473927974
1739555413556308700,1.642308837890625,-0.07876140202581881,0.06210778886675834,-0.07655636626221239
1739555413566378500,1.65237841796875,-0.07335925072133541,0.09638839026167988,-0.11850699082836508
1739555413576448800,1.66244873046875,-0.030435470274090767,0.11018003811836243,-0.09674202600494027
1739555413586518800,1.672518798828125,0.004785480710864067,0.12435659363940357,-0.016474164938926696
1739555413596588500,1.682588623046875,0.07666589105129241,0.10712693415805696,0.037296807410940526
1739555413606657800,1.69265771484375,0.11058920344114304,0.09368906817510723,0.07122026593126356
1739555413616727600,1.7027275390625,0.18295652051568032,0.05752002268508076,0.058539136599749325
1739555413626797600,1.712797607421875,0.26665830155313014,0.03362637526988983,0.010378989868983626
1739555413636867800,1.722867919921875,0.3022352263689041,0.0010907178461551665,-0.04229023178406059
1739555413646937600,1.7329375,0.2940729627013206,-0.026219606144726276,-0.06151223412640392
1739555413657007600,1.743007568359375,0.20274550909101963,-0.024994448263943193,-0.10705781444460152
1739555413667078000,1.753077880859375,0.11055354760587215,0.0037248657420277595,-0.1296825379025191
1739555413677147600,1.763147705078125,0.02322480824291706,0.04121361552849412,-0.09918445072099566
1739555413687216600,1.773216552734375,-0.06220248141288757,0.09152487587854266,-0.0617294570736587
1739555413697286700,1.78328662109375,-0.05353109917938709,0.08601721837297081,0.012014409051090478
1739555413707356700,1.793356689453125,0.010507365489006042,0.06516995291635394,0.05625599409863352
1739555413717426700,1.8034267578125,0.0730021078467369,0.06608589871749282,0.07170753799155354
1739555413727496700,1.81349658203125,0.11517594670951366,0.03981821564733982,0.09727269881553947
1739555413737566700,1.823566650390625,0.13996084387600422,-0.002418459318578243,0.1154510373238474
1739555413747636700,1.83363671875,0.12108780110180377,-0.028602117367088793,0.1276444562036544
1739555413757706800,1.843706787109375,0.05945873566269874,-0.048429684387147426,0.11900047343373298
1739555413767775700,1.853775634765625,-0.01721124704182148,-0.0587036795116961,0.0833512140341103
1739555413777845500,1.863845458984375,-0.09864566766917705,-0.000926613325625658,0.06871675867773593
1739555413787915800,1.873915771484375,-0.20330080488622188,0.053229485884308814,0.04970357678048312
1739555413797985800,1.88398583984375,-0.28860300685763357,0.07644625695124269,0.0462293978638947
1739555413808055600,1.8940556640625,-0.26822248212993144,0.10664236551150678,0.08327529925368726
1739555413818125800,1.904125732421875,-0.22125614829361437,0.11583937905430793,0.13512553267404437
1739555413828195800,1.91419580078125,-0.16358604961335657,0.10747107142060995,0.16217136050984263
1739555413838265600,1.924265625,-0.11529402013123034,0.0630026918798685,0.18800598592497408
1739555413848335600,1.934335693359375,-0.08813187243938446,0.0010519932709634303,0.15680267308354376
1739555413858404600,1.944404541015625,-0.09333528630137443,-0.04333557611852884,0.07842332917787134
1739555413868474600,1.954474609375,-0.05796645127832889,-0.06206234228983521,0.014313772034645079
1739555413878545000,1.964544921875,-0.021413374906778335,-0.019793372489511966,-0.04508293124251067
1739555413888614700,1.97461474609375,0.0022504092752933503,-0.0342573666498065,-0.07047171258628368
1739555413898684700,1.9846845703125,0.07715162874162197,-0.07187894903570413,-0.03837298527508974
1739555413908754700,1.994754638671875,0.11453940237164496,-0.04644552483260631,-0.013626374292373657
1739555413918824700,2.00482470703125,0.11075520765781402,0.002735562443733215,0.03217551887445152
1739555413928894700,2.014894775390625,0.13439561096429825,0.007151917581260204,0.06257511411756277
1739555413938964500,2.024964599609375,0.18318039239943026,-0.024178894097357986,0.13242241119518874
1739555413949033700,2.03503369140625,0.18100421740412712,-0.026520050396025178,0.18850443696640432
1739555413959103500,2.045103515625,0.19831307960152625,-0.024875790320336818,0.17663038623407482
1739555413969173800,2.055173828125,0.2321300090074539,-0.03389087142497301,0.13312734459415076
1739555413979243800,2.065243896484375,0.18932137937247753,-0.02185848832577467,0.08209412664510309
1739555413989313500,2.0753134765625,0.11213175670802593,0.0072451488226652145,0.07581563089750706
1739555413999383800,2.0853837890625,0.0951186625868082,0.026918986585736274,0.09701222124844788
1739555414009453800,2.095453857421875,0.06419511653482914,0.07608896794617176,0.16289755589254198
1739555414019523600,2.105523681640625,0.05818330889940262,0.07674421698451042,0.26801410007625814
1739555414029593600,2.115593505859375,0.14491700497865675,0.033746056126803155,0.3329490021277219
1739555414039662600,2.12566259765625,0.21612112349271773,-0.012491086652129888,0.2956274986669421
1739555414049732600,2.135732666015625,0.2448959670782089,-0.04611351639926433,0.19913484431318937
1739555414059803000,2.145802978515625,0.27435703936219213,-0.10344050073027611,0.13732370030544697
1739555414069872600,2.15587255859375,0.2743675607562065,-0.1143269286647439,0.09964534623101354
1739555414079942700,2.165942626953125,0.18988368943035602,-0.1161652500078082,0.10659662667363881
1739555414090012700,2.1760126953125,0.058196752902865405,-0.10519538157358765,0.14096972865760327
1739555414100082700,2.186082763671875,-0.0012929624199867248,-0.09018149844557047,0.18367197530865667
1739555414110152700,2.196152587890625,-0.04914250883162021,-0.05975786473974585,0.19728439414091406
1739555414120222700,2.20622265625,-0.0658913990586996,-0.028213556440919635,0.2169849737804383
1739555414130291700,2.216291748046875,-0.04511749109923839,-0.04456994021907448,0.26245800031907857
1739555414140361700,2.22636181640625,0.02577157011628151,-0.06359934259876608,0.27168906226195394
1739555414150431700,2.236431640625,0.07215922728180885,-0.048342298364639276,0.244074275431782
1739555414160501800,2.246501708984375,0.09265198021233081,-0.051516106095165014,0.20454357148893176
1739555414170571800,2.25657177734375,0.08144085036814212,-0.06600713439285755,0.19715521480329334
1739555414180641500,2.2666416015625,0.015877368089556695,-0.0888956964187324,0.21548596739433704
1739555414190711800,2.2767119140625,-0.04676759639382362,-0.07190496025979519,0.20813282815255224
1739555414200781600,2.286781494140625,-0.06145955409109592,-0.06498714369535445,0.19698774928189813
1739555414210851600,2.2968515625,-0.035215105766057964,-0.06813245598375797,0.16263612847737968
1739555414220921900,2.306921875,-0.021091887867450712,-0.06314458456858993,0.1321938631363213
1739555414230990600,2.316990478515625,0.10669804122149944,-0.08962854073792695,0.1450988643515855
1739555414241060600,2.327060546875,0.1566015975534916,-0.157922178632766,0.09576054068692028
1739555414251131000,2.337130859375,0.2205442006319761,-0.17502324329838156,0.055432110495120285
1739555414261200600,2.34720068359375,0.23494331286251544,-0.20944033055454492,-0.00659406450279057
1739555414271270700,2.357270751953125,0.2663765620023012,-0.24796602217331526,-0.022335604318231343
1739555414281340700,2.367340576171875,0.28887948571145533,-0.2687069046460092,-0.010801672260463238
1739555414291410700,2.37741064453125,0.2631295429050922,-0.20737857571914792,0.05579831345900893
1739555414301480700,2.387480712890625,0.2661094354987144,-0.17071005627438424,0.11591039846390486
1739555414311551000,2.397551025390625,0.23775310958623885,-0.16795345104262233,0.15752696877010167
1739555414321620000,2.407619873046875,0.20322890869379043,-0.1367716924458742,0.19501184609904884
1739555414331689700,2.417689697265625,0.14632453368902207,-0.11041793852746486,0.20532522338591513
1739555414341760000,2.427760009765625,0.09611001171171665,-0.07419657832831143,0.19348280990086494
1739555414351830000,2.437830078125,0.09297638986110687,-0.08192191188335418,0.1654602459874004
1739555414361899800,2.447899658203125,0.10289631085097789,-0.09196165986061096,0.1607676311917603
1739555414371970000,2.457969970703125,0.10466682765483856,-0.09291939897686242,0.14143471582084893
1739555414382040000,2.4680400390625,0.08787468280792236,-0.11382482436150312,0.13266462245322763
1739555414392109800,2.47810986328125,0.08225041318535804,-0.13598697180896996,0.12691153881922362
1739555414402179800,2.488179931640625,0.10589899979829788,-0.14571458509713411,0.10148162174746393
1739555414412250000,2.49825,0.12586451398432255,-0.11278817479014396,0.06535553861632942
1739555414422318800,2.50831884765625,0.18542086480259895,-0.11536971571594476,0.050081104855984444
1739555414432389000,2.51838916015625,0.2468962009847164,-0.12050897830054164,0.03974438322614878
1739555414442459000,2.528458984375,0.2423994740873575,-0.12262129427939653,0.043253231597319246
1739555414452529000,2.53852880859375,0.2194955683618784,-0.1369289288341999,0.06809373140856623
1739555414462599000,2.548598876953125,0.20335399637818335,-0.1325881231509149,0.09916048532351851
1739555414472669000,2.5586689453125,0.1987076318770647,-0.12890139746218918,0.12362616047300398
1739555414482739000,2.568739013671875,0.12964110991358757,-0.13135960426926613,0.11031984844785184
1739555414492809000,2.57880908203125,0.07201426585316657,-0.13403539934977887,0.07353051563501357
1739555414502879000,2.58887890625,0.03294540726840496,-0.11092340383157133,0.04385254919733852
1739555414512949000,2.598948974609375,0.02570142748951912,-0.09735285137966275,0.007825469461269677
1739555414523018800,2.609018798828125,0.019840426501631734,-0.08345861993134021,-0.03285630421284586
1739555414533088000,2.619087890625,0.006812018102407455,-0.09210954389870166,-0.08819682743437587
1739555414543158000,2.629157958984375,-0.042103111714124675,-0.13630144458562135,-0.11561488611605018
1739555414553227800,2.639227783203125,-0.07356675599217415,-0.1604363534107804,-0.1831880642492324
1739555414563298000,2.649298095703125,-0.064915247502923,-0.14248992396220564,-0.2971533565273508
1739555414573367800,2.659367919921875,-0.06368833605647087,-0.1561377794340253,-0.4272320906732231
1739555414583437800,2.669437744140625,-0.05487433048188686,-0.17354469517841933,-0.522316339533776
1739555414593508000,2.679508056640625,-0.024510171878337858,-0.1702593898974359,-0.567003585989587
1739555414603577900,2.689577880859375,0.013166940087080001,-0.18032997140437362,-0.5989089461531489
1739555414613648000,2.69964794921875,0.05153787953555584,-0.18238500423803924,-0.5631377043416723
1739555414623718100,2.70971826171875,0.08728431569933891,-0.19308613873347638,-0.5415989129569381
1739555414633787000,2.719786865234375,0.13442951323390007,-0.2048307909324765,-0.4825380905706435
1739555414643857000,2.72985693359375,0.18419161526858804,-0.2249381978072226,-0.4049235570250079
1739555414653927000,2.739927001953125,0.2283750403881073,-0.2921449172481894,-0.34659660187121477
1739555414663997000,2.749996826171875,0.2832142995566129,-0.4091827123068273,-0.25625731904804705
1739555414674067000,2.76006689453125,0.30269875222742554,-0.5262549941569566,-0.20157449255026877
1739555414684137000,2.770136962890625,0.3065221099078655,-0.6103428519025444,-0.21617007720097897
1739555414694207000,2.78020703125,0.2642594237178564,-0.6815342570655047,-0.2198535149540752
1739555414704277000,2.790277099609375,0.17133505630493162,-0.7879886987894773,-0.21319866017475722
1739555414714347000,2.800346923828125,0.14005904355347157,-0.9158233438029885,-0.18546368103101848
1739555414724417000,2.8104169921875,0.1505705006957054,-1.0251454499177635,-0.1787007262347266
1739555414734487000,2.820487060546875,0.1557645622074604,-1.093922706611082,-0.19452450097352264
1739555414744556000,2.83055615234375,0.19095862518548964,-1.143532686823979,-0.21728706199955194
1739555414754626000,2.8406259765625,0.2493447631806135,-1.1569022368110715,-0.20485084733981637
1739555414764695800,2.85069580078125,0.24882979939579963,-1.148837296038121,-0.21285729939118025
1739555414774766000,2.86076611328125,0.17381401363909244,-1.11255514556244,-0.1975911220025271
1739555414784836000,2.870836181640625,0.028265725019574164,-1.0513171983327716,-0.1631986211983487
1739555414794905900,2.88090576171875,-0.15121055216491222,-0.9568424596726893,-0.15552878069020806
1739555414804975900,2.890975830078125,-0.3255108880162239,-0.8580031691275537,-0.1870548957452178
1739555414815046000,2.9010458984375,-0.40814416303932666,-0.7709256280466914,-0.2273375140339136
1739555414825116000,2.911115966796875,-0.44238136368393893,-0.734341425884515,-0.2462061728939414
1739555414835186000,2.92118603515625,-0.48156946473419665,-0.7194914280813187,-0.18685469699800014
1739555414845256000,2.931255859375,-0.47784255316555496,-0.6913681072071194,-0.12726831636764108
1739555414855325000,2.941324951171875,-0.4668658165991306,-0.6117075643844903,-0.09205624280888587
1739555414865395000,2.95139501953125,-0.29911797113120553,-0.5641730752713978,-0.08283540999908
1739555414875465000,2.96146484375,-0.029377485653758046,-0.5858149251718073,-0.06537807924170047
1739555414885535000,2.971534912109375,0.23487726188898086,-0.6509090363729745,-0.056773442101478576
1739555414895604700,2.981604736328125,0.5156131886333227,-0.7450093156974762,-0.05732577875461429
1739555414905675000,2.991675048828125,0.7268196520775556,-0.8593290109038353,-0.07265957801938057
1739555414915745000,3.0017451171875,0.8512240303814411,-0.9549190903946757,-0.1286820921557024
1739555414925814800,3.011814697265625,0.9123819711774587,-1.0297581313449888,-0.20276140077989546
1739555414935885000,3.021885009765625,0.9441337847471236,-1.1103530324082822,-0.2612271068172529
1739555414945955000,3.031955078125,0.9398521619051694,-1.1921430615402757,-0.2891897572370246
1739555414956024800,3.04202490234375,0.9468927280664443,-1.2758689541056751,-0.342248928055726
1739555414966094800,3.0520947265625,0.9412737191408872,-1.3435852305039762,-0.3784555656097829
1739555414976163800,3.062163818359375,0.9433101934045552,-1.3992398977085947,-0.394759342417866
1739555414986233900,3.07223388671875,0.8800783689439297,-1.4409379357531666,-0.36862460154499854
1739555414996304100,3.08230419921875,0.7661684966474771,-1.455139187324047,-0.3019755890520289
1739555415006374000,3.092373779296875,0.6259685833185911,-1.4607856687784193,-0.20491192987728862
1739555415016444000,3.10244384765625,0.5085948343038559,-1.4536343357190489,-0.13385098269358275
1739555415026514200,3.11251416015625,0.40457974855601786,-1.4397303135290742,-0.09257851311732083
1739555415036584000,3.122583984375,0.3130746002912521,-1.4390914311036467,-0.09376991485897451
1739555415046654000,3.132654052734375,0.26099253087639807,-1.4926614009886978,-0.10377718533873558
1739555415056723700,3.1427236328125,0.21321838778853416,-1.5369310430869458,-0.1338134271621704
1739555415066794000,3.1527939453125,0.16818331427574157,-1.5252278919421136,-0.2012352141259238
1739555415076864000,3.162864013671875,0.14721066887378692,-1.5356033016145227,-0.2404949556402862
1739555415086933800,3.172933837890625,0.1860240913927555,-1.5540312309697268,-0.20606917362101373
1739555415097003000,3.1830029296875,0.16841770755350588,-1.5855159180358052,-0.16313563896473496
1739555415107073000,3.193072998046875,0.1389677411854267,-1.6067504292443393,-0.17342603723481295
1739555415117143000,3.20314306640625,0.1788742196381092,-1.6188434564895926,-0.24754691997841
1739555415127213000,3.213213134765625,0.17573767517805097,-1.6207980976887046,-0.34846988492980596
1739555415137282800,3.22328271484375,0.14022563229203222,-1.6224501026794313,-0.39103688782863316
1739555415147352800,3.233352783203125,0.08963876987099648,-1.6898852240487932,-0.28323176214806733
1739555415157423000,3.243423095703125,0.02720072613656521,-1.7969385084487497,-0.07834295741803944
1739555415167492900,3.253492919921875,-0.1915232733309269,-1.8178201145663857,-0.01076908516511321
1739555415177563000,3.26356298828125,-0.4877601360678672,-1.7970564357399939,-0.08780782811678946
1739555415187633200,3.273633056640625,-0.7032979067146777,-1.6120440056078136,-0.27105376003310083
1739555415197703000,3.283702880859375,-1.0590917047917843,-1.2726231040522455,-0.498613976906985
1739555415207773000,3.29377294921875,-1.4797808766275644,-0.9588954466797411,-0.6223907978970558
1739555415217843000,3.303843017578125,-1.8731828130871055,-0.7154790506348013,-0.5994778320822864
1739555415227912000,3.313911865234375,-2.268188677611947,-0.41856713818050917,-0.5287019489176571
1739555415237982000,3.32398193359375,-2.698417831209302,-0.10378712221086024,-0.42427685759682204
1739555415248052000,3.334052001953125,-3.0302286961525677,0.1264146221477538,-0.29864538518339395
1739555415258122000,3.3441220703125,-3.1579601730525493,0.37417569633349773,-0.26910858078207817
1739555415268192000,3.35419189453125,-3.0988667635709044,0.6551661092955618,-0.32021811537034806
1739555415278262000,3.364261962890625,-2.900281881290674,0.9142973032794892,-0.3922192294809967
1739555415288332000,3.37433203125,-2.674291690212488,1.1131210358168928,-0.39018765058815474
1739555415298401800,3.38440185546875,-2.4610259561508894,1.2526945608757436,-0.2922116988740861
1739555415308471800,3.394471923828125,-2.1618243983894585,1.378431795218587,-0.15725341252572833
1739555415318541800,3.404541748046875,-1.7352438304275273,1.4907624354995785,-0.04158785566836595
1739555415328611800,3.41461181640625,-1.1870195810467004,1.4982660891279578,0.05138422334380448
1739555415338681900,3.424681884765625,-0.5751034884780645,1.330605045160651,0.06935586029887199
1739555415348752000,3.434751953125,-0.0019411971956491468,1.0711092556480317,0.017319456656649707
1739555415358820900,3.44482080078125,0.49544133822023867,0.8141569400731473,-0.0848957400623709
1739555415368891000,3.454890869140625,0.8843255049943923,0.6425177862551062,-0.2327343315761536
1739555415378961000,3.4649609375,1.150454814237356,0.5600977155912668,-0.41594555750526485
1739555415389031000,3.475031005859375,1.3077443940550089,0.5224956416234374,-0.5389077011115849
1739555415399100700,3.4851005859375,1.3861223497211932,0.48641186326406893,-0.597851911380887
1739555415409171000,3.4951708984375,1.3723603663504123,0.4867082889273762,-0.6124672967106104
1739555415419241000,3.505240966796875,1.2718757928162812,0.5292492806021124,-0.5348250349078327
1739555415429310700,3.515310791015625,1.1079261705875396,0.6280099529530853,-0.39877259664721787
1739555415439381000,3.525381103515625,0.9153951815187931,0.7780551146004349,-0.2424994273304939
1739555415449451000,3.535450927734375,0.7355196758836507,0.944993762577325,-0.046672976912930604
1739555415459520800,3.545520751953125,0.5537099873155356,1.0738972058661282,0.148600442731753
1739555415469590800,3.5555908203125,0.40234161424040793,1.1768491924270987,0.37917635416500267
1739555415479660800,3.565660888671875,0.2380897941946983,1.2900631914138794,0.5907793426461517
1739555415489729800,3.575729736328125,0.07953647805154324,1.4017077491268515,0.7591298301823437
1739555415499800000,3.585800048828125,-0.09535364038646221,1.42238433419168,0.9642800623275339
1739555415509869800,3.595869873046875,-0.2481815646201372,1.3871763888187705,1.1505041332717985
1739555415519939800,3.60593994140625,-0.4074053273707628,1.4001592045105993,1.2203056184463201
1739555415530010000,3.616010009765625,-0.5204699810147285,1.378282157614827,1.2763082223057747
1739555415540079900,3.626079833984375,-0.6000999825686216,1.3387905435733496,1.3270683954671025
1739555415550150000,3.63614990234375,-0.6902122151702642,1.2908100642584264,1.2873548092380165
1739555415560219600,3.6462197265625,-0.7273533205628394,1.2511422168672084,1.1896269870661198
1739555415570290000,3.6562900390625,-0.7033703874289989,1.199041588882357,1.0812291561894118
1739555415580360000,3.66635986328125,-0.6320511181026697,1.1558473209306597,0.9740662739351391
1739555415590429700,3.6764296875,-0.48942426988780496,1.1115488911293447,0.921812647345662
1739555415600500000,3.6865,-0.28451953693628307,1.0379176915988326,0.8848355734083801
1739555415610570000,3.696570068359375,-0.046428573697805404,0.9799206990517675,0.8364475362058729
1739555415620639700,3.7066396484375,0.19588146854043006,0.9253155409000814,0.8125348187640309
1739555415630709800,3.716709716796875,0.4543541255503893,0.8490925713106989,0.765377930791676
1739555415640778800,3.72677880859375,0.7122995438158511,0.7466868204556405,0.6655520403619856
1739555415650848800,3.736848876953125,0.9467594570755958,0.679320088147372,0.56182132451348
1739555415660919000,3.7469189453125,1.1314619444757699,0.6254825533673167,0.4826392128575593
1739555415670988800,3.75698876953125,1.2360405093252658,0.5810339014403522,0.4294079734075814
1739555415681058800,3.767058837890625,1.3027134141504764,0.5276140075504779,0.38620186888761815
1739555415691129000,3.777129150390625,1.2664368166327475,0.4824478550039232,0.37368075242340565
1739555415701198800,3.78719873046875,1.1806219889640808,0.45307694522142405,0.35819114154241977
1739555415711268900,3.797268798828125,1.0162906739413737,0.42809316448196766,0.34713184125907715
1739555415721338600,3.807338623046875,0.8305652732342481,0.40436508289203044,0.3182443310793489
1739555415731409000,3.817408935546875,0.7047790851831436,0.3929806423075497,0.30247298064753414
1739555415741479000,3.82747900390625,0.6526636980205774,0.3714055009678006,0.28130926965288816
1739555415751548700,3.837548583984375,0.665719578948617,0.3587552782312035,0.266109289368242
1739555415761619000,3.847618896484375,0.7487982596516609,0.308507438506186,0.24558511838614938
1739555415771689000,3.85768896484375,0.858374486657977,0.2394884089462459,0.2179699662297964
1739555415781758700,3.8677587890625,0.9646756375163793,0.1582899890318513,0.19992840584367513
1739555415791828000,3.877827880859375,1.0611340242743492,0.0644426615551114,0.19131350303776562
1739555415801897700,3.887897705078125,1.1659750394523143,0.010236293462663889,0.17205467581637202
1739555415811967700,3.8979677734375,1.2316700391560793,-0.06803294113203882,0.16658596208170057
1739555415822038000,3.9080380859375,1.33642629866004,-0.17598741215541958,0.16365611917488276
1739555415832107800,3.918107666015625,1.3422288474589585,-0.2794483711518347,0.18615948127545415
1739555415842177800,3.928177734375,1.280483462163806,-0.3413467550516128,0.2319686079006642
1739555415852248000,3.938248046875,1.2110007606148718,-0.3843113059006631,0.2612303582202643
1739555415862317800,3.94831787109375,1.1073632760077714,-0.4108974072702229,0.2742245720889419
1739555415872387800,3.958387939453125,0.9802648363143205,-0.42867695571929215,0.2727216201800853
1739555415882457900,3.968457763671875,0.8249491869181395,-0.45457010638862844,0.3058578738454729
1739555415892527900,3.97852783203125,0.6669295392602682,-0.4791233867563307,0.34027320753596724
1739555415902598000,3.988597900390625,0.5109416896909476,-0.5243561747983098,0.3458379289910197
1739555415912667600,3.998667724609375,0.3423158923447132,-0.5528619921840727,0.36246859966591
1739555415922738000,4.008738037109375,0.14517945530712603,-0.5994872574977577,0.37852541597560047
1739555415932808000,4.018807861328125,0.015243746361136436,-0.705861911983788,0.40475634723193943
1739555415942877700,4.028877685546875,-0.06687514939904213,-0.7983129627965391,0.4274927143707871
1739555415952948000,4.038947998046875,-0.10877601653933525,-0.886634950980544,0.4114979304466396
1739555415963016700,4.0490166015625,-0.10490940423905849,-0.9689848790176212,0.34354338831305503
1739555415973086700,4.059086669921875,-0.14343874911963939,-1.06168742037341,0.26739026908949015
1739555415983157000,4.069156982421875,-0.19143033435046672,-1.1264194202639162,0.21939766094535587
1739555415993226800,4.079226806640625,-0.2655821967542171,-1.157097905513644,0.17973237083740531
1739555416003296800,4.089296875,-0.29903438450098035,-1.1828270977929234,0.17070380919668823
1739555416013367000,4.099366943359375,-0.3081161011010408,-1.1587148391909896,0.1768516643019393
1739555416023436800,4.109436767578125,-0.35133681866824623,-1.1092828458935022,0.16786164457332342
1739555416033506800,4.1195068359375,-0.390556483900547,-1.0452905584543943,0.14399583501312882
1739555416043576800,4.129576904296875,-0.4748486320465803,-0.9933202788509428,0.10693919303361325
1739555416053646800,4.139646728515625,-0.6208201145142317,-0.9514284717999398,0.08617657365314663
1739555416063716900,4.149716796875,-0.6809311766058206,-0.9503433069117366,0.10009842376075684
1739555416073787000,4.159786865234375,-0.8231295702755451,-0.963290320637822,0.14264328789301214
1739555416083857000,4.16985693359375,-0.9995856228560208,-0.9252988820262252,0.12048161536958069
1739555416093927000,4.179927001953125,-1.223553952717781,-0.8010058551423251,0.09538304914403706
1739555416103996700,4.18999658203125,-1.4427701196163891,-0.6173654440157115,0.1010831239491701
1739555416114067000,4.20006689453125,-1.654795498228073,-0.40788361240699883,0.20088176104575395
1739555416124137000,4.210136962890625,-1.9248937111020088,-0.1628334776803851,0.30904158191550524
1739555416134206700,4.220206787109375,-2.327064644950628,0.052370238706469535,0.31512170554678887
1739555416144276700,4.23027685546875,-2.5899124483048914,0.4347610979385674,0.2858029278103262
1739555416154345700,4.240345703125,-2.8050393000632523,0.7559989848107099,0.1452436248508282
1739555416164415700,4.250415771484375,-2.935291819873452,1.0293158674702048,0.13525308631015942
1739555416174486000,4.260486083984375,-2.9098224475741383,1.3089070080935954,0.18014166402434928
1739555416184555800,4.2705556640625,-2.8042887739568947,1.5077524410061538,0.24701142486222086
1739555416194625800,4.280625732421875,-2.8387948546707626,1.6136249911889433,0.5573399413157254
1739555416204696000,4.290696044921875,-2.929695022779703,1.633072765111178,1.0293213473629206
1739555416214765800,4.300765869140625,-2.7583447689056393,1.584208927090466,1.3630438180811701
1739555416224835800,4.3108359375,-2.3565882610768076,1.5835162686511872,1.3075544244408606
1739555416234905900,4.32090576171875,-1.7180910355746746,1.5411816862687469,0.9575194821514189
1739555416244975900,4.330975830078125,-1.0080489152967929,1.3599144340142606,0.48524333094134925
1739555416255046000,4.3410458984375,-0.3568739945292473,1.1111524391576648,0.020985724079236386
1739555416265116000,4.351115966796875,0.28365736714899537,0.9033980158634484,-0.5043323545537889
1739555416275186000,4.36118603515625,0.7450801159113645,0.7528321913428604,-0.9792714413627982
1739555416285256000,4.371255859375,1.0909189216852186,0.5842958258457481,-1.3559253643780946
1739555416295325700,4.38132568359375,1.2571025865763426,0.40199017045423385,-1.6182576194256544
1739555416305396000,4.39139599609375,1.3277525783389805,0.29200536264702676,-1.8105470548234879
1739555416315466200,4.40146630859375,1.2503010898679494,0.30075872407555576,-1.9462772753924131
1739555416325536300,4.411536376953125,1.0954068807542323,0.42585181529596444,-2.0372864568337796
1739555416335606000,4.42160595703125,0.9559902267575263,0.6039309390336275,-2.034309486849606
1739555416345676300,4.43167626953125,0.8088105375438928,0.8190139516502618,-1.9698210864566266
1739555416355746300,4.441746337890625,0.6627969695001841,1.043947181021422,-1.8361314318045974
1739555416365816000,4.451816162109375,0.5916004497706889,1.269895432654023,-1.6480816798031328
1739555416375886000,4.461885986328125,0.5955675998359918,1.4135818729244172,-1.3800221331499516
1739555416385955000,4.471955078125,0.5668067847758531,1.505195888391137,-1.0462236015208064
1739555416396025000,4.482025146484375,0.5610860690414905,1.5673833183653652,-0.6905147783134132
1739555416406095400,4.492095458984375,0.6508931812167167,1.5485736962161958,-0.4241743105378002
1739555416416165000,4.5021650390625,0.7706640545010566,1.5140277218833564,-0.26048582346327603
1739555416426235100,4.512235107421875,0.9293079715371131,1.412323397295922,-0.2159487626004964
1739555416436305400,4.522305419921875,1.177518177729845,1.2404979271255432,-0.27185908506661655
1739555416446375200,4.532375244140625,1.4453899467259645,1.051072648987174,-0.3727066466942429
1739555416456445200,4.542445068359375,1.6517600760549307,0.8878910885214805,-0.5142181540783495
1739555416466515200,4.55251513671875,1.7313398087263105,0.79372329691872,-0.6664332071106881
1739555416476585200,4.562585205078125,1.7140975820243358,0.7071363158337771,-0.7803779315248132
1739555416486655200,4.5726552734375,1.6438789674162864,0.6062151044480503,-0.8321982081983238
1739555416496725000,4.58272509765625,1.5072557435303926,0.5396329466462135,-0.8164874288473278
1739555416506795300,4.592795166015625,1.3350094175994396,0.5182648721858859,-0.7193141718182713
1739555416516865300,4.602865234375,1.2020967386692762,0.5083750540733337,-0.53318201694116
1739555416526935000,4.61293505859375,1.0264145930707453,0.4842325464636087,-0.2917467847760767
1739555416537005300,4.62300537109375,0.9060837478160858,0.3926616394862532,-0.0580488688647747
1739555416547075300,4.633075439453125,0.8585258778274059,0.28394597483202816,0.14656959449127316
1739555416557145000,4.64314501953125,0.8154226491600275,0.16503201063796877,0.24876864379309116
1739555416567215000,4.653215087890625,0.7509270883738994,-0.010196545974165201,0.25980346722230313
1739555416577285400,4.663285400390625,0.7200310148507356,-0.18967808385565876,0.2152386415697634
1739555416587355100,4.673355224609375,0.6614701048105954,-0.3742760879680514,0.16352240979261695
1739555416597425200,4.683425048828125,0.5993161387145519,-0.5190387791678309,0.14310571777299047
1739555416607495400,4.693495361328125,0.5177677363187074,-0.6215539817467332,0.12894516353867946
1739555416617565200,4.703565185546875,0.4592021501034498,-0.7265105861283838,0.09317958428300917
1739555416627635200,4.71363525390625,0.5105944836884737,-0.826309661616385,0.11752988942451774
1739555416637705000,4.723705078125,0.5630301888465881,-0.9299484613977372,0.20268603398874402
1739555416647775200,4.733775146484375,0.6316828693121671,-1.0570315573915838,0.25740583149604496
1739555416657845200,4.74384521484375,0.6548498098880052,-1.1539126996062696,0.25741620675958693
1739555416667914200,4.753914306640625,0.6626052463203668,-1.219234628213942,0.2249051723204553
1739555416677984300,4.763984375,0.6434381890356541,-1.2669773532502353,0.2278309966392815
1739555416688054000,4.774053955078125,0.5891904660195112,-1.3012849887825548,0.26657230377011
1739555416698124300,4.784124267578125,0.5189788656741381,-1.317257780070603,0.29156719042547047
1739555416708194300,4.7941943359375,0.43430794734358785,-1.2998653312429784,0.29948081309422847
1739555416718264000,4.80426416015625,0.27930267907083034,-1.2605245238490401,0.27266265653446314
1739555416728334000,4.814333984375,0.10448854847848414,-1.204238134612143,0.22831213121972976
1739555416738404400,4.824404296875,-0.031216976040601727,-1.175585017710179,0.14227869236432014
1739555416748474000,4.83447412109375,-0.1356657770305872,-1.1736356372080743,0.06573131312616169
1739555416758544100,4.844544189453125,-0.1932002666324377,-1.236728199328482,0.017475231740251184
1739555416768614400,4.854614501953125,-0.31519816831648345,-1.3235729545667767,-0.01629858917631209
1739555416778684200,4.86468408203125,-0.4428898977279663,-1.4039151960432528,-0.13400946119092405
1739555416788754200,4.874754150390625,-0.44648178474009037,-1.4467276250705121,-0.25366839853338896
1739555416798824200,4.88482421875,-0.462456183463335,-1.4458974578566848,-0.30494770019799466
1739555416808894200,4.894894287109375,-0.49095805532634257,-1.4724584247849881,-0.2701535232577473
1739555416818964200,4.904964111328125,-0.46763329384028907,-1.4863899195037782,-0.19533318700790403
1739555416829034000,4.915033935546875,-0.41598143253624437,-1.454134832587093,-0.14980309651978313
1739555416839104300,4.925104248046875,-0.40230595840513705,-1.4029505887947975,-0.13256554599292575
1739555416849174300,4.93517431640625,-0.4728770397126674,-1.4099308030709623,-0.03141074504703283
1739555416859244000,4.945244140625,-0.576115295869112,-1.4638528012640772,0.1356159465394914
1739555416869314300,4.955314208984375,-0.6573901420205831,-1.538502091795951,0.291920899233967
1739555416879384300,4.96538427734375,-0.7703226937174796,-1.6310096951015292,0.3235497440110892
1739555416889454000,4.9754541015625,-0.925878581610322,-1.6304465082608162,0.21302198843359946
1739555416899524000,4.985524169921875,-1.1238584837347267,-1.4962154402084649,-0.05144968979544937
1739555416909594400,4.995594482421875,-1.402432264009118,-1.3263916652493177,-0.36214309403859074
1739555416919664000,5.0056640625,-1.7645055807471275,-1.205863251595944,-0.5302181256342678
1739555416929734100,5.015734130859375,-2.0701497387766836,-1.0928893449753523,-0.6221287128947675
1739555416939804400,5.025804443359375,-2.3143840270757674,-0.9328004898279905,-0.6415518638323993
1739555416949874200,5.035874267578125,-2.4624989513128996,-0.7462139422468841,-0.6308017025634646
1739555416959944200,5.045944091796875,-2.5341812087327242,-0.5354596064843237,-0.5728172772370278
1739555416970014200,5.05601416015625,-2.6245477083563804,-0.3253571587592363,-0.5222907667011022
1739555416980084200,5.066084228515625,-2.701085004591942,-0.17638620221465826,-0.48916963753961024
1739555416990154200,5.076154296875,-2.796708694091439,-0.08522884447425604,-0.45430729073397813
1739555417000224000,5.08622412109375,-3.0283699165433644,0.04914426239728927,-0.46630789045542476
1739555417010294300,5.096294189453125,-3.2772464776903387,0.2596681504048407,-0.49781435096189375
1739555417020364300,5.1063642578125,-3.447884783902764,0.4964003925107419,-0.49271388601772487
1739555417030434000,5.11643408203125,-3.5559184576421976,0.6685115477547049,-0.3409773372173309
1739555417040504300,5.12650439453125,-3.4543677161812782,0.8000918090373277,-0.1449137901082635
1739555417050574300,5.13657421875,-3.1750615299791094,0.9256110167153179,-0.008111848654597997
1739555417060644000,5.14664404296875,-2.637116098028421,1.0376369749613106,0.052095805679261684
1739555417070714000,5.156714111328125,-1.904223263517022,1.0477135478176176,0.07414199859686195
1739555417080784100,5.1667841796875,-1.1417314095556734,0.9064707013070583,0.08063150674663484
1739555417090854100,5.176854248046875,-0.4488748173564672,0.7103129000432788,0.08201696975566446
1739555417100924200,5.186924072265625,0.16412848592698573,0.5944647531606256,0.03936842605322599
1739555417110994200,5.196994140625,0.7016039622783661,0.5646177502989769,-0.03517199727669358
1739555417121064200,5.207064208984375,1.0436953982174395,0.5675945741526782,-0.11482698714137077
1739555417131134200,5.21713427734375,1.1726543710857629,0.579029283619672,-0.13883753893449902
1739555417141204200,5.227204345703125,1.1122545551806688,0.5457178195178508,-0.0014624737679958342
1739555417151274200,5.237274169921875,0.853503081229329,0.6037025371052325,0.04528028044551611
1739555417161343000,5.247343017578125,0.5082698401331901,0.802295748822391,-0.02848638203293085
1739555417171414000,5.2574140625,0.014259996020793914,1.0651995201475917,-0.21183920838981865
1739555417181483300,5.267483154296875,-0.4009703258872032,1.3575843836314976,-0.4103871927257627
1739555417191553000,5.277552978515625,-0.6992091760963202,1.6127316956110298,-0.4049803652461618
1739555417201623300,5.287623291015625,-0.8601315594583749,1.777195843233168,-0.20611330502368508
1739555417211693300,5.297693359375,-0.896651902604103,1.8847347191929815,0.11306633414439857
1739555417221763000,5.30776318359375,-0.7238473582684993,1.9949113963104783,0.49979208077564835
1739555417231833300,5.317833251953125,-0.3022299656718969,2.057808728119731,0.771188516766578
1739555417241903400,5.3279033203125,0.1800730740338564,2.073582635834813,0.923131328728795
1739555417251973000,5.33797314453125,0.6481599568605423,2.028438110598177,0.945094592603296
1739555417262043100,5.348043212890625,1.0408353326112032,1.9235558866269886,0.865751591297239
1739555417272113200,5.358113037109375,1.3448065889924763,1.7607940128780901,0.8357573619846254
1739555417282183200,5.36818310546875,1.5274106428086758,1.6205603434100746,0.766291173179075
1739555417292253200,5.378253173828125,1.5953192269086838,1.614291346143186,0.6038466217510402
1739555417302323200,5.3883232421875,1.5699427935898302,1.6750339841365813,0.40606962178759276
1739555417312392700,5.398392822265625,1.568181044614315,1.7007099849238991,0.284397517991811
1739555417322462700,5.408462646484375,1.6052414859861135,1.6829545480027794,0.2939974132470786
1739555417332532700,5.41853271484375,1.7054314604878424,1.6440999166905879,0.3942940629936754
1739555417342602800,5.428602783203125,1.8740426447868346,1.5923443027511237,0.4980073893159628
1739555417352672800,5.4386728515625,2.0809072796344754,1.5011273237779736,0.5598631031177937
1739555417362742800,5.44874267578125,2.2923446292251346,1.4216563121780752,0.5705284356474876
1739555417372812800,5.458812744140625,2.439526656526327,1.320448685066402,0.5205125049822033
1739555417382882800,5.4688828125,2.5856015993684527,1.2281824893012643,0.4741987898357212
1739555417392952600,5.47895263671875,2.6564631880551577,1.1488424106046558,0.4133078294128179
1739555417403022800,5.48902294921875,2.6160499291241166,1.041579721237719,0.38010245603397486
1739555417413092900,5.4990927734375,2.514822428268194,0.9124567899793385,0.34459479706212875
1739555417423162600,5.50916259765625,2.352378534427285,0.7884899263098836,0.24733890325091779
1739555417433233000,5.51923291015625,2.1877280704528093,0.7074465508267282,0.15674575526453555
1739555417443302700,5.529302734375,2.050432061871886,0.6303633111461997,0.08907507157362997
1739555417453372700,5.53937255859375,1.9022130927383898,0.5369456072583795,0.06324490313790739
1739555417463442700,5.549442626953125,1.7255308301866052,0.4060889840751886,0.08968472790457307
1739555417473512700,5.5595126953125,1.5384440779983997,0.31856238405257464,0.09487732811160385
1739555417483582700,5.569582763671875,1.3168179273486136,0.2882002712756395,0.10489610636606812
1739555417493652700,5.57965283203125,1.0833797583520413,0.2292500696569681,0.06782894299253821
1739555417503722800,5.58972265625,0.9446317973971367,0.15397592522501943,0.06355126567333937
1739555417513792800,5.599792724609375,0.8221750460296868,0.09445084632784127,0.07315247610285877
1739555417523862800,5.60986279296875,0.766008337649703,-0.007217384032905102,0.0603293079521507
1739555417533932800,5.619932861328125,0.7917050889641046,-0.14214914770051837,0.016912410225719213
1739555417544002800,5.6300029296875,0.8254360936522483,-0.28147622371762987,0.012640870386362075
1739555417554072800,5.64007275390625,0.833838595816493,-0.4119995232932269,-0.00440671052634716
1739555417564142600,5.650142578125,0.8356687338531017,-0.5427382191851735,0.0032940000440925357
1739555417574212900,5.660212890625,0.7934919723808765,-0.6521028492674231,0.026098098656907678
1739555417584282600,5.67028271484375,0.614991262230277,-0.7280820732288062,0.07321319331414997
1739555417594352600,5.6803525390625,0.40266310127973554,-0.8167292017139494,0.13906075323112307
1739555417604423000,5.6904228515625,0.2198123792260885,-0.8900522120781242,0.16768500936478375
1739555417614492700,5.70049267578125,0.017836685463786126,-0.9764544842459261,0.17514453159049154
1739555417624562700,5.710562744140625,-0.15193360574245451,-1.069988507989794,0.18950499231107532
1739555417634632700,5.7206328125,-0.23466508044302462,-1.1640868876181543,0.2218888932392001
1739555417644702700,5.73070263671875,-0.18637889617979525,-1.22110816700086,0.27638364981897173
1739555417654772700,5.740772705078125,-0.09640694883167743,-1.349244717570394,0.3149702778447419
1739555417664842800,5.7508427734375,-0.15904665261805057,-1.4563796889044343,0.35791005957871674
1739555417674912800,5.760912841796875,-0.3662526482492685,-1.469955063661933,0.3372717606976628
1739555417684982800,5.770982666015625,-0.7061001046538352,-1.4670197408623993,0.2950899577241391
1739555417695052500,5.781052490234375,-1.1408172173202038,-1.4402796179749071,0.2920420413956046
1739555417705123600,5.79112353515625,-1.6267507224828004,-1.3334706637248397,0.3388994349647313
1739555417715192800,5.80119287109375,-2.1609628131240606,-1.2324253875680267,0.38852746229097246
1739555417725262600,5.8112626953125,-2.5951824976623055,-1.1784651031911373,0.3716200935665518
1739555417735333600,5.821333740234375,-2.9364485886931417,-1.2157858029343187,0.36455212794169783
1739555417745403600,5.831403564453125,-3.128419021269679,-1.261222150724381,0.3518474716041237
1739555417755474000,5.841473876953125,-3.261761323788762,-1.1960391921959816,0.20508900347724557
1739555417765543700,5.851543701171875,-3.3134266290962695,-0.9909593949384987,-0.16357918148115277
1739555417775613700,5.86161376953125,-3.2294226502418515,-0.7335416538089513,-0.5009375975489616
1739555417785683700,5.87168359375,-3.1403461904287338,-0.6385717520430684,-0.614628712528199
1739555417795753700,5.881753662109375,-3.104088297611475,-0.5943687454402447,-0.5192865433838219
1739555417805823700,5.89182373046875,-3.2374855451881883,-0.48726957607194776,-0.2161965268164873
1739555417815893800,5.901893798828125,-3.52361193279922,-0.31902780960723753,0.13697569058537482
1739555417825963800,5.9119638671875,-3.8573353533655403,-0.04732932192981243,0.4786046966444701
1739555417836033800,5.92203369140625,-4.257415452414751,0.26463176416158674,0.7481926949739456
1739555417846103600,5.932103515625,-4.606947852009535,0.5211103247448802,0.8499322370052337
1739555417856173800,5.942173828125,-4.848910103723407,0.7447125977732241,0.7796224369823932
1739555417866243800,5.952243896484375,-4.939564772638678,0.9707597797356545,0.462557378815487
1739555417876313600,5.962313720703125,-4.758215687319636,1.1852528636351227,0.12526972642894835
1739555417886383900,5.9723837890625,-4.32138552802205,1.3201483869455755,-0.12462649662196636
1739555417896454000,5.982453857421875,-3.629105858927965,1.3406572142280637,-0.29690650562681253
1739555417906523600,5.992523681640625,-2.622376794058084,1.362311119892448,-0.46016507685147223
1739555417916593700,6.00259375,-1.5531541558742523,1.359804690029472,-0.574483968340233
1739555417926663700,6.01266357421875,-0.5046159938007593,1.3186498189508915,-0.6979814609322696
1739555417936733700,6.022733642578125,0.40010815609991546,1.294278763282299,-0.8646580239068716
1739555417946803700,6.0328037109375,1.0889122580379247,1.2893402839668093,-0.9786169229768216
1739555417956873700,6.042873779296875,1.5909738911807536,1.2703167268060147,-0.9906214682210236
1739555417966943700,6.05294384765625,1.917638040885329,1.2453630489438772,-0.9344779215209186
1739555417977013800,6.063013671875,2.134160146394372,1.2717194332107902,-0.9767702721968292
1739555417987083800,6.073083740234375,2.2926076640754935,1.3359068048305809,-1.078228293872997
1739555417997153800,6.08315380859375,2.431954759967327,1.3761036445319652,-1.1957079144150018
1739555418007223800,6.093223876953125,2.5610961036652324,1.385942024718225,-1.2961892730787397
1739555418017293600,6.10329345703125,2.666550282305479,1.407740015028417,-1.3060251690469682
1739555418027363800,6.11336376953125,2.7383202180087567,1.4495979198098181,-1.2042669953804463
1739555418037433600,6.12343359375,2.7986779483377933,1.4762880660757423,-1.0529344242710619
1739555418047503600,6.133503662109375,2.8043898962438103,1.4891300119921564,-0.8887598341800272
1739555418057574000,6.143573974609375,2.752312503004074,1.5244447787404058,-0.6980562066689133
1739555418067643600,6.1536435546875,2.684533098241687,1.612254579618573,-0.5379048076793551
1739555418077713700,6.163713623046875,2.5556074431210756,1.6310770612493157,-0.44888599633760745
1739555418087784000,6.173783935546875,2.4713258163690566,1.5763567522853612,-0.34051315377168356
1739555418097853700,6.183853759765625,2.3544290372163057,1.5273884309768675,-0.22469547509253024
1739555418107923700,6.193923828125,2.2153893998384473,1.4896692334353923,-0.14126885773465037
1739555418117993700,6.20399365234375,2.0980565673559903,1.4402481999233365,-0.07172799625769258
1739555418128063700,6.214063720703125,2.0296838728755713,1.3535270710647105,-0.03058233139887452
1739555418138133800,6.2241337890625,1.989955673599243,1.2159858555510639,0.005780483097583055
1739555418148203800,6.234203857421875,1.9772294630169867,1.0849962536379694,0.07041888642050326
1739555418158273800,6.244273681640625,2.0025024359613655,0.9280892433971166,0.13260960433036087
1739555418168343800,6.25434375,1.9693559531629083,0.7309288409620524,0.19594569288305938
1739555418178413600,6.26441357421875,1.837697073686123,0.5330778259143233,0.1883092797204852
1739555418188483800,6.27448388671875,1.7126719331353901,0.40442514251619577,0.20034253960251808
1739555418198553900,6.284553955078125,1.5751929692029951,0.292910348662734,0.24609927845336496
1739555418208623600,6.29462353515625,1.3467507087975739,0.14281331069767475,0.3376065456099808
1739555418218693600,6.304693603515625,1.0207710342258214,0.03628828795552254,0.4017318848442286
1739555418228764000,6.314763916015625,0.7613900301992893,-0.05201747974604368,0.40629897356405853
1739555418238833700,6.324833740234375,0.6148983232498169,-0.15327742156684399,0.4086934674851596
1739555418248903700,6.334903564453125,0.6308785671919583,-0.26405454879552126,0.42834041724130506
1739555418258974000,6.344973876953125,0.6991559846043587,-0.4027081094652414,0.4048415412973612
1739555418269043700,6.355043701171875,0.8188520390868187,-0.5514177847251296,0.2977296585779637
1739555418279113700,6.36511376953125,0.8634645032733679,-0.6759878749847412,0.13184344226345418
1739555418289183700,6.375183837890625,0.7612403925955296,-0.7627309234142303,-0.028645518117398024
1739555418299253800,6.385253662109375,0.5394651888638734,-0.8641659295409917,-0.12179529178403317
1739555418309323800,6.39532373046875,0.3307254077941179,-0.9630907064124942,-0.16313954795487223
1739555418319394300,6.405394287109375,0.20131869115829468,-1.028157052823901,-0.16619097141474484
1739555418329464300,6.41546435546875,0.09347966320812702,-1.0645242512345314,-0.15858626856468616
1739555418339534300,6.425534423828125,0.07849486004412173,-1.0741749998942016,-0.13299568103849888
1739555418349604400,6.435604248046875,0.14176000225245952,-1.113313124322891,-0.061028761458396905
1739555418359674400,6.44567431640625,0.2828653399884701,-1.1487585317134856,-0.004907938046753406
1739555418369744400,6.455744384765625,0.4477297389745712,-1.192290799447894,0.006717763947695493
1739555418379815400,6.4658154296875,0.597335194030404,-1.2532868276804685,-0.03406827381849289
1739555418389885400,6.475885498046875,0.703830990678072,-1.2936661843419075,-0.1026331298701465
1739555418399955200,6.485955078125,0.6944312941700219,-1.3002724507391452,-0.20588819103091954
1739555418410025500,6.496025390625,0.6273533156752586,-1.3392422328636049,-0.25118271919749674
1739555418420095500,6.506095458984375,0.5036643921643496,-1.3837772478997707,-0.31302681562677026
1739555418430165200,6.516165283203125,0.3675017715275287,-1.369005795225501,-0.36700003255046904
1739555418440235300,6.5262353515625,0.20046002850234507,-1.3715709695383906,-0.4083429735470563
1739555418450305500,6.536305419921875,0.04355447956621647,-1.3561831385314465,-0.4489227481514215
1739555418460375300,6.546375244140625,-0.05538461809158325,-1.3142980534821749,-0.4259134092900902
1739555418470445300,6.5564453125,-0.12568214315474033,-1.2907336380213499,-0.3392273517448455
1739555418480515600,6.566515625,-0.20965864948034285,-1.325489601843059,-0.2543769121289253
1739555418490585300,6.57658544921875,-0.24299919354617594,-1.3703262301743029,-0.14467121352404355
1739555418500655400,6.5866552734375,-0.335745866304636,-1.373380941569805,-0.028454014133289456
1739555418510725400,6.596725341796875,-0.4561959540247917,-1.4241606962144373,0.0901055105999112
1739555418520795400,6.60679541015625,-0.46155543523132797,-1.600480847455561,0.3301156053327024
1739555418530865400,6.616865478515625,-0.5402601386338473,-1.7712123849093913,0.5037791045852005
1739555418540935200,6.62693505859375,-0.680208707550168,-1.8016370415285228,0.53331718762815
1739555418551005400,6.63700537109375,-0.9168132316231727,-1.6636080424979327,0.3699437578521669
1739555418561075500,6.647075439453125,-1.366271401825547,-1.467938463142514,0.16762290391400456
1739555418571145200,6.657145263671875,-2.0402280632436276,-1.3529030939474702,-0.008187251978367567
1739555418581215500,6.667215576171875,-2.728490897911787,-1.1361463028997183,-0.17360241671502588
1739555418591285500,6.677285400390625,-3.3169138866901395,-0.7951797793373465,-0.3716019733879715
1739555418601355300,6.687355224609375,-3.955431570458412,-0.5077238966882228,-0.43016302955858404
1739555418611425300,6.69742529296875,-4.282694855099916,-0.32276568096131086,-0.42003428812362253
1739555418621495600,6.70749560546875,-4.451981162181497,-0.21170812935605643,-0.3295823021735996
1739555418631565300,6.7175654296875,-4.4543525674879545,-0.16033566951528191,-0.31749701984338463
1739555418641635300,6.72763525390625,-4.29581678700149,-0.16460998583361505,-0.42964185522869225
1739555418651705300,6.737705322265625,-4.008277025461196,-0.24417247510924933,-0.5929306754611432
1739555418661775400,6.747775390625,-3.6849955039322375,-0.32640520650744437,-0.7462625306289643
1739555418671845400,6.757845458984375,-3.4721202304929495,-0.39025983904153105,-0.7625809204842895
1739555418681915400,6.767915283203125,-3.2486458216279743,-0.4436873317159712,-0.6246737212024629
1739555418691985400,6.7779853515625,-3.05752820648849,-0.3852982711113989,-0.3674386431634426
1739555418702055400,6.788055419921875,-2.711768895691633,-0.1517355989523232,-0.1647040207926184
1739555418712125200,6.798125244140625,-2.133169966313243,0.192199126765877,-0.058675987787172194
1739555418722195500,6.808195556640625,-1.3797212505072354,0.44962592798471446,0.07918108874261379
1739555418732265500,6.818265380859375,-0.6998731929630041,0.47410526633337136,0.2695557034950703
1739555418742335200,6.828335205078125,-0.04848258361816406,0.46132221099734305,0.31946970815584064
1739555418752405500,6.838405517578125,0.40426644482314583,0.4611456853866577,0.36554523063227534
1739555418762475300,6.848475341796875,0.6319996801763773,0.48299116810038684,0.501203555008769
1739555418772545300,6.858545166015625,0.7840648033440113,0.6020512627668678,0.5737544119566679
1739555418782615300,6.868615234375,0.7371662740468978,0.7815479982174932,0.5921567684791982
1739555418792685300,6.878685302734375,0.5728904886037111,1.021518053200841,0.5094448752619326
1739555418802755300,6.88875537109375,0.2977554506063461,1.2922504723250865,0.3574646538987756
1739555418812825300,6.898825439453125,-0.0663970104932785,1.5252750920847058,0.19067418222092092
1739555418822895400,6.908895263671875,-0.3707096276581287,1.702718694397807,0.034279651546850795
1739555418832965400,6.91896533203125,-0.5414537323325872,1.892432580219209,-0.016635419915243983
1739555418843035400,6.929035400390625,-0.6378636037737131,2.0735575013935565,0.05401121084652841
1739555418853105400,6.93910546875,-0.5608113437533379,2.2206249624043704,0.24716749220676718
1739555418863175400,6.949175537109375,-0.19497078343629837,2.2838813367843627,0.5496618079032749
1739555418873245400,6.959245361328125,0.20567747088968752,2.2684856147319077,0.8066212838713079
1739555418883315200,6.969315185546875,0.7411947989106178,2.220433239224553,0.9263302709005773
1739555418893385500,6.979385498046875,1.1493915689200163,2.2309964265540243,0.9558954611461609
1739555418903455200,6.989455322265625,1.4107447498023509,2.207237949825823,0.9389498062379658
1739555418913525200,6.999525146484375,1.6156208411812782,2.096428673893213,0.9742636231381445
1739555418923595500,7.009595458984375,1.7388427317023276,1.9806877867773174,0.9605417525820433
1739555418933665300,7.019665283203125,1.7366145342588424,1.8841703633084892,0.8799429059959948
1739555418943735300,7.0297353515625,1.630205831372738,1.8116300277546047,0.738160618846491
1739555418953805600,7.0398056640625,1.5358979006469249,1.7582035579934716,0.5674465439841151
1739555418963876600,7.049876708984375,1.4871084430366754,1.7695508814379572,0.40720739364586767
1739555418973946400,7.0599462890625,1.408131936955452,1.8041645141795277,0.24414712147228418
1739555418984016400,7.070016357421875,1.4024422008812427,1.7975313597753644,0.08788483887575567
1739555418994086100,7.080086181640625,1.4562743288338182,1.8071219026803969,0.0812239927470684
1739555419004156400,7.090156494140625,1.5339175404846668,1.7960870061859489,0.15401508819162846
1739555419014226400,7.100226318359375,1.6994202373743057,1.7672887817248701,0.17609145705178378
1739555419024296200,7.110296142578125,1.8645406569480896,1.6888751702234148,0.15323255951181053
1739555419034366500,7.120366455078125,1.9981144301354883,1.580709979058802,0.18372604358345268
1739555419044436500,7.1304365234375,2.1391905417770145,1.4713494406297802,0.15860314663425087
1739555419054506200,7.14050634765625,2.2788988721966743,1.3546756565779448,0.08366904781162739
1739555419064576500,7.150576416015625,2.317489591875672,1.2359490316495299,0.04774447860196233
1739555419074646500,7.160646484375,2.273484445932507,1.161463991768658,0.011754881332069634
1739555419084716300,7.17071630859375,2.1770207984775305,1.1422779375225305,-0.0257478969797492
1739555419094786300,7.180786376953125,2.0868033519357443,1.1309835133090615,-0.0800244076989591
1739555419104856300,7.190856201171875,1.9934540371090173,1.0726128651440143,-0.12221417478322982
1739555419114926300,7.20092626953125,1.884220924451947,0.9493810377508402,-0.1317915659457445
1739555419124996400,7.210996337890625,1.7819874614238738,0.7793988573595881,-0.2047436971709132
1739555419135066400,7.22106640625,1.648297952902317,0.6517386921301483,-0.31632424973696466
1739555419145136400,7.231136474609375,1.5007371554166078,0.5642527163788676,-0.4211744711346924
1739555419155206400,7.241206298828125,1.412195533132553,0.4896285602882504,-0.44279374387711284
1739555419165276400,7.2512763671875,1.3247341073006391,0.5087731134802103,-0.31162206339538095
1739555419175346400,7.261346435546875,1.3060861054539679,0.6590592442765831,0.00016118191108107567
1739555419185416400,7.27141650390625,1.4725854121655224,0.3053592036083341,0.02135901437103748
1739555419195486200,7.281486328125,1.3556979853630065,-0.015884382352232933,-0.13695084840506314
1739555419205556500,7.291556396484375,1.0175707768797875,-0.040843174780905246,-0.18411197416111827
1739555419215626500,7.30162646484375,0.7861416096180677,-0.08095978885293006,-0.253436562538892
1739555419225696300,7.3116962890625,0.7006500225543976,-0.2533528297781944,-0.3214940535902977
1739555419235766500,7.3217666015625,0.535146741142869,-0.3902548706054687,-0.37379151932150123
1739555419245836300,7.331836181640625,0.2946767738133669,-0.49706397098600863,-0.3906717808432877
1739555419255906300,7.34190625,0.16012041932940482,-0.6463076069921255,-0.33639117847085
1739555419265976300,7.351976318359375,0.06768938839137553,-0.8029907453492283,-0.20118542016744612
1739555419276046300,7.36204638671875,-0.08747896148860454,-0.9503159805133938,-0.055892129222303626
1739555419286116400,7.372116455078125,-0.18452128561437128,-1.077160445445776,0.029485622203350065
1739555419296186400,7.382186279296875,-0.38508769710063934,-1.1631640736848115,0.0615498627230525
1739555419306256400,7.39225634765625,-0.6138765789866447,-1.246342123109102,0.09690744569972157
1739555419316326400,7.402326416015625,-0.8850093956053257,-1.4460221071496604,0.20826573381721972
1739555419326396400,7.412396484375,-1.194362929546833,-1.7333377045452594,0.3363463164158165
1739555419336466400,7.422466552734375,-1.460398715287447,-1.9464140535145997,0.4315712158560753
1739555419346536400,7.432536376953125,-1.8524825548857449,-2.088910553348064,0.43703386517614123
1739555419356606500,7.4426064453125,-2.3631851751238107,-2.2376111685186624,0.35644846259355545
1739555419366676500,7.452676513671875,-2.756749024146795,-2.2825819446235895,0.253693021517992
1739555419376746500,7.46274658203125,-3.0620231798201796,-2.165320423811674,0.052434682244807476
1739555419386816500,7.47281640625,-3.2394536303907633,-1.9234519878610967,-0.24191519770175218
1739555419396886500,7.482886474609375,-3.320715617060661,-1.7567422532692551,-0.5066757028095424
1739555419406956500,7.49295654296875,-3.290024710720777,-1.6056185026049612,-0.6358163158550858
1739555419417026600,7.503026611328125,-3.1608488802313803,-1.4122317734897136,-0.5995746435202658
1739555419427096600,7.5130966796875,-2.95982011193037,-1.1791396414518356,-0.42219343891888855
1739555419437166300,7.523166259765625,-2.79310745472908,-0.9109835025563836,-0.13466449103355407
1739555419447236600,7.533236572265625,-2.7183155408561226,-0.6445061105281115,0.24390213373526928
1739555419457306400,7.543306396484375,-2.7467887711465355,-0.45706776842325925,0.5608160199284553
1739555419467376400,7.55337646484375,-2.804732426071167,-0.2931605240315199,0.7171374853663146
1739555419477446700,7.56344677734375,-2.8656746782898903,-0.1677574900791049,0.8892539013072848
1739555419487516400,7.573516357421875,-2.953818241167068,-0.06260813960433007,1.0076689760684967
1739555419497586400,7.58358642578125,-3.011571926477551,0.15604104106128214,0.9023157735846936
1739555419507656400,7.593656494140625,-3.0988895599246025,0.4494187149748206,0.6863286517351865
1739555419517726500,7.6037265625,-3.186950120693445,0.7257412091910839,0.5159237158872186
1739555419527796500,7.61379638671875,-3.1378882758826014,0.9660855043143033,0.3755399704240262
1739555419537866500,7.623866455078125,-2.9195611667782067,1.1927294831261037,0.22220146631971
1739555419547936500,7.6339365234375,-2.438804771992564,1.44968793618083,0.013602555025368928
1739555419558006500,7.644006591796875,-1.66533851955235,1.6821359250962733,-0.20176073583737014
1739555419568076500,7.65407666015625,-0.8991162468910217,1.7644564809083938,-0.38745208814442156
1739555419578146600,7.664146484375,-0.17536767282187937,1.7376117286026478,-0.5321924213819206
1739555419588216600,7.674216552734375,0.4304933574914932,1.6911840316876767,-0.6660559712961316
1739555419598286300,7.684286376953125,0.8772071974217891,1.6684391159161924,-0.8332679563216865
1739555419608356400,7.6943564453125,1.1541314569234848,1.6593372333109377,-0.9677491997428238
1739555419618426600,7.704426513671875,1.3723673806130885,1.6684744794905184,-1.0807153614483773
1739555419628497700,7.71449755859375,1.4777309583604334,1.661215009881556,-1.1613294056035577
1739555419638567400,7.7245673828125,1.526011297404766,1.6766642156869171,-1.2472294273376463
1739555419648637400,7.734637451171875,1.6479875717788934,1.7235449170663952,-1.3224347443170845
1739555419658707500,7.74470751953125,1.7425848408401012,1.7724688147112726,-1.3319234342828392
1739555419668777500,7.754777587890625,1.8812211581140756,1.77502843606621,-1.2989797805801033
1739555419678847500,7.764847412109375,2.0087182417362928,1.7348226824060082,-1.1690873262539505
1739555419688917500,7.77491748046875,2.2079659718394278,1.6948717802897095,-0.9751821262225508
1739555419698987500,7.784987548828125,2.3858768994033337,1.655936777217686,-0.7442436650872231
1739555419709057500,7.7950576171875,2.4793957255780694,1.6265394178196786,-0.530188680344075
1739555419719127300,7.805127197265625,2.5451445012956855,1.5763503225445747,-0.3591226502388716
1739555419729197600,7.815197509765625,2.5434265914618965,1.4962334142565725,-0.23185806019827723
1739555419739267600,7.825267578125,2.504725397145748,1.378493170017004,-0.14972864304408431
1739555419749337300,7.83533740234375,2.4200100551515815,1.2710793817415833,-0.0715155225507915
1739555419759407600,7.84540771484375,2.28558346452713,1.1327759496837855,-0.004422200356423854
1739555419769477600,7.8554775390625,2.114624255797267,0.9811612006321548,0.03626753742843866
1739555419779547400,7.86554736328125,1.9154162731826305,0.8570248256146907,0.025628362253308296
1739555419789617700,7.87561767578125,1.745033987557888,0.8048609231352806,-0.02678469268158078
1739555419799687400,7.8856875,1.6460808613747357,0.7023360759451985,-0.014555471836030483
1739555419809757400,7.89575732421875,1.5646248134374618,0.625179771028459,0.012522796964645385
1739555419819827500,7.905827392578125,1.4848177017509936,0.5474821988418698,-0.0028659108251333234
1739555419829897500,7.9158974609375,1.3706862956583499,0.37450317472219463,0.1252140872515738
1739555419839967500,7.925967529296875,1.3064841648608445,0.23400223262012004,0.28495515187457204
1739555419850037500,7.93603759765625,1.2042068626910447,0.15603841071277855,0.39084932936728
1739555419860107500,7.946107421875,1.0899421856075524,0.13204349488019942,0.44540421863645313
1739555419870177500,7.956177490234375,0.9828244576692581,0.061816112443804735,0.458694492842257
1739555419880247600,7.96624755859375,0.8745207348167896,-0.08975625877082348,0.44277854630798097
1739555419890317600,7.976317626953125,0.7404214764505624,-0.2570131058514118,0.4014990259364247
1739555419900387600,7.9863876953125,0.6099743108510971,-0.40544308738708495,0.3269230929017067
1739555419910457600,7.99645751953125,0.4721954871892929,-0.5562357064008713,0.2017658504039049
1739555419920527400,8.00652734375,0.336997327670455,-0.6683651250213384,0.0195924430899322
1739555419930597600,8.01659765625,0.21849077523350716,-0.7283753570869564,-0.18297712491229176
1739555419940667400,8.02666748046875,0.14110650677978992,-0.7932996646791696,-0.339947701908648
1739555419950737400,8.0367373046875,0.17863690375089644,-0.8932163751974701,-0.4648625139527023
1739555419960807700,8.0468076171875,0.306174319383502,-0.9626990767464041,-0.5719489699698984
1739555419970877400,8.05687744140625,0.48152153393924235,-1.0663558505758644,-0.6610425270482897
1739555419980947500,8.066947509765624,0.7185106734156608,-1.1655331409037113,-0.672531450920552
1739555419991017500,8.077017578125,0.8668301803141831,-1.2129355280697345,-0.706869043199718
1739555420001087500,8.08708740234375,0.9543360298097133,-1.2372668362498283,-0.7735052692763507
1739555420011157500,8.097157470703126,0.9691723644137382,-1.2855088891103863,-0.7659479857645929
1739555420021227500,8.1072275390625,0.9643079732477664,-1.3284785545259714,-0.7851578592777252
1739555420031297500,8.117297607421875,0.9583172084003686,-1.3411913211047648,-0.8145172247529029
1739555420041367600,8.127367431640625,0.9838023627907038,-1.3462684782385825,-0.8023267284825444
1739555420051437300,8.137437255859375,1.045328552377224,-1.3713187483429907,-0.8198774366118013
1739555420061507600,8.147507568359375,1.0969003341823815,-1.477293443726003,-0.7758104774788022
1739555420071577600,8.15757763671875,1.0078016625374555,-1.6467638752028344,-0.7465268075883388
1739555420081647400,8.1676474609375,0.8579156369745731,-1.8109841310665011,-0.7403532335199415
1739555420091717400,8.17771728515625,0.5488064331829547,-1.92240160202533,-0.6726444097757339
1739555420101787600,8.18778759765625,0.046268999221920966,-2.001510794575512,-0.5960710193134844
1739555420111857400,8.197857421875,-0.4666910445541143,-2.0338807400435206,-0.5352488863430916
1739555420121927400,8.207927490234376,-0.9979197354704141,-1.9650366286590695,-0.48051732533276076
1739555420131997700,8.217997802734375,-1.5164526109427212,-1.8631822280764578,-0.44573783450499177
1739555420142067500,8.2280673828125,-1.8642314448684454,-1.8358306952923535,-0.31391148950681086
1739555420152137500,8.238137451171875,-2.1121277628064155,-1.9102967382118106,-0.04045300641953945
1739555420162207500,8.24820751953125,-2.2215847473472357,-1.9965017342418432,0.20802111140638588
1739555420172277500,8.258277587890625,-2.1583903322875497,-1.9807526687070727,0.3051097588919103
1739555420182347500,8.268347412109375,-2.1806161926209926,-1.9338795661121606,0.2539825059838593
1739555420192417300,8.278417236328124,-2.3698843805015084,-1.911255938632786,0.11410115708485245
1739555420202487600,8.288487548828124,-2.6333909400254485,-1.7896625260964034,-0.08378098375350236
1739555420212557600,8.2985576171875,-2.9903362462252376,-1.5148650494903324,-0.29565014889016744
1739555420222627300,8.30862744140625,-3.391895770177245,-1.0853881755650043,-0.4736505083031952
1739555420232697600,8.318697509765625,-3.635685237318277,-0.5843555932089686,-0.6112172966495156
1739555420242767600,8.328767578125,-3.744165485781431,-0.15431816279143093,-0.6555659953333437
1739555420252837400,8.33883740234375,-3.822622351902723,0.13345862237513065,-0.7224689095221459
1739555420262907400,8.348907470703125,-3.7865959297537803,0.2859907785326242,-0.9046217124395072
1739555420272977700,8.358977783203125,-3.610213526931405,0.34728666649460793,-0.97413933917135
1739555420283047400,8.36904736328125,-3.404907811963558,0.3186097303256392,-0.9336879401870072
1739555420293117400,8.379117431640625,-3.106379623419046,0.3866334652379155,-0.861874165342003
1739555420303187700,8.389187744140624,-2.660626737475395,0.6839481863394379,-0.7990700647741555
1739555420313257500,8.399257568359374,-1.9490911637693642,1.0650473983258009,-0.7273781627431511
1739555420323326500,8.409326416015626,-1.0499819311410188,1.3139979014918208,-0.5468968001693487
1739555420333396500,8.419396484375,-0.1976841340482235,1.384276429593563,-0.3228577431589365
1739555420343466200,8.42946630859375,0.4829565351784229,1.3547116046741603,-0.1553460445344448
1739555420353536300,8.439536376953125,1.050561776855588,1.3099974336788058,0.005806494321674108
1739555420363606500,8.4496064453125,1.3665765222519635,1.245779228529334,0.16730550852790474
1739555420373676300,8.45967626953125,1.4395733694016932,1.1612062176153064,0.3662463646389544
1739555420383746300,8.469746337890625,1.3128443475425242,1.1357523351460694,0.6114055126979947
1739555420393816600,8.479816650390624,1.0171697948634624,1.3032555582031606,0.7264383976750075
1739555420403886300,8.48988623046875,0.5303074844181538,1.6300465491577982,0.7219155134230851
1739555420413956400,8.499956298828126,-0.07681319056749343,1.9513710914000868,0.6478621429577469
1739555420424026400,8.5100263671875,-0.7153413957297802,2.122932065415382,0.5292153052672743
1739555420434096400,8.520096435546876,-1.2403344071269036,2.216125020636618,0.34150559887513515
1739555420444166400,8.53016650390625,-1.7162760951071976,2.3734572705522177,0.17564079067483543
1739555420454236200,8.540236083984375,-2.0159470239460466,2.4751751852735877,0.094899905269593
1739555420464306400,8.550306396484375,-2.0244962411046026,2.5366066823139786,0.03995207116007805
1739555420474376400,8.56037646484375,-1.825064971128106,2.533244804665446,0.09841215117424726
1739555420484446200,8.5704462890625,-1.36048463511765,2.453411389493942,0.24634645814746617
1739555420494516500,8.5805166015625,-0.805755241626501,2.3347961159855126,0.37618133706748486
1739555420504586500,8.59058642578125,-0.3171598237782717,2.2565686747059224,0.43612215715870256
1739555420514656300,8.60065625,0.05146832143068313,2.237962758435309,0.4423018687069416
1739555420524726300,8.610726318359376,0.27359073116481303,2.2101006457805634,0.4501959829576313
1739555420534796500,8.620796630859376,0.379521295145154,2.1182211112454534,0.4369860805116594
1739555420544866300,8.6308662109375,0.40829555420875546,2.00317551291734,0.3883192263677716
1739555420554936300,8.640936279296875,0.43255730428397654,1.911064215452969,0.3250169670194387
1739555420565006300,8.65100634765625,0.494942741048336,1.844733255933225,0.27339097080901265
1739555420575076400,8.661076416015625,0.556775220105052,1.7922455283269285,0.2645424784429371
1739555420585146400,8.671146484375,0.6600345190495253,1.7977654607921838,0.26988734660223124
1739555420595216400,8.68121630859375,0.827139390438795,1.8480068707764148,0.2692689224429428
1739555420605286400,8.691286376953125,1.0345873781323431,1.871041124883294,0.327543562887609
1739555420615356400,8.7013564453125,1.232403614127636,1.8415724538147449,0.43118762336596844
1739555420625426200,8.71142626953125,1.3711322858601809,1.7929089606717228,0.5471260788805783
1739555420635496400,8.721496337890626,1.4907131895303725,1.7547762138932943,0.6426935081481934
1739555420645566500,8.73156640625,1.5242255830317735,1.7239526210844516,0.6850009102627634
1739555420655636200,8.74163623046875,1.4771055199384688,1.7035101370364427,0.6704936614826321
1739555420665706500,8.75170654296875,1.4619740017801521,1.6990742004156112,0.5880509405955672
1739555420675776500,8.761776611328125,1.4661568404227494,1.7073808409899471,0.47705315635353324
1739555420685846300,8.77184619140625,1.5755045193701982,1.6554104152560234,0.40065205371826884
1739555420695916300,8.781916259765625,1.781511660605669,1.5189569949790835,0.4036436367496848
1739555420705986300,8.791986328125,1.985181298804283,1.3458382701277731,0.4392845667123794
1739555420716056300,8.802056396484375,2.1074258687257768,1.1619777865096925,0.44310719374045726
1739555420726126300,8.812126220703124,2.1200544641524552,1.0089648610979318,0.3755035839363932
1739555420736196400,8.8221962890625,2.0311399169027804,0.8728864116132259,0.3577817570239305
1739555420746266400,8.832266357421876,1.9221961425811052,0.7619999787911772,0.42139805075749753
1739555420756336400,8.84233642578125,1.815104133605957,0.6765449243456125,0.49228389710262416
1739555420766406400,8.852406494140626,1.6434446676522492,0.590479629047215,0.5579626763239502
1739555420776476400,8.862476318359375,1.5170418090075253,0.5072513107404113,0.6026312546119094
1739555420786546400,8.87254638671875,1.4088017990410326,0.4222966070324182,0.6284428644776344
1739555420796616200,8.8826162109375,1.2738982385545967,0.31007308038771153,0.6284453486956656
1739555420806686500,8.8926865234375,1.1986755320489406,0.12768617645353078,0.6032593233823776
1739555420816756200,8.902756103515625,1.1411550709724425,-0.0390937007650733,0.5664373669415712
1739555420826825500,8.912825439453124,1.0184668489366768,-0.22306787389069793,0.4885743750602007
1739555420836896500,8.922896484375,0.8764473189651966,-0.3696227092042565,0.44212928861901163
1739555420846965200,8.93296533203125,0.6918138051480054,-0.4633914184868336,0.40061961275339125
1739555420857035500,8.943035400390626,0.4282061233371496,-0.5351102085247635,0.39539237962439655
1739555420867105500,8.95310546875,0.28361060539782046,-0.594558422793448,0.4101435201629996
1739555420877175300,8.96317529296875,0.143290280559659,-0.6358493413418531,0.42736134307608004
1739555420887245300,8.973245361328125,0.03927577933371067,-0.711087537677586,0.4551940835058689
1739555420897315300,8.9833154296875,0.01037760162949562,-0.8266475152686238,0.4775605213537812
1739555420907385300,8.99338525390625,0.0011748889982700348,-0.9468217086568474,0.4942328392133116
1739555420917455400,9.003455322265625,0.04761982930898666,-1.0684665591195226,0.4512193346560001
1739555420927525400,9.013525390625,0.16099194146692752,-1.1614277514114975,0.3415262032717466
1739555420937595400,9.023595458984374,0.27248890740275383,-1.218386194691062,0.2208181952677667
1739555420947665400,9.03366552734375,0.3714414490640163,-1.298260818655789,0.11335983719825744
1739555420957735400,9.0437353515625,0.4722369882434606,-1.402418820005655,0.043718584086745976
1739555420967805400,9.053805419921876,0.503600094756484,-1.4774980263873934,-0.026664281172305345
1739555420977875500,9.06387548828125,0.4485778802365064,-1.509425781045854,-0.12465250784605741
1739555420987945200,9.0739453125,0.3636000879138708,-1.5300591114908455,-0.2075277749314904
1739555420998015500,9.084015380859375,0.27184359523653984,-1.5611545069783925,-0.24870310427621006
1739555421008085200,9.094085205078125,0.18154256206452846,-1.589322324581444,-0.27076705204620954
1739555421018155300,9.1041552734375,0.1464624808549881,-1.6027756803944706,-0.2590804136447608
1739555421028225500,9.1142255859375,0.14297873039245604,-1.6007950279712677,-0.24970073701143264
1739555421038295300,9.12429541015625,0.1806166793912649,-1.5928542980998754,-0.2775765859305858
1739555421048365300,9.134365234375,0.24267595294117927,-1.6080822623699902,-0.241834387550503
1739555421058435300,9.144435302734376,0.3341156347543001,-1.6347890675097703,-0.12430427893027662
1739555421068505300,9.15450537109375,0.44021278747320175,-1.6500985725834965,0.006437631832063198
1739555421078575400,9.164575439453126,0.4739028756290674,-1.614207467252016,0.03628711891174316
1739555421088645400,9.174645263671875,0.444015102365613,-1.5372285647287964,0.0849551420994103
1739555421098715400,9.18471533203125,0.26629531345963475,-1.5022265171915292,0.1476790170378983
1739555421108785400,9.194785400390625,-0.03649287061691284,-1.4744459453403949,0.23879487372413277
1739555421118855400,9.20485546875,-0.3494435522675514,-1.3661433915317058,0.35900574586093426
1739555421128925400,9.214925537109375,-0.6934142260819673,-1.2910542482778429,0.5595858936116099
1739555421138995500,9.224995361328125,-1.0035673859685659,-1.2394795438632369,0.8276515777446329
1739555421149065200,9.235065185546874,-1.298799455577135,-1.1888245846420527,1.038422426250577
1739555421159135200,9.24513525390625,-1.6706132450848816,-1.1919424244016408,1.2377063967108726
1739555421169205500,9.25520556640625,-2.009821819064021,-1.1941487022742627,1.3892770143598316
1739555421179275300,9.265275146484376,-2.454202247610688,-1.1481073743283747,1.4339299566872417
1739555421189345300,9.27534521484375,-2.9289702156364914,-1.115194992546737,1.4119984031252562
1739555421199415600,9.28541552734375,-3.378650504156947,-1.0889672030955553,1.356033647058159
1739555421209485300,9.2954853515625,-3.903237857362628,-1.0081450691476463,1.2361805023178458
1739555421219555300,9.305555419921875,-4.360964089694619,-0.8728165612474084,1.0533900590840726
1739555421229625300,9.315625244140625,-4.6688569034338,-0.7225792380288243,0.8535346454113721
1739555421239695400,9.3256953125,-4.7651586383253335,-0.5948080136403441,0.6156877931270748
1739555421249765400,9.335765380859375,-4.594920145085454,-0.4283250735417008,0.38759661118164657
1739555421259835400,9.34583544921875,-4.124378270322084,-0.2831666610226035,0.1702276065196842
1739555421269905400,9.355905517578124,-3.443967902719974,-0.17110241659283637,-0.03754201434366405
1739555421279975400,9.365975341796876,-2.764364175325632,-0.09545096328109502,-0.2408710954762995
1739555421290045200,9.376045166015626,-2.156594096520543,0.0281768776923418,-0.49214061617441474
1739555421300115500,9.386115478515626,-1.6594348484665153,0.24823271028548477,-0.7807823476072401
1739555421310185500,9.396185546875,-1.2504717702597379,0.5147720616340636,-1.0406527425859122
1739555421320259300,9.40625927734375,-0.8986392770290375,0.7907292296692728,-1.2284656901568174
1739555421330329000,9.4163291015625,-0.5686556275129317,1.068405768842995,-1.3650031354553998
1739555421340399400,9.4263994140625,-0.23817454986870287,1.366415486471355,-1.467351603165269
1739555421350469400,9.436469482421876,0.039704233878850935,1.663154745772481,-1.5274854616105555
1739555421360539100,9.4465390625,0.36398061166405676,1.8852540668919682,-1.5739464762732385
1739555421370609400,9.456609375,0.680210461115837,2.0674197292909025,-1.5789578746944666
1739555421380679200,9.46667919921875,1.0016559993892908,2.170432067736983,-1.5720957338400183
1739555421390749200,9.476749267578125,1.2816916689097881,2.250292078654468,-1.5835988323681056
1739555421400819200,9.486819091796875,1.5316688847750424,2.3071292336419225,-1.5992840388864278
1739555421410889200,9.49688916015625,1.7528028679937124,2.3417151015937328,-1.567429349464178
1739555421420958200,9.506958251953124,1.9113117604732512,2.3271347875773905,-1.457087983304262
1739555421431028200,9.5170283203125,2.004793177247047,2.2414918093442915,-1.2825544232189654
1739555421441098200,9.52709814453125,2.015634304735064,2.18348414927274,-1.0987791336663066
1739555421451168300,9.537168212890625,1.902003833901882,2.1397394078314305,-0.9178072110965847
1739555421461238300,9.54723828125,1.687300760513544,2.0765797718241807,-0.7398140120767056
1739555421471308300,9.557308349609375,1.4035071997642516,1.9764394816830753,-0.644198213622719
1739555421481378300,9.56737841796875,1.11447164670825,1.883792469906807,-0.5803643316157162
1739555421491448000,9.577447998046875,0.8250386187672615,1.8128297589331863,-0.5057026199936866
1739555421501518300,9.587518310546875,0.598624064797163,1.7463196434542536,-0.417173857191205
1739555421511588400,9.59758837890625,0.4803893150389194,1.7723834745153784,-0.37756957655549045
1739555421521658000,9.607658203125,0.44379766022264955,1.756120906500518,-0.2703622706376016
1739555421531728400,9.617728271484374,0.49566345653831956,1.6254960462465882,-0.08067541895359755
1739555421541798400,9.62779833984375,0.6794190184772014,1.4641811564356089,0.07119447390288114
1739555421551868200,9.6378681640625,1.0019950220853089,1.3195724867537617,0.13801497050523756
1739555421561938200,9.647938232421875,1.291169691351056,1.1498372668609023,0.1833231618709862
1739555421572008200,9.65800830078125,1.490380012053251,0.9769266318023204,0.16522110346928237
1739555421582078200,9.668078125,1.6362608936280012,0.8256149573504924,0.12556436199396848
1739555421592148200,9.678148193359375,1.7359920184463262,0.6453785094484686,0.11468027214705943
1739555421602218200,9.68821826171875,1.7359528554797172,0.4833353053629398,0.1356888656452298
1739555421612288300,9.698288330078125,1.6230752488404512,0.38611674788743255,0.19296222009286285
1739555421622358300,9.708358154296874,1.4331044656485319,0.36645693864971396,0.23854557513818142
1739555421632428300,9.71842822265625,1.275158467748761,0.39418519579172134,0.26824410943984983
1739555421642498300,9.728498291015624,1.1855816571980715,0.35155630663782356,0.30106501354575155
1739555421652568300,9.738568359375,1.0697352638810873,0.22765841655135152,0.31797114016115663
1739555421662638000,9.74863818359375,0.993348774293065,0.07541150707602501,0.2961062220945954
1739555421672708400,9.758708251953125,0.9245335967421531,-0.039731414146721364,0.2087375891126692
1739555421682778400,9.7687783203125,0.8905489095538854,-0.17363456541895866,0.08394216566458344
1739555421692848000,9.77884814453125,0.9066121556043625,-0.30628479402065273,-0.05803323290422559
1739555421702918400,9.78891845703125,0.9366770390003919,-0.4285997988298535,-0.1530000659301877
1739555421712988200,9.79898828125,1.072066921699047,-0.5477218528166413,-0.2757004167951643
1739555421723058200,9.80905810546875,1.2008300797343254,-0.6722016344442964,-0.37132951312214135
1739555421733128200,9.819128173828124,1.2363128965258599,-0.7855471508562565,-0.4317505179457366
1739555421743198200,9.8291982421875,1.2453490204185247,-0.8914283227369189,-0.46290115075185895
1739555421753268200,9.839268310546874,1.2550105827331541,-0.925595088493824,-0.4764662963762879
1739555421763338200,9.849338134765626,1.2274836933821438,-0.9438277875378728,-0.481314174798876
1739555421773408300,9.859408203125,1.2339707173138856,-0.9956661113247275,-0.46202992087528105
1739555421783478300,9.869478271484375,1.1642571296185253,-1.067126542687416,-0.4015463722094893
1739555421793548300,9.87954833984375,1.0187789836257695,-1.1471326840773224,-0.3216762782894075
1739555421803618300,9.889618408203125,0.8681161284714937,-1.2327882295310497,-0.27213541778996586
1739555421813688300,9.899688232421875,0.7024690546751022,-1.288284783564508,-0.3028442981779575
1739555421823758000,9.909758056640625,0.5657154824078082,-1.3481500542014837,-0.318538272524625
1739555421833827300,9.919827392578124,0.4673883791685104,-1.4403779637828469,-0.34233532769754527
1739555421843897300,9.9298974609375,0.37441725000441073,-1.5442556868866084,-0.3262185978941619
1739555421853967000,9.939967041015626,0.24204466930031776,-1.6425941883027553,-0.2980219925880432
1739555421864037400,9.950037353515626,0.020311551144719123,-1.707166613717377,-0.2950660653918981
1739555421874107400,9.960107421875,-0.2567389650851488,-1.6835601126804947,-0.2743567471012473
1739555421884177200,9.97017724609375,-0.5397849223375321,-1.601323728020489,-0.23025223243683576
1739555421894247200,9.9802470703125,-0.767407098531723,-1.5118351802751422,-0.16625965273678303
1739555421904317200,9.990317138671875,-0.9872872822970151,-1.4365163199186324,-0.06286240662634372
1739555421914387200,10.00038720703125,-1.1211790353924036,-1.4344512040823698,0.12150149646922945
1739555421924457200,10.010457275390625,-1.0527741922080516,-1.5173273479506373,0.4506638927303254
1739555421934527200,10.02052734375,-0.9928349795520305,-1.674139373384416,0.7525180108271539
1739555421944597200,10.03059716796875,-0.9865285728842019,-1.837431700748205,0.8992837124124169
1739555421954667300,10.040667236328124,-1.1120961497485637,-1.881059830072522,0.8536313837841153
1739555421964737300,10.0507373046875,-1.4079331995129585,-1.907591570906341,0.8167400153689086
1739555421974807300,10.060807373046876,-1.776395925027132,-1.9575632240384815,0.9618136722140014
1739555421984877300,10.070877197265625,-2.196232863947749,-1.9683938301324844,1.1139520067483186
1739555421994947000,10.080947021484375,-2.803184027585387,-1.7364815555289386,1.2126347915574907
1739555422005017300,10.091017333984375,-3.3338813881039617,-1.2182672444865106,1.1549930421888828
1739555422015087000,10.101087158203125,-3.8302860183984038,-0.6783291774138808,1.077274865605682
1739555422025157000,10.1111572265625,-4.275147508460283,-0.24448417140692472,1.1109063554421066
1739555422035227400,10.121227294921875,-4.5681420282751315,0.2434735330596566,1.0536373849086462
1739555422045297200,10.131297119140624,-4.740579492864012,0.8078697495624423,0.9241140561558305
1739555422055367200,10.1413671875,-4.586675463831424,1.3353867264792323,0.7330703830353915
1739555422065437400,10.1514375,-4.153206889921426,1.7402473378032446,0.48248920992761846
1739555422075507200,10.161507080078126,-3.549110531193018,2.0253224627956747,0.200235425966233
1739555422085577200,10.1715771484375,-2.782221903577447,2.1980913512960076,-0.12696063865795731
1739555422095647200,10.181647216796875,-1.9321078802645206,2.304374674236774,-0.4899617377653718
1739555422105717200,10.19171728515625,-1.0715689090490341,2.3411805563256145,-0.8089915931992232
1739555422115787300,10.201787353515625,-0.14378303251266478,2.3544106247767806,-1.0396472918704152
1739555422125857300,10.211857177734375,0.7497334946751594,2.3303198473542928,-1.1815364734604954
1739555422135927300,10.22192724609375,1.6321932057976722,2.255653313426673,-1.2475230034567415
1739555422145997300,10.231997314453125,2.3955934067755935,2.083002790609002,-1.2195920633494852
1739555422156066300,10.24206640625,2.9691724621653557,1.8818048032209276,-1.1518787095606327
1739555422166136300,10.25213623046875,3.3098359111279247,1.703104771105945,-1.1089707112044096
1739555422176206300,10.262206298828126,3.4534646298617124,1.5451716326877474,-1.004888843830675
1739555422186276000,10.272276123046876,3.3460569790661334,1.3270195878893136,-0.8507850544422865
1739555422196346400,10.282346435546875,2.9931548107773063,1.104044652979076,-0.7346097214318812
1739555422206416100,10.292416015625,2.59875567997396,0.9380041959509253,-0.6961746307060122
1739555422216486100,10.302486083984375,2.0727456004887816,0.8461302143737673,-0.7066989473298192
1739555422226556400,10.312556396484375,1.477068110537529,0.8726850438222289,-0.6896430369801819
1739555422236626200,10.322626220703125,0.8979559709399938,0.9523016013726592,-0.5191127211868762
1739555422246696200,10.3326962890625,0.32491467568874355,0.9853162744849919,-0.20929376169070601
1739555422256766200,10.34276611328125,-0.15092705904841422,1.005883553956449,0.060423050650209184
1739555422266836200,10.352836181640624,-0.5875052894115448,1.0855594404786824,0.3690671211481094
1739555422276906200,10.36290625,-0.9507125786155461,1.1820049677550792,0.742793612409383
1739555422286976300,10.372976318359376,-1.1937608720004558,1.2952359178766608,1.0572780794985592
1739555422297046300,10.38304638671875,-1.299375794160366,1.4664552388474343,1.3047447738476097
1739555422307116300,10.3931162109375,-1.2447095534712076,1.5955433910533785,1.4928398262955247
1739555422317183200,10.403183349609375,-1.0640221469312905,1.6638173013344406,1.6606407171249389
1739555422327253200,10.413253173828124,-0.7539666022002697,1.6388699070826171,1.7924603401213883
1739555422337323500,10.423323486328124,-0.3007055325835943,1.5555460194468498,1.7905642972417175
1739555422347393300,10.433393310546874,0.1951525697439909,1.405215172725916,1.7089377150431275
1739555422357463300,10.44346337890625,0.5661223096430301,1.1724214391127228,1.5952743648536503
1739555422367533300,10.453533203125,0.8655395559817552,0.9860729380711912,1.4339045299850404
1739555422377603300,10.463603271484375,1.1426824266701936,0.8720610667049884,1.2176561268508435
1739555422387673300,10.47367333984375,1.3621242190182208,0.7712240264713763,1.012959922083467
1739555422397743000,10.4837431640625,1.5512269872039555,0.6285930866032838,0.8968955021016299
1739555422407813400,10.4938134765625,1.6807663903087378,0.4473799026235938,0.8168903836250304
1739555422417883400,10.50388330078125,1.7641642199635506,0.2686450914561748,0.6861145705930888
1739555422427953200,10.513953125,1.7494681706130504,0.11707242798060179,0.504510195338726
1739555422438023400,10.5240234375,1.613198582470417,-0.016708558216691018,0.2705710910826921
1739555422448092200,10.534092041015626,1.4226269107758998,-0.14988573330193758,0.07158084287196398
1739555422458162400,10.544162353515626,1.2124953830868006,-0.26873160069584845,-0.10129223665520548
1739555422468232400,10.554232421875,0.9930278717756271,-0.3859460674956441,-0.20784020188152788
1739555422478302200,10.56430224609375,0.7784165683239698,-0.4463359465286135,-0.2837310169070959
1739555422488372200,10.574372314453125,0.5416097996771335,-0.4083861551016569,-0.38248014495074745
1739555422498442500,10.5844423828125,0.296118204793334,-0.37350481133460994,-0.43608533227965235
1739555422508512300,10.59451220703125,0.17143091789484022,-0.39894291171282525,-0.5218306018434464
1739555422518582300,10.604582275390625,0.10478431655466557,-0.4206985241860151,-0.6081935649141669
1739555422528652500,10.614652587890625,0.20388883390724657,-0.42375557366907596,-0.6777521081782877
1739555422538722300,10.624722412109374,0.3449678681582212,-0.4638096438989043,-0.729328273897618
1739555422548792300,10.634792236328124,0.5446095660150051,-0.521513644848764,-0.7191309972710908
1739555422558862300,10.6448623046875,0.7726566896229982,-0.565883824712038,-0.6996927218295633
1739555422568932400,10.654932373046876,0.8939210163354873,-0.6256891818553209,-0.6511931870765983
1739555422579002400,10.66500244140625,0.9953262118458748,-0.6850821588054299,-0.60327335190773
1739555422589072100,10.675072021484375,1.0681044478088617,-0.7254615154668689,-0.5539255297623574
1739555422599142400,10.685142333984375,1.0633224742293357,-0.7347215112432837,-0.4379568252399563
1739555422609212400,10.69521240234375,1.0647335100710391,-0.7687973838463426,-0.3471734153784811
1739555422619282200,10.7052822265625,1.0428671306997537,-0.817055511058867,-0.3098112145811319
1739555422629352400,10.7153525390625,1.0147054505765438,-0.850278566224873,-0.2516736445195973
1739555422639422500,10.72542236328125,0.9859393748193979,-0.9325596668094396,-0.20054683000296353
1739555422649492200,10.7354921875,0.9060808252066374,-1.0838260408148168,-0.174709062782675
1739555422659562200,10.745562255859374,0.7855588412940502,-1.2198919230788945,-0.17669804464280603
1739555422669632500,10.755632568359376,0.6614478929787874,-1.3093641042113304,-0.20021072991639374
1739555422679702300,10.765702392578126,0.4827338323384523,-1.3781991555064916,-0.19124723286852238
1739555422689772300,10.775772216796875,0.29597675049602984,-1.4290622045204042,-0.2066601983167231
1739555422699842300,10.78584228515625,0.05754384195208549,-1.445396376466751,-0.19933570064753292
1739555422709911300,10.795911376953125,-0.1990864020615816,-1.3906012487009167,-0.13584171811938284
1739555422719981300,10.805981201171875,-0.49227556766569613,-1.2924831120371818,-0.04622983625531196
1739555422730051300,10.81605126953125,-0.7630325367093086,-1.155904604075849,0.06576631137430668
1739555422740121300,10.826121337890624,-1.0716507421135901,-1.022192883722484,0.19412980256751178
1739555422750191000,10.836191162109374,-1.324187579333782,-0.9790236040815711,0.3593482756882906
1739555422760261400,10.846261474609374,-1.4692881241858005,-1.080741226541996,0.578181580749154
1739555422770331400,10.856331298828126,-1.5439952823847531,-1.2918074047327042,0.7258271339088678
1739555422780401200,10.866401123046876,-1.544441272586584,-1.4152575510516763,0.7172722176618873
1739555422790471400,10.876471435546875,-1.5449965683817863,-1.5390791610315442,0.5833201126813888
1739555422800541400,10.88654150390625,-1.61585991063416,-1.7404279550671578,0.43460780707299707
1739555422810611200,10.896611083984375,-1.8282950390905142,-1.9944719819799064,0.3425932479813695
1739555422820681200,10.90668115234375,-2.159828256136179,-2.14021550091058,0.20621859202906487
1739555422830751500,10.91675146484375,-2.7062925101071595,-2.050073457692563,0.03369001509062946
1739555422840821200,10.9268212890625,-3.1952216899544,-1.6440318198904393,-0.19945223969928919
1739555422850891300,10.936891357421874,-3.574798514679074,-0.9118611621737479,-0.4030082614555955
1739555422860961500,10.94696142578125,-3.8945693977385756,-0.13112199612110853,-0.30812749927788974
1739555422871031300,10.95703125,-3.85276673027575,0.5464066785648465,-0.06695522889792918
1739555422881101300,10.967101318359376,-3.5950977908641097,1.1799597256630658,0.1901204207956791
1739555422891171300,10.97717138671875,-3.0669699885725974,1.705462147887051,0.4648033311113715
1739555422901241300,10.987241455078125,-2.382026653715968,2.0582994342461225,0.6433471497513353
1739555422911311400,10.997311279296875,-1.6133692628622054,2.2825039109513163,0.6613634295657277
1739555422921381000,11.007381103515625,-0.7971504948884248,2.3762696976244446,0.5821783953003585
1739555422931451400,11.017451416015625,-0.01729015749692917,2.244642674590647,0.41391295569911596
1739555422941521400,11.027521484375,0.6558294685751199,1.9683619736894964,0.17376052988618612
1739555422951590400,11.03759033203125,1.1794704808413983,1.720845010457933,-0.07545096230357885
1739555422961660400,11.047660400390624,1.6222691931545734,1.5287033129677177,-0.22797201254516838
1739555422971730200,11.057730224609376,1.9928625009566545,1.350575527782738,-0.36678763190880415
1739555422981800200,11.06780029296875,2.2739129004776477,1.1303177428767084,-0.5282062743552028
1739555422991870500,11.077870361328126,2.465161448520422,0.9513803948745131,-0.7722294041216373
1739555423001940200,11.087940185546875,2.5338795954376456,0.8065452229604124,-1.0984675834991038
1739555423012010200,11.09801025390625,2.3319097468942402,0.6894134660080075,-1.4295407818175851
1739555423022080500,11.10808056640625,1.8463900832295417,0.6556818767979741,-1.6264667909748851
1739555423032150300,11.118150390625,1.121696921786666,0.7521770884349942,-1.5661412093497813
1739555423042220300,11.12822021484375,0.433863710707426,1.0676125726386905,-1.4704644744887947
1739555423052290600,11.13829052734375,-0.09853694659769534,1.62476539388448,-1.3749410304933785
1739555423062360300,11.1483603515625,-0.38378421328663825,2.123122911812365,-1.1340094370014966
1739555423072430300,11.158430419921874,-0.44361470487117766,2.483031743992865,-0.7075611171171069
1739555423082500000,11.1685,-0.3499544243991375,2.6085046283110973,-0.1128404894992709
1739555423092570400,11.1785703125,-0.07744155159890652,2.4894722984343765,0.47374870798066254
1739555423102640400,11.188640380859376,0.28173370561003686,2.2796458911716937,0.8912045969836413
1739555423112710100,11.198710205078125,0.650001200813055,2.006875536479056,0.9646896660417318
1739555423122780400,11.208780517578125,0.9751222127288579,1.556489145515859,0.8166447383008897
1739555423132850400,11.218850341796875,1.2212000830680132,1.0692162084430457,0.6684466658249497
1739555423142920200,11.228920166015625,1.4383978958815336,0.754064801877737,0.4252500500105321
1739555423152990500,11.238990478515625,1.5565747779726982,0.49054158347994087,0.11216083667203783
1739555423163060500,11.249060546875,1.6077894169032574,0.20340601882636547,-0.13675517970249057
1739555423173129200,11.259129150390624,1.6218302172154186,-0.08363514554202556,-0.33785175254270433
1739555423183199500,11.269199462890626,1.5933143168270587,-0.30182810687273737,-0.48200756389051674
1739555423193269200,11.279269287109376,1.4473685533225535,-0.46636575812250375,-0.5750231167182326
1739555423203339300,11.28933935546875,1.185121638470888,-0.5666051247239112,-0.6581266396015882
1739555423213409500,11.299409423828125,0.8070844444036483,-0.6667346012100577,-0.6595315379634499
1739555423223479300,11.309479248046875,0.39207448724806304,-0.7106333641692996,-0.55851782598868
1739555423233549300,11.31954931640625,0.00965045639872551,-0.6949819137901068,-0.4484096840627491
1739555423243619300,11.329619384765625,-0.3205038735091686,-0.6291770239710808,-0.30338936484009027
1739555423253689300,11.339689453125,-0.4738163663893938,-0.5646724030956626,-0.18211217864602802
1739555423263759400,11.34975927734375,-0.4716682484447956,-0.5674672945111989,-0.016133096416294575
1739555423273829000,11.3598291015625,-0.4274263711363077,-0.6277054901137947,0.15667963122576475
1739555423283899400,11.3698994140625,-0.30865912193655964,-0.706376583507657,0.32088410499840975
1739555423293969400,11.379969482421876,-0.1500134513348341,-0.7932245536163449,0.37501828463748094
1739555423304039200,11.3900390625,0.010425532424449921,-0.8257093576356768,0.2857913104377687
1739555423314109400,11.400109375,0.14687339974343777,-0.835162830157578,0.14707447527348994
1739555423324179200,11.41017919921875,0.25978549317419525,-0.8010805278137326,0.0016018822386860846
1739555423334249000,11.4202490234375,0.3175958771079779,-0.7416036719724536,-0.11435367054119705
1739555423344319200,11.4303193359375,0.3134188836842775,-0.6846843916594981,-0.1398924548149109
1739555423354389200,11.44038916015625,0.1768704786002636,-0.6482134406134485,-0.1659685608357191
1739555423364459000,11.450458984375,0.12527297783195973,-0.5828577558666468,-0.21758871182724832
1739555423374529000,11.460529052734374,0.2009247234046459,-0.46465457029044627,-0.31174028294757006
1739555423384598000,11.470597900390626,0.3316629809051752,-0.4135059823334217,-0.3315576208345592
1739555423394668000,11.48066796875,0.4747738132447004,-0.47592502910643814,-0.25596301227658985
1739555423404738300,11.49073828125,0.6470481962263583,-0.5978720773860812,-0.17861045413538812
1739555423414808000,11.50080810546875,0.7642991956442594,-0.6942255424648522,-0.20295316049233078
1739555423424878000,11.510878173828125,0.7727280012935399,-0.7334893390998244,-0.26830080806314943
1739555423434948000,11.520947998046875,0.7382739430278539,-0.7169573064938187,-0.3642936231359839
1739555423445018000,11.53101806640625,0.6387824721843004,-0.7118117602989077,-0.4263961513057351
1739555423455088000,11.541088134765625,0.5403484014391898,-0.7200617022499441,-0.4649176051408052
1739555423465158100,11.551158203125,0.46776422674357887,-0.737962392860651,-0.5150542395763099
1739555423475228200,11.561228271484374,0.32718671227395535,-0.7711769724592566,-0.5229080218166112
1739555423485298200,11.571298095703124,0.19398644857406616,-0.8173001334697008,-0.4341739457003772
1739555423495368000,11.581367919921876,0.0661047495484352,-0.8301374032109975,-0.32715719391852616
1739555423505438200,11.591438232421876,-0.07010697092711925,-0.782741153524816,-0.24577362669557332
1739555423515508200,11.60150830078125,-0.13896949475109577,-0.714295393808186,-0.13909560534879564
1739555423525578000,11.611577880859375,-0.16280629741251468,-0.7244847793892025,0.04903481067344546
1739555423535648000,11.62164794921875,-0.05376081628203392,-0.8709422918081283,0.3233183464080095
1739555423545718300,11.63171826171875,-0.01974222682416439,-1.08420276517272,0.5540167151771486
1739555423555788000,11.6417880859375,-0.1361842479467392,-1.3035191775754094,0.677880118472129
1739555423565858000,11.651858154296875,-0.3087514763951301,-1.559407955572009,0.7173721709050238
1739555423575928300,11.66192822265625,-0.5966279225438833,-1.8171236567348241,0.6420772759459913
1739555423585997000,11.6719970703125,-1.212828560563922,-1.9385256383523344,0.49135918347313995
1739555423596067000,11.682067138671876,-1.9592571684747933,-1.958880736377835,0.262923937330395
1739555423606137000,11.69213720703125,-2.7669688048660754,-1.7589067378267644,0.08082023425176739
1739555423616207000,11.70220703125,-3.6379081740647554,-1.3820388797998429,0.09639555065482855
1739555423626277000,11.712277099609375,-4.427228998240828,-0.9152981508851051,0.21649580202400684
1739555423636347100,11.72234716796875,-4.826348143303394,-0.2856701682761311,0.27890169705450535
1739555423646417200,11.732417236328125,-4.817964930361509,0.35916911972910165,0.29192513701766726
1739555423656487200,11.742487060546875,-4.63308474830687,0.7408329798609018,0.3262204975903034
1739555423666557200,11.75255712890625,-4.162523584321141,0.9720639942020177,0.3143776457138359
1739555423676627200,11.762627197265624,-3.4818647949159143,1.1314379790782927,0.2327808741316199
1739555423686697000,11.772697021484374,-2.6951620442837476,1.2955287633433936,-0.02177899334877729
1739555423696767000,11.78276708984375,-1.8166338273912668,1.4448378658011556,-0.38626097866371273
1739555423706837200,11.792837158203126,-1.007953638228774,1.4969561755731702,-0.6136797412402928
1739555423716907000,11.802906982421876,-0.21738076816499233,1.5152169316679238,-0.7755088641837239
1739555423726977000,11.81297705078125,0.5254360789895057,1.5323001684159039,-0.8864934966832398
1739555423737047300,11.82304736328125,1.2087123574167489,1.5720008951634168,-0.956997942495346
1739555423747117000,11.833116943359375,1.8011691317558287,1.5997455189183354,-0.9549231820479035
1739555423757187000,11.84318701171875,2.230394076746702,1.5830255625247955,-0.9021757805921137
1739555423767257000,11.853257080078125,2.520016489779949,1.5897659766957164,-0.7834449178799986
1739555423777327000,11.8633271484375,2.58603589913249,1.5296192587688564,-0.49932767813429235
1739555423787396000,11.87339599609375,2.485545480379462,1.4045184226334093,-0.17800766593664882
1739555423797466000,11.883466064453126,2.287678390979767,1.3726643177330493,0.01301423374339938
1739555423807536000,11.8935361328125,1.8895739759176968,1.4610560101523995,0.10881123398318886
1739555423817606100,11.903606201171876,1.3546493530929087,1.5833207460790872,0.07315452192947268
1739555423827676200,11.91367626953125,0.7828080812811851,1.6298343677118419,0.08433496437445283
1739555423837746200,11.92374609375,0.19871406161785124,1.6017618271768093,0.24133579037860034
1739555423847816200,11.933816162109375,-0.3221720989823341,1.6787512510940432,0.31068565932810305
1739555423857886000,11.943885986328125,-0.7382499776303768,1.7429536741524934,0.30795155818909403
1739555423867956200,11.953956298828125,-0.9370108009994029,1.653284509143233,0.2911024224579334
1739555423878026000,11.96402587890625,-0.9683785836875438,1.5587641047105192,0.2721120369143784
1739555423888096000,11.974095947265624,-1.027329369828105,1.4742285031974314,0.30633535516411065
1739555423898166300,11.984166259765624,-1.0317653064489365,1.3664187013417481,0.35692119467183947
1739555423908236000,11.994236083984376,-0.9709270991265774,1.3046788690045474,0.44714331738874313
1739555423918306000,12.00430615234375,-0.8580839792788029,1.265533438052237,0.5871490233197808
1739555423928376300,12.014376220703125,-0.6741191585034132,1.2537307720556854,0.7110192947469651
1739555423938446000,12.024446044921875,-0.47539106836020945,1.2446686369389295,0.8240905242621899
1739555423948516000,12.03451611328125,-0.24890578724145887,1.2016650692537427,0.8543008074782789
1739555423958586000,12.044586181640625,-0.006329787543416023,1.1114438233196735,0.8044017811909318
1739555423968655000,12.054655029296875,0.1885083094239235,1.0177668839737772,0.6520801990441978
1739555423978725000,12.06472509765625,0.2512994043797254,1.0866259006664156,0.2065022312760353
1739555423988795100,12.074795166015624,0.11146481723189353,1.2898761444091795,-0.18559154519438742
1739555423998865200,12.084865234375,0.7069377245217562,0.6362403864860534,0.6072166827060281
1739555424008935200,12.09493505859375,0.7761264115601778,0.3095829587832093,0.48515302230939267
1739555424019005200,12.105005126953126,0.966779916319251,0.6636898266866803,0.13126535011455415
1739555424029075200,12.1150751953125,1.1799778458416461,0.987294881081581,-0.0902303060233593
1739555424039145200,12.125145263671875,1.2847586552649735,0.8733613356485962,-0.18483517386913298
1739555424049215000,12.135215087890625,1.2427449753999709,0.6071662676930427,-0.1987671069793403
1739555424059285200,12.14528515625,1.1485609633147715,0.46009588407278057,-0.2123059491187334
1739555424069355000,12.15535498046875,1.0378221222698687,0.4437918150037527,-0.2576261231832206
1739555424079425000,12.165425048828125,0.9215484434515238,0.4305927262127399,-0.29878523204550145
1739555424089495300,12.175495361328124,0.7426613643318414,0.40138387512415646,-0.3230962280899286
1739555424099565000,12.18556494140625,0.6375269191652536,0.4182905862614512,-0.3166103732019663
1739555424109635000,12.195635009765626,0.5591682527214289,0.43397856925874945,-0.3539915709607303
1739555424119705000,12.205705078125,0.4172100975483656,0.44614773048013445,-0.3631482524931431
1739555424129775000,12.215775146484376,0.3760866445213556,0.442774746915698,-0.30175621068030595
1739555424139845000,12.22584521484375,0.368644511821866,0.45829497213065623,-0.20344635083675383
1739555424149915100,12.2359150390625,0.4009907841533422,0.5119643107369541,-0.10629369820430874
1739555424159984000,12.245984130859375,0.47733226555585856,0.5001005622029304,0.004455225843191146
1739555424170054100,12.25605419921875,0.6181769065290689,0.41938861063122745,0.12416750080808997
1739555424180124200,12.266124267578125,0.801674694314599,0.2913666263520717,0.19554025388732552
1739555424190194200,12.276194091796874,0.9105337129622697,0.1571606927409768,0.17222177601158617
1739555424200264200,12.28626416015625,0.9188543820619582,0.03410392965376377,0.1254119479112327
1739555424210334000,12.296333984375,0.9230746301054954,-0.05065174435079097,0.0997808091789484
1739555424220404200,12.306404296875,0.868788913166523,-0.0629810645699501,0.0833687496908009
1739555424230474200,12.31647412109375,0.7706827592015266,-0.042110125976800916,0.11683306626677513
1739555424240544000,12.3265439453125,0.6935831529080867,-0.031659751372039316,0.20402152037620544
1739555424250614300,12.3366142578125,0.616670009097457,-0.08241057218313216,0.33483971124514933
1739555424260684000,12.34668408203125,0.5809937155604362,-0.15638415541052816,0.4379628165893256
1739555424270754000,12.356754150390625,0.6244891584157943,-0.24259528892040252,0.48289077646583317
1739555424280824000,12.366823974609375,0.6950245838880539,-0.3300385945737362,0.4470883723311126
1739555424290894000,12.37689404296875,0.6902467019617557,-0.45634617615044115,0.3915155381910503
1739555424300964000,12.386964111328124,0.6636895344257354,-0.6605506518781185,0.374649889716506
1739555424311034000,12.3970341796875,0.6147276428580284,-0.8231289857536553,0.3727058429766446
1739555424321104000,12.407103759765626,0.4932470430463552,-0.9093734370112418,0.3338889133263379
1739555424331172900,12.4171728515625,0.3155985658109188,-0.971022960716486,0.332498847207427
1739555424341243000,12.427242919921875,0.08062544233202934,-1.0498621041536331,0.38499673088155684
1739555424351313000,12.43731298828125,-0.19355565594136714,-1.1044020881146193,0.45074828307814896
1739555424361383000,12.4473828125,-0.43908875187933444,-1.1345257159605622,0.4820782910391688
1739555424371453000,12.457452880859375,-0.6802922941803932,-1.143615908128023,0.5012614957410841
1739555424381523000,12.46752294921875,-0.9068810356736182,-1.14786450548321,0.5090483502250165
1739555424391593000,12.477593017578124,-1.1070634162783621,-1.1979331892490386,0.5230252915207296
1739555424401662700,12.487662841796874,-1.1988415362656115,-1.3208403147324919,0.587322407125309
1739555424411733000,12.49773291015625,-1.2221844179302452,-1.5340926047906278,0.7107509261343627
1739555424421802800,12.507802734375,-1.2161118200182914,-1.7136702965229749,0.8228584251839667
1739555424431872800,12.517872802734376,-1.2934756302058696,-1.8098121646776795,0.8433375149153173
1739555424441943000,12.527943115234375,-1.4335335047155617,-1.8944550259575246,0.8497117261223495
1739555424452012800,12.5380126953125,-1.7052397373080252,-1.9786419601634144,0.8456965721968561
