time,seconds_elapsed,z,y,x
1739555411945134600,0.031134521484375,0.02474495768547058,0.007830670103430748,0.0017506210133433342
1739555411955203800,0.041203857421875,0.009192364290356636,0.033140022307634354,-0.00883784145116806
1739555411965273600,0.051273681640625,-0.009742412716150284,0.079921655356884,-0.012165472842752934
1739555411975343600,0.061343505859375,-0.025044670328497887,0.1212717592716217,-0.012936989776790142
1739555411985414000,0.071413818359375,-0.029820641502738,0.12127529829740524,-0.032741084694862366
1739555411995483600,0.081483642578125,-0.02200266532599926,0.10836455225944519,-0.045791372656822205
1739555412005553700,0.0915537109375,-0.013745582662522793,0.09405403584241867,-0.06031997501850128
1739555412015622700,0.10162255859375,-0.0037504727952182293,0.04820265620946884,-0.0733092725276947
1739555412025692700,0.111692626953125,-0.008820129558444023,0.005349029786884785,-0.07211755961179733
1739555412035762700,0.1217626953125,-0.005693844519555569,0.01823473535478115,-0.06735769659280777
1739555412045832700,0.131832763671875,0.0002568168565630913,0.012751465663313866,-0.07027408480644226
1739555412055902700,0.14190283203125,0.002457386814057827,0.002309211064130068,-0.07265068590641022
1739555412065971700,0.1519716796875,0.008188243955373764,0.0010229041799902916,-0.05580832064151764
1739555412076041700,0.162041748046875,0.008616745471954346,0.005407798569649458,-0.03613848239183426
1739555412086111700,0.17211181640625,0.007441555615514517,0.002720965538173914,-0.02291044220328331
1739555412096181500,0.182181396484375,0.019850287586450577,0.02374342642724514,-0.02688121795654297
1739555412106251800,0.192251708984375,0.03698248043656349,0.028119973838329315,-0.042536430060863495
1739555412116321800,0.20232177734375,0.055530864745378494,0.022631730884313583,-0.06392773985862732
1739555412126390800,0.212390869140625,0.06182470917701721,0.020891889929771423,-0.07515668869018555
1739555412136460800,0.222460693359375,0.05771385878324509,0.016575969755649567,-0.07666376978158951
1739555412146530600,0.232530517578125,0.05180256441235542,0.004698066506534815,-0.08266843110322952
1739555412156600800,0.242600830078125,0.04563175514340401,-0.009894192218780518,-0.08792711049318314
1739555412166670800,0.2526708984375,0.03364047780632973,-0.024001285433769226,-0.09546728432178497
1739555412176740600,0.26274072265625,0.016742456704378128,-0.017615024000406265,-0.10031849890947342
1739555412186809900,0.272809814453125,0.016826314851641655,0.006042611785233021,-0.10004458576440811
1739555412196879600,0.282879638671875,0.030740000307559967,0.022696688771247864,-0.08091004192829132
1739555412206949600,0.29294970703125,0.03859502449631691,0.02417609840631485,-0.05370732396841049
1739555412217020000,0.30302001953125,0.04649689048528671,0.03282950818538666,-0.03202972561120987
1739555412227089700,0.313089599609375,0.05955858528614044,0.035143639892339706,-0.024200081825256348
1739555412237158700,0.32315869140625,0.06913691014051437,0.017258651554584503,-0.04063444957137108
1739555412247228700,0.333228759765625,0.065580353140831,0.014113903976976871,-0.06432349234819412
1739555412257298700,0.343298583984375,0.060770951211452484,0.013833739794790745,-0.09906788915395737
1739555412267368700,0.35336865234375,0.05916368216276169,-0.0006706612184643745,-0.12852537631988525
1739555412277438700,0.363438720703125,0.06053201109170914,-0.024275321513414383,-0.14598292112350464
1739555412287508700,0.3735087890625,0.06155579909682274,-0.042747512459754944,-0.14419715106487274
1739555412297577700,0.38357763671875,0.05898505076766014,-0.05408618599176407,-0.11896529793739319
1739555412307648000,0.39364794921875,0.05748095363378525,-0.06683231145143509,-0.08860009163618088
1739555412317717800,0.4037177734375,0.05057751014828682,-0.07872331887483597,-0.05441921949386597
1739555412327787800,0.413787841796875,0.03791867941617966,-0.10459700971841812,-0.030529320240020752
1739555412337857800,0.42385791015625,0.032779574394226074,-0.12797929346561432,-0.016452118754386902
1739555412347926800,0.4339267578125,0.040855344384908676,-0.14455215632915497,-0.007085780613124371
1739555412357997000,0.4439970703125,0.040319785475730896,-0.14586269855499268,-0.005135281942784786
1739555412368066800,0.45406689453125,0.03704532980918884,-0.1146899089217186,-0.013191322796046734
1739555412378136800,0.46413671875,0.034713465720415115,-0.07133710384368896,-0.026288215070962906
1739555412388206800,0.474206787109375,0.028356049209833145,-0.009880497120320797,-0.04940240830183029
1739555412398276900,0.48427685546875,0.02556585520505905,0.04784218966960907,-0.07437194138765335
1739555412408345900,0.494345947265625,0.018918747082352638,0.06929921358823776,-0.09700983762741089
1739555412418415900,0.504415771484375,0.01911555416882038,0.04894014820456505,-0.1113608106970787
1739555412428486000,0.51448583984375,0.02096584066748619,-0.0027061770670115948,-0.10210491716861725
1739555412438555600,0.5245556640625,0.022190362215042114,-0.044656556099653244,-0.08188114315271378
1739555412448626000,0.5346259765625,0.023652389645576477,-0.08034839481115341,-0.053957678377628326
1739555412458696000,0.544696044921875,0.016917254775762558,-0.07667456567287445,-0.03629719465970993
1739555412468764700,0.5547646484375,0.014628957957029343,-0.04694894701242447,-0.033953987061977386
1739555412478835000,0.5648349609375,0.007959602400660515,-0.009988001547753811,-0.03817243501543999
1739555412488904700,0.57490478515625,-0.0012988296803086996,0.023588892072439194,-0.05013003572821617
1739555412498974700,0.584974609375,-0.0043931566178798676,0.07121393829584122,-0.06083674356341362
1739555412509045000,0.595044921875,0.004820017609745264,0.08848025649785995,-0.07101813703775406
1739555412519114800,0.60511474609375,0.004453832749277353,0.08836520463228226,-0.07188019901514053
1739555412529183700,0.615183837890625,-0.00022972701117396355,0.07956646382808685,-0.06906314194202423
1739555412539253800,0.625253662109375,-0.007727590389549732,0.0642213299870491,-0.061260342597961426
1739555412549323800,0.63532373046875,-0.013053365051746368,0.02936854586005211,-0.05224302038550377
1739555412559393800,0.645393798828125,-0.005395178217440844,0.0009795152582228184,-0.045120660215616226
1739555412569463800,0.6554638671875,0.01016145758330822,-0.03289560228586197,-0.04374515265226364
1739555412579533800,0.665533935546875,0.021560585126280785,-0.08360271900892258,-0.04077812284231186
1739555412589602800,0.675602783203125,0.020274028182029724,-0.11564814299345016,-0.03827536106109619
1739555412599672800,0.6856728515625,0.01151941902935505,-0.09715355187654495,-0.042616575956344604
1739555412609742800,0.695742919921875,0.009880932979285717,-0.05454462021589279,-0.060129761695861816
1739555412619812600,0.7058125,0.012539833784103394,-0.02570071816444397,-0.07677211612462997
1739555412629883000,0.7158828125,0.012293536216020584,-0.012185554951429367,-0.08669500052928925
1739555412639952000,0.725951904296875,0.008174693211913109,-0.02422890067100525,-0.08803750574588776
1739555412650022000,0.73602197265625,0.009889688342809677,-0.05506421625614166,-0.0736791118979454
1739555412660092000,0.746091796875,0.013487087562680244,-0.08200288563966751,-0.04931677505373955
1739555412670161700,0.75616162109375,0.017892975360155106,-0.10099697858095169,-0.026938963681459427
1739555412680232000,0.76623193359375,0.021868541836738586,-0.13046246767044067,-0.025226816534996033
1739555412690302000,0.776302001953125,0.030751219019293785,-0.10588416457176208,-0.026587679982185364
1739555412700370700,0.78637060546875,0.033699601888656616,-0.050684019923210144,-0.026211906224489212
1739555412710441000,0.79644091796875,0.02379300445318222,-0.04074319452047348,-0.017964527010917664
1739555412720510700,0.8065107421875,0.013300416059792042,-0.03196648135781288,0.001017419621348381
1739555412730580700,0.816580810546875,0.02134341187775135,0.014100873842835426,0.02030417136847973
1739555412740651000,0.826651123046875,0.02820850908756256,0.02152123861014843,0.02229621633887291
1739555412750720800,0.836720703125,0.03316626697778702,0.0016098548658192158,0.005916571244597435
1739555412760789800,0.846789794921875,0.03618975356221199,0.012679817155003548,-0.013419576920568943
1739555412770859800,0.85685986328125,0.031094685196876526,0.004154819995164871,-0.03775263577699661
1739555412780929800,0.8669296875,0.022561386227607727,-0.03298269584774971,-0.06185556948184967
1739555412790999800,0.876999755859375,0.015950292348861694,-0.051268257200717926,-0.06167193129658699
1739555412801069800,0.88706982421875,0.016381191089749336,-0.040189772844314575,-0.044063642621040344
1739555412811139800,0.897139892578125,0.02445407770574093,-0.04527905210852623,-0.011529942974448204
1739555412821209900,0.9072099609375,0.020517926663160324,-0.07797548174858093,0.020611748099327087
1739555412831278800,0.91727880859375,0.026574376970529556,-0.09745123237371445,0.042955830693244934
1739555412841348900,0.927348876953125,0.03139816224575043,-0.07501436769962311,0.05377145856618881
1739555412851418600,0.937418701171875,0.024451885372400284,-0.02828877791762352,0.043382517993450165
1739555412861489000,0.947489013671875,0.008106201887130737,0.019381804391741753,0.014435823075473309
1739555412871559000,0.957558837890625,-0.00002796947956085205,0.024898769333958626,-0.013200044631958008
1739555412881628700,0.967628662109375,-0.0006162617355585098,-0.017058001831173897,-0.03240755945444107
1739555412891698000,0.977697998046875,0.00606740964576602,-0.051224395632743835,-0.02073563262820244
1739555412901767700,0.987767578125,0.003980822395533323,-0.07186868041753769,0.01203908957540989
1739555412911837700,0.997837646484375,0.010763581842184067,-0.0762108638882637,0.04376166686415672
1739555412921908000,1.007907958984375,0.021535003557801247,-0.061107538640499115,0.06538573652505875
1739555412931977700,1.017977783203125,0.03315238654613495,-0.03398090973496437,0.07556916773319244
1739555412942047700,1.0280478515625,0.04024438187479973,-0.012349383905529976,0.07950132340192795
1739555412952116700,1.03811669921875,0.04695943370461464,0.031045038253068924,0.07896319031715393
1739555412962186800,1.048186767578125,0.04854321479797363,0.06258086115121841,0.07350850850343704
1739555412972257000,1.058257080078125,0.05448742210865021,0.056593816727399826,0.05895286798477173
1739555412982326800,1.068326904296875,0.05101678892970085,0.03570638224482536,0.03946492075920105
1739555412992396800,1.078396728515625,0.03714602813124657,0.023730698972940445,0.017019525170326233
1739555413002466800,1.088466796875,0.017645297572016716,0.010144049301743507,-0.01097881980240345
1739555413012535800,1.098535888671875,0.0017033503390848637,-0.015892205759882927,-0.02786959335207939
1739555413022605800,1.108605712890625,-0.0020634247921407223,-0.027422627434134483,-0.021526210010051727
1739555413032675800,1.11867578125,0.005597250536084175,-0.023853950202465057,0.00452960841357708
1739555413042745900,1.128745849609375,0.014419504441320896,-0.007175104692578316,0.03473331779241562
1739555413052816000,1.13881591796875,0.012553741224110126,-0.013940438628196716,0.05525914952158928
1739555413062886000,1.148885986328125,0.016431570053100586,-0.008887888863682747,0.05658913031220436
1739555413072956000,1.158955810546875,0.018026523292064667,0.037823282182216644,0.05032024905085564
1739555413083024600,1.169024658203125,0.017885642126202583,0.07517065852880478,0.025272155180573463
1739555413093095000,1.179094970703125,0.014406958594918251,0.06609883904457092,-0.009269693866372108
1739555413103165000,1.1891650390625,0.01734788715839386,0.03679899871349335,-0.026888633146882057
1739555413113234700,1.199234619140625,0.01909521594643593,0.011950653046369553,-0.03759307786822319
1739555413123305000,1.209304931640625,0.014409651048481464,-0.024751702323555946,-0.044068023562431335
1739555413133375000,1.219375,0.006025894079357386,-0.05436798185110092,-0.042536936700344086
1739555413143444700,1.22944482421875,0.003910811152309179,-0.06780895590782166,-0.0298155490309
1739555413153514000,1.239513916015625,-0.0035011875443160534,-0.054323047399520874,-0.017331548035144806
1739555413163583700,1.249583740234375,-0.015001783147454262,-0.030815057456493378,-0.01633179932832718
1739555413173653800,1.25965380859375,-0.02013806439936161,-0.015966391190886497,-0.020606014877557755
1739555413183724000,1.26972412109375,-0.013764853589236736,-0.003047662554308772,-0.023986365646123886
1739555413193793800,1.279793701171875,-0.0062926351092755795,-0.004768639802932739,-0.03075582906603813
1739555413203863800,1.28986376953125,-0.009173642843961716,-0.002178449183702469,-0.04920753836631775
1739555413213933800,1.299933837890625,-0.021397318691015244,-0.002692854730412364,-0.06712068617343903
1739555413224002800,1.3100029296875,-0.03732701390981674,0.0007519442588090897,-0.08095794171094894
1739555413234072800,1.32007275390625,-0.043774526566267014,0.018223877996206284,-0.08939563482999802
1739555413244142800,1.330142822265625,-0.037111565470695496,0.03361188992857933,-0.07704629004001617
1739555413254212900,1.340212890625,-0.020940616726875305,0.03341493010520935,-0.052369896322488785
1739555413264283000,1.350282958984375,-0.0057744476944208145,0.019606973975896835,-0.02785176783800125
1739555413274353000,1.360352783203125,0.005206143017858267,0.016101114451885223,-0.006992124952375889
1739555413284423000,1.3704228515625,0.017009539529681206,0.0010140417143702507,0.007102387957274914
1739555413294491600,1.38049169921875,0.030416347086429596,-0.011731622740626335,0.011998901143670082
1739555413304562000,1.39056201171875,0.030951905995607376,-0.019134946167469025,0.01475846953690052
1739555413314631700,1.400631591796875,0.015322281047701836,-0.01761365681886673,0.0046089887619018555
1739555413324701700,1.41070166015625,0.004713579546660185,0.003956616390496492,-0.007490550167858601
1739555413334771700,1.420771728515625,0.0002815788611769676,0.01242535188794136,-0.020251961424946785
1739555413344841700,1.430841796875,0.004165799356997013,0.02583649754524231,-0.023392627015709877
1739555413354911700,1.440911865234375,0.01251239888370037,0.0437740832567215,-0.023808680474758148
1739555413364980700,1.450980712890625,0.01954127848148346,0.03910955786705017,-0.017281539738178253
1739555413375050800,1.46105078125,0.03146902471780777,0.028876611962914467,-0.006073749624192715
1739555413385120500,1.47112060546875,0.03930511325597763,0.02305947057902813,0.0005556577816605568
1739555413395190800,1.481190673828125,0.038135938346385956,0.012538756243884563,-0.0009128563106060028
1739555413405260800,1.4912607421875,0.03202318400144577,-0.008657610043883324,-0.006227727048099041
1739555413415330600,1.50133056640625,0.018727919086813927,-0.028568170964717865,-0.018973369151353836
1739555413425400800,1.51140087890625,-0.0015240905340760946,-0.021818123757839203,-0.036723069846630096
1739555413435470600,1.521470703125,-0.023001939058303833,-0.0010575833730399609,-0.052736591547727585
1739555413445539800,1.531539794921875,-0.03759792447090149,0.018137682229280472,-0.058573175221681595
1739555413455609900,1.54160986328125,-0.05192377418279648,0.02996230125427246,-0.0502409003674984
1739555413465679600,1.5516796875,-0.057924143970012665,0.05076105520129204,-0.03400014713406563
1739555413475749600,1.56174951171875,-0.053155191242694855,0.0678340494632721,-0.014315522275865078
1739555413485820000,1.57181982421875,-0.03665291145443916,0.06998082250356674,0.0003518378362059593
1739555413495889700,1.5818896484375,-0.010553261265158653,0.073593869805336,0.004567655734717846
1739555413505959700,1.591959716796875,0.014701229520142078,0.05374905839562416,0.0004027383401989937
1739555413516028700,1.602028564453125,0.03347942978143692,0.026133010163903236,-0.0010908301919698715
1739555413526098700,1.6120986328125,0.036751922219991684,-0.014806965366005898,-0.011595936492085457
1739555413536168700,1.622168701171875,0.030906783416867256,-0.026637408882379532,-0.020405065268278122
1739555413546238700,1.63223876953125,0.015218103304505348,-0.01019478589296341,-0.020419444888830185
1739555413556308700,1.642308837890625,0.002547170966863632,0.018582716584205627,-0.012043626047670841
1739555413566378500,1.65237841796875,0.00031890440732240677,0.05403498560190201,-0.005849645473062992
1739555413576448800,1.66244873046875,0.00454495195299387,0.07660029828548431,-0.0001336159184575081
1739555413586518800,1.672518798828125,0.019939888268709183,0.08376766741275787,0.005596708506345749
1739555413596588500,1.682588623046875,0.0399877093732357,0.06906718015670776,0.01575339026749134
1739555413606657800,1.69265771484375,0.05115354433655739,0.04094233363866806,0.02562785893678665
1739555413616727600,1.7027275390625,0.056082431226968765,0.01401534304022789,0.028378384187817574
1739555413626797600,1.712797607421875,0.04551287740468979,-0.022945603355765343,0.014178143814206123
1739555413636867800,1.722867919921875,0.032249920070171356,-0.05366939306259155,-0.008222643285989761
1739555413646937600,1.7329375,0.013225363567471504,-0.07408971339464188,-0.0395619198679924
1739555413657007600,1.743007568359375,-0.007496205158531666,-0.07225853949785233,-0.06151115894317627
1739555413667078000,1.753077880859375,-0.022914575412869453,-0.03459984436631203,-0.05731881409883499
1739555413677147600,1.763147705078125,-0.03487880900502205,0.0032069403678178787,-0.043548814952373505
1739555413687216600,1.773216552734375,-0.02954156883060932,0.04419325292110443,-0.023978043347597122
1739555413697286700,1.78328662109375,-0.0199749618768692,0.07762977480888367,-0.008791899308562279
1739555413707356700,1.793356689453125,-0.007100175134837627,0.08628957718610764,0.004034416750073433
1739555413717426700,1.8034267578125,0.0027742753736674786,0.07236602157354355,0.003415643237531185
1739555413727496700,1.81349658203125,0.005242493469268084,0.04540897160768509,0.0019130874425172806
1739555413737566700,1.823566650390625,0.004215356893837452,-0.0006541111506521702,-0.004869457334280014
1739555413747636700,1.83363671875,0.004481673240661621,-0.05748383700847626,-0.016741296276450157
1739555413757706800,1.843706787109375,-0.0008963458240032196,-0.08804243057966232,-0.028049269691109657
1739555413767775700,1.853775634765625,-0.01003977656364441,-0.08446234464645386,-0.02625935710966587
1739555413777845500,1.863845458984375,-0.022679075598716736,-0.055953171104192734,-0.017442850396037102
1739555413787915800,1.873915771484375,-0.03346594423055649,-0.01946812868118286,-0.007157986983656883
1739555413797985800,1.88398583984375,-0.0288851298391819,0.036862753331661224,-0.0032151658087968826
1739555413808055600,1.8940556640625,-0.012669941410422325,0.09654339402914047,-0.003132874146103859
1739555413818125800,1.904125732421875,0.011164743453264236,0.13095669448375702,-0.0018209479749202728
1739555413828195800,1.91419580078125,0.03418217599391937,0.11761771142482758,-0.005580799654126167
1739555413838265600,1.924265625,0.05089854449033737,0.08185013383626938,-0.0016836738213896751
1739555413848335600,1.934335693359375,0.05439687520265579,0.03713272884488106,0.008709846064448357
1739555413858404600,1.944404541015625,0.04858214780688286,0.0009979144670069218,0.027762487530708313
1739555413868474600,1.954474609375,0.028689134865999222,-0.012543726712465286,0.04091184586286545
1739555413878545000,1.964544921875,-0.005240138620138168,-0.03283054381608963,0.03781602159142494
1739555413888614700,1.97461474609375,-0.026704151183366776,-0.012226997874677181,0.027789486572146416
1739555413898684700,1.9846845703125,-0.02739500068128109,0.027312692254781723,0.003996662795543671
1739555413908754700,1.994754638671875,-0.021480653434991837,0.051156770437955856,-0.004739571362733841
1739555413918824700,2.00482470703125,-0.015341413207352161,0.0478234738111496,-0.008097102865576744
1739555413928894700,2.014894775390625,-0.014201580546796322,0.04224149137735367,0.005166771821677685
1739555413938964500,2.024964599609375,-0.010084396228194237,0.001507605891674757,0.015257640741765499
1739555413949033700,2.03503369140625,-0.00664252694696188,-0.053477879613637924,0.02005026489496231
1739555413959103500,2.045103515625,-0.008522890508174896,-0.08300123363733292,0.0129841398447752
1739555413969173800,2.055173828125,-0.015805572271347046,-0.09291990846395493,-0.007968280464410782
1739555413979243800,2.065243896484375,-0.03302775323390961,-0.08779189735651016,-0.028742577880620956
1739555413989313500,2.0753134765625,-0.04278690367937088,-0.04985810071229935,-0.03598051518201828
1739555413999383800,2.0853837890625,-0.042141251266002655,0.0010152747854590416,-0.026542985811829567
1739555414009453800,2.095453857421875,-0.028380967676639557,0.013079127296805382,-0.015110833570361137
1739555414019523600,2.105523681640625,-0.0004269573837518692,0.001958498265594244,-0.007994298823177814
1739555414029593600,2.115593505859375,0.02826833538711071,-0.017332108691334724,0.0003650970757007599
1739555414039662600,2.12566259765625,0.03679363429546356,-0.05961676314473152,-0.01276624295860529
1739555414049732600,2.135732666015625,0.03041296824812889,-0.09629754722118378,-0.037084098905324936
1739555414059803000,2.145802978515625,0.005832269787788391,-0.1046968400478363,-0.07237222045660019
1739555414069872600,2.15587255859375,-0.02120334282517433,-0.09860458970069885,-0.09637955576181412
1739555414079942700,2.165942626953125,-0.03130523860454559,-0.0993412509560585,-0.10465503484010696
1739555414090012700,2.1760126953125,-0.03953839838504791,-0.09291211515665054,-0.08817512542009354
1739555414100082700,2.186082763671875,-0.03705369681119919,-0.0750095397233963,-0.060620345175266266
1739555414110152700,2.196152587890625,-0.037515223026275635,-0.06770288944244385,-0.03259323909878731
1739555414120222700,2.20622265625,-0.03434938192367554,-0.06764329969882965,-0.009771776385605335
1739555414130291700,2.216291748046875,-0.03219355642795563,-0.06000535935163498,0.006793350912630558
1739555414140361700,2.22636181640625,-0.02679387480020523,-0.06470299512147903,0.005355162546038628
1739555414150431700,2.236431640625,-0.021836400032043457,-0.06551632285118103,-0.009092751890420914
1739555414160501800,2.246501708984375,-0.02179710566997528,-0.07192779332399368,-0.025439955294132233
1739555414170571800,2.25657177734375,-0.0252259261906147,-0.08886922895908356,-0.03407605364918709
1739555414180641500,2.2666416015625,-0.029904751107096672,-0.11442913115024567,-0.024192292243242264
1739555414190711800,2.2767119140625,-0.03852061182260513,-0.12960942089557648,0.0005013355985283852
1739555414200781600,2.286781494140625,-0.04275836423039436,-0.11390258371829987,0.03617090731859207
1739555414210851600,2.2968515625,-0.029362130910158157,-0.10721006244421005,0.0574711337685585
1739555414220921900,2.306921875,-0.03942527994513512,-0.07692679017782211,0.06512243300676346
1739555414230990600,2.316990478515625,-0.04276195168495178,-0.05549925938248634,0.07640757411718369
1739555414241060600,2.327060546875,-0.044396113604307175,-0.03865984082221985,0.08058607578277588
1739555414251131000,2.337130859375,-0.05434834957122803,-0.027734223753213882,0.08292512595653534
1739555414261200600,2.34720068359375,-0.08106729388237,-0.03529571369290352,0.07863809913396835
1739555414271270700,2.357270751953125,-0.1163824051618576,-0.04873722419142723,0.06768930703401566
1739555414281340700,2.367340576171875,-0.14208829402923584,-0.07678470760583878,0.04817080497741699
1739555414291410700,2.37741064453125,-0.17058996856212616,-0.09927430003881454,0.025551512837409973
1739555414301480700,2.387480712890625,-0.18199612200260162,-0.10984230041503906,0.007912221364676952
1739555414311551000,2.397551025390625,-0.1810496300458908,-0.10844281315803528,-0.01190196257084608
1739555414321620000,2.407619873046875,-0.16561129689216614,-0.0998554453253746,-0.017723366618156433
1739555414331689700,2.417689697265625,-0.15264302492141724,-0.0930020734667778,-0.014167780987918377
1739555414341760000,2.427760009765625,-0.14621351659297943,-0.10271324217319489,-0.010405688546597958
1739555414351830000,2.437830078125,-0.14522762596607208,-0.10433243960142136,-0.006201355718076229
1739555414361899800,2.447899658203125,-0.1437143087387085,-0.11175639182329178,0.005975218489766121
1739555414371970000,2.457969970703125,-0.15132802724838257,-0.14509223401546478,0.0026878127828240395
1739555414382040000,2.4680400390625,-0.1559586375951767,-0.16581077873706818,-0.004118197597563267
1739555414392109800,2.47810986328125,-0.16135047376155853,-0.15784712135791779,-0.005778945051133633
1739555414402179800,2.488179931640625,-0.1680387705564499,-0.13578443229198456,-0.01490387786179781
1739555414412250000,2.49825,-0.1794741153717041,-0.11510737240314484,-0.028581608086824417
1739555414422318800,2.50831884765625,-0.18304601311683655,-0.08582838624715805,-0.045804090797901154
1739555414432389000,2.51838916015625,-0.18814648687839508,-0.06629915535449982,-0.06674745678901672
1739555414442459000,2.528458984375,-0.1829373687505722,-0.06747587025165558,-0.07786010205745697
1739555414452529000,2.53852880859375,-0.1782350242137909,-0.07776579260826111,-0.08094430714845657
1739555414462599000,2.548598876953125,-0.1708536446094513,-0.08249428123235703,-0.07696991413831711
1739555414472669000,2.5586689453125,-0.17034924030303955,-0.1117887869477272,-0.07126888632774353
1739555414482739000,2.568739013671875,-0.17177733778953552,-0.1419873684644699,-0.06642208993434906
1739555414492809000,2.57880908203125,-0.17666637897491455,-0.16028249263763428,-0.05902329832315445
1739555414502879000,2.58887890625,-0.17157910764217377,-0.1525568664073944,-0.04900878667831421
1739555414512949000,2.598948974609375,-0.15540707111358643,-0.13398824632167816,-0.040975622832775116
1739555414523018800,2.609018798828125,-0.13920852541923523,-0.1268070936203003,-0.033128850162029266
1739555414533088000,2.619087890625,-0.13098815083503723,-0.14215542376041412,-0.026310358196496964
1739555414543158000,2.629157958984375,-0.11938894540071487,-0.15952159464359283,-0.024103283882141113
1739555414553227800,2.639227783203125,-0.12691877782344818,-0.15952879190444946,-0.03323046863079071
1739555414563298000,2.649298095703125,-0.13974936306476593,-0.13040143251419067,-0.03819623589515686
1739555414573367800,2.659367919921875,-0.15428142249584198,-0.09146042168140411,-0.04282055050134659
1739555414583437800,2.669437744140625,-0.17399613559246063,-0.03558707237243652,-0.050550904124975204
1739555414593508000,2.679508056640625,-0.1939789056777954,0.01726735383272171,-0.054469745606184006
1739555414603577900,2.689577880859375,-0.209124356508255,0.04804350063204765,-0.052054598927497864
1739555414613648000,2.69964794921875,-0.21634125709533691,0.06671545654535294,-0.04295697063207626
1739555414623718100,2.70971826171875,-0.21812114119529724,0.07343641668558121,-0.03653791919350624
1739555414633787000,2.719786865234375,-0.2190103679895401,0.05661243200302124,-0.043350283056497574
1739555414643857000,2.72985693359375,-0.22015826404094696,0.015701159834861755,-0.06835387647151947
1739555414653927000,2.739927001953125,-0.20341576635837555,-0.017327098175883293,-0.13238558173179626
1739555414663997000,2.749996826171875,-0.17463308572769165,-0.03696763515472412,-0.20345523953437805
1739555414674067000,2.76006689453125,-0.12528763711452484,-0.01999184489250183,-0.26244398951530457
1739555414684137000,2.770136962890625,-0.07878273725509644,0.026559386402368546,-0.2920627295970917
1739555414694207000,2.78020703125,-0.04092191159725189,0.05614204704761505,-0.2877366840839386
1739555414704277000,2.790277099609375,-0.0152372345328331,0.05664703994989395,-0.23898328840732574
1739555414714347000,2.800346923828125,0.0002895267680287361,0.016530515626072884,-0.17113126814365387
1739555414724417000,2.8104169921875,-0.013730490580201149,-0.06441513448953629,-0.10685523599386215
1739555414734487000,2.820487060546875,-0.037661656737327576,-0.15594744682312012,-0.061299730092287064
1739555414744556000,2.83055615234375,-0.07419703900814056,-0.2241726964712143,-0.042247552424669266
1739555414754626000,2.8406259765625,-0.10854116082191467,-0.2619083821773529,-0.05635937675833702
1739555414764695800,2.85069580078125,-0.1313558965921402,-0.25738444924354553,-0.09523726999759674
1739555414774766000,2.86076611328125,-0.13856106996536255,-0.22168396413326263,-0.1387554556131363
1739555414784836000,2.870836181640625,-0.133163183927536,-0.16952930390834808,-0.16090354323387146
1739555414794905900,2.88090576171875,-0.12833593785762787,-0.11409082263708115,-0.15983030200004578
1739555414804975900,2.890975830078125,-0.1145593598484993,-0.06154967471957207,-0.14694055914878845
1739555414815046000,2.9010458984375,-0.11334308981895447,-0.008626272901892662,-0.12345202267169952
1739555414825116000,2.911115966796875,-0.10371656715869904,0.015904370695352554,-0.10203620791435242
1739555414835186000,2.92118603515625,-0.08839912712574005,0.03399468958377838,-0.06832458078861237
1739555414845256000,2.931255859375,-0.05852825939655304,0.04142025113105774,-0.02146431803703308
1739555414855325000,2.941324951171875,-0.01959337666630745,0.06565288454294205,0.030006326735019684
1739555414865395000,2.95139501953125,0.02193593606352806,0.11283399909734726,0.07071339339017868
1739555414875465000,2.96146484375,0.07189390063285828,0.16258691251277924,0.0900343582034111
1739555414885535000,2.971534912109375,0.11350175738334656,0.19986993074417114,0.08048608899116516
1739555414895604700,2.981604736328125,0.15337060391902924,0.20879337191581726,0.061848487704992294
1739555414905675000,2.991675048828125,0.18490219116210938,0.1880587935447693,0.033951763063669205
1739555414915745000,3.0017451171875,0.1984129399061203,0.14684024453163147,0.01554053369909525
1739555414925814800,3.011814697265625,0.2060360312461853,0.09925597906112671,0.008739463984966278
1739555414935885000,3.021885009765625,0.1997874528169632,0.04926498234272003,-0.004761963151395321
1739555414945955000,3.031955078125,0.1873730570077896,0.013219738379120827,-0.011218986473977566
1739555414956024800,3.04202490234375,0.1720854490995407,0.014486869797110558,-0.032823346555233
1739555414966094800,3.0520947265625,0.16094811260700226,0.042085472494363785,-0.06037427857518196
1739555414976163800,3.062163818359375,0.1480669379234314,0.08114978671073914,-0.09135829657316208
1739555414986233900,3.07223388671875,0.13804760575294495,0.09975039958953857,-0.10820001363754272
1739555414996304100,3.08230419921875,0.13460440933704376,0.09328770637512207,-0.11070126295089722
1739555415006374000,3.092373779296875,0.14168326556682587,0.07992745190858841,-0.09088493138551712
1739555415016444000,3.10244384765625,0.15339797735214233,0.05760404095053673,-0.05669953674077988
1739555415026514200,3.11251416015625,0.16497252881526947,0.04224356636404991,-0.03288387879729271
1739555415036584000,3.122583984375,0.17491251230239868,0.03367457911372185,-0.010302933864295483
1739555415046654000,3.132654052734375,0.1787133514881134,0.05633809417486191,0.0004954971373081207
1739555415056723700,3.1427236328125,0.1818593442440033,0.10396367311477661,0.010910321027040482
1739555415066794000,3.1527939453125,0.18933095037937164,0.15505391359329224,0.017371607944369316
1739555415076864000,3.162864013671875,0.20139534771442413,0.2116604745388031,0.03188956528902054
1739555415086933800,3.172933837890625,0.21889500319957733,0.23574720323085785,0.04500601068139076
1739555415097003000,3.1830029296875,0.23683857917785645,0.2177695333957672,0.060437701642513275
1739555415107073000,3.193072998046875,0.25566235184669495,0.19908545911312103,0.07087523490190506
1739555415117143000,3.20314306640625,0.25539281964302063,0.17996075749397278,0.05829206481575966
1739555415127213000,3.213213134765625,0.25169825553894043,0.19113987684249878,0.041377954185009
1739555415137282800,3.22328271484375,0.24437296390533447,0.2600425183773041,0.0291425958275795
1739555415147352800,3.233352783203125,0.23957917094230652,0.3665997385978699,0.03438041731715202
1739555415157423000,3.243423095703125,0.24101567268371582,0.40489330887794495,0.038662780076265335
1739555415167492900,3.253492919921875,0.24841934442520142,0.30905550718307495,0.031004441902041435
1739555415177563000,3.26356298828125,0.22661204636096954,0.1435704082250595,0.014622006565332413
1739555415187633200,3.273633056640625,0.13107842206954956,-0.07863185554742813,-0.053148481994867325
1739555415197703000,3.283702880859375,-0.0025305033195763826,-0.30792415142059326,-0.16245818138122559
1739555415207773000,3.29377294921875,-0.11624851822853088,-0.4318996071815491,-0.27970561385154724
1739555415217843000,3.303843017578125,-0.17711107432842255,-0.41375014185905457,-0.36539310216903687
1739555415227912000,3.313911865234375,-0.20416530966758728,-0.3429340422153473,-0.41500070691108704
1739555415237982000,3.32398193359375,-0.2104564905166626,-0.2617124319076538,-0.4132709801197052
1739555415248052000,3.334052001953125,-0.20897893607616425,-0.15337251126766205,-0.3714599311351776
1739555415258122000,3.3441220703125,-0.21836206316947937,-0.044137898832559586,-0.31447893381118774
1739555415268192000,3.35419189453125,-0.23113276064395905,0.053755998611450195,-0.2741352915763855
1739555415278262000,3.364261962890625,-0.23397168517112732,0.13487482070922852,-0.2614317536354065
1739555415288332000,3.37433203125,-0.21489839255809784,0.21912062168121338,-0.2412700057029724
1739555415298401800,3.38440185546875,-0.16268205642700195,0.31876546144485474,-0.18372681736946106
1739555415308471800,3.394471923828125,-0.07657898962497711,0.44025635719299316,-0.08498816192150116
1739555415318541800,3.404541748046875,0.03371289372444153,0.5590804815292358,0.029428960755467415
1739555415328611800,3.41461181640625,0.16176310181617737,0.6522008776664734,0.1331678330898285
1739555415338681900,3.424681884765625,0.2832583785057068,0.7061190009117126,0.2078535258769989
1739555415348752000,3.434751953125,0.3880442678928375,0.7089637517929077,0.25763121247291565
1739555415358820900,3.44482080078125,0.4632532596588135,0.649529755115509,0.29118356108665466
1739555415368891000,3.454890869140625,0.4804317355155945,0.5289868712425232,0.3121876120567322
1739555415378961000,3.4649609375,0.45021817088127136,0.34457629919052124,0.31098172068595886
1739555415389031000,3.475031005859375,0.3904845118522644,0.13465474545955658,0.2965593934059143
1739555415399100700,3.4851005859375,0.30550864338874817,-0.07800212502479553,0.26244616508483887
1739555415409171000,3.4951708984375,0.22456400096416473,-0.268239289522171,0.20549464225769043
1739555415419241000,3.505240966796875,0.15699800848960876,-0.3896200358867645,0.1607615202665329
1739555415429310700,3.515310791015625,0.10596024990081787,-0.43479612469673157,0.12099380046129227
1739555415439381000,3.525381103515625,0.06252036243677139,-0.4338722825050354,0.08900710195302963
1739555415449451000,3.535450927734375,0.01827673241496086,-0.4206558167934418,0.06227056682109833
1739555415459520800,3.545520751953125,-0.017283393070101738,-0.38691195845603943,0.04457199573516846
1739555415469590800,3.5555908203125,-0.03523758426308632,-0.355562299489975,0.027895016595721245
1739555415479660800,3.565660888671875,-0.043162353336811066,-0.3350362777709961,0.01726554147899151
1739555415489729800,3.575729736328125,-0.03899902105331421,-0.33055639266967773,0.015124127268791199
1739555415499800000,3.585800048828125,-0.011850757524371147,-0.3278319835662842,0.022723456844687462
1739555415509869800,3.595869873046875,0.01729549467563629,-0.32179880142211914,0.02873395010828972
1739555415519939800,3.60593994140625,0.04925848916172981,-0.3022245764732361,0.03663341701030731
1739555415530010000,3.616010009765625,0.06700050085783005,-0.2669287621974945,0.04734404385089874
1739555415540079900,3.626079833984375,0.08116665482521057,-0.21699130535125732,0.06587804853916168
1739555415550150000,3.63614990234375,0.0841166153550148,-0.17539861798286438,0.08880508691072464
1739555415560219600,3.6462197265625,0.08376773446798325,-0.09695467352867126,0.1202133446931839
1739555415570290000,3.6562900390625,0.08175795525312424,-0.0045495484955608845,0.15558525919914246
1739555415580360000,3.66635986328125,0.0729687288403511,0.08998867124319077,0.18540599942207336
1739555415590429700,3.6764296875,0.06968554109334946,0.18216727674007416,0.215530127286911
1739555415600500000,3.6865,0.08242770284414291,0.2658166289329529,0.2479565143585205
1739555415610570000,3.696570068359375,0.10451672971248627,0.3101045787334442,0.27514025568962097
1739555415620639700,3.7066396484375,0.12513917684555054,0.32989799976348877,0.2985798120498657
1739555415630709800,3.716709716796875,0.13356289267539978,0.32237666845321655,0.3045266568660736
1739555415640778800,3.72677880859375,0.1315612643957138,0.30848827958106995,0.2924276292324066
1739555415650848800,3.736848876953125,0.11761646717786789,0.2782481014728546,0.2618130147457123
1739555415660919000,3.7469189453125,0.10404419898986816,0.24276122450828552,0.2216314971446991
1739555415670988800,3.75698876953125,0.08323132991790771,0.1997961699962616,0.15922963619232178
1739555415681058800,3.767058837890625,0.07327776402235031,0.1489337980747223,0.09329509735107422
1739555415691129000,3.777129150390625,0.06680267304182053,0.10601285845041275,0.0363135002553463
1739555415701198800,3.78719873046875,0.06369529664516449,0.0689949169754982,0.0010447241365909576
1739555415711268900,3.797268798828125,0.06614791601896286,0.03540315479040146,-0.007771926000714302
1739555415721338600,3.807338623046875,0.06967420876026154,0.009720425121486187,0.012924031354486942
1739555415731409000,3.817408935546875,0.070439413189888,-0.007289623375982046,0.04169395565986633
1739555415741479000,3.82747900390625,0.07372654974460602,-0.014750469475984573,0.07579493522644043
1739555415751548700,3.837548583984375,0.0842161700129509,-0.016121672466397285,0.09212343394756317
1739555415761619000,3.847618896484375,0.09037259966135025,-0.00346926087513566,0.08171100914478302
1739555415771689000,3.85768896484375,0.1015508696436882,0.013198656029999256,0.05844535678625107
1739555415781758700,3.8677587890625,0.11802278459072113,0.040182869881391525,0.037430621683597565
1739555415791828000,3.877827880859375,0.1271764039993286,0.06895341724157333,0.02127394825220108
1739555415801897700,3.887897705078125,0.1273050457239151,0.05602350831031799,-0.00899633951485157
1739555415811967700,3.8979677734375,0.11854260414838791,0.044017668813467026,-0.041798077523708344
1739555415822038000,3.9080380859375,0.1028326153755188,0.018139200285077095,-0.06841903924942017
1739555415832107800,3.918107666015625,0.08031865209341049,-0.035900406539440155,-0.08796367049217224
1739555415842177800,3.928177734375,0.06499695777893066,-0.09183557331562042,-0.09011603891849518
1739555415852248000,3.938248046875,0.04696790128946304,-0.14365337789058685,-0.08495527505874634
1739555415862317800,3.94831787109375,0.030597716569900513,-0.20742996037006378,-0.0822572261095047
1739555415872387800,3.958387939453125,0.015627866610884666,-0.2692144513130188,-0.08856204897165298
1739555415882457900,3.968457763671875,0.005062307231128216,-0.3103131353855133,-0.10588697344064713
1739555415892527900,3.97852783203125,-0.005034356378018856,-0.31014248728752136,-0.13653166592121124
1739555415902598000,3.988597900390625,-0.00018580537289381027,-0.2593355178833008,-0.15780578553676605
1739555415912667600,3.998667724609375,0.012779496610164642,-0.19215182960033417,-0.17062324285507202
1739555415922738000,4.008738037109375,0.03172815591096878,-0.12909536063671112,-0.16174612939357758
1739555415932808000,4.018807861328125,0.04787677526473999,-0.08181002736091614,-0.13051888346672058
1739555415942877700,4.028877685546875,0.05483028292655945,-0.07741634547710419,-0.1013420894742012
1739555415952948000,4.038947998046875,0.060892991721630096,-0.1082022488117218,-0.07637905329465866
1739555415963016700,4.0490166015625,0.057635679841041565,-0.15521955490112305,-0.06744441390037537
1739555415973086700,4.059086669921875,0.035309549421072006,-0.18191573023796082,-0.06305721402168274
1739555415983157000,4.069156982421875,0.0053774830885231495,-0.1952347457408905,-0.05478009954094887
1739555415993226800,4.079226806640625,-0.02938106283545494,-0.19449001550674438,-0.041894055902957916
1739555416003296800,4.089296875,-0.061608508229255676,-0.17761674523353577,-0.030735410749912262
1739555416013367000,4.099366943359375,-0.08160225301980972,-0.1645294725894928,-0.017718791961669922
1739555416023436800,4.109436767578125,-0.09625177085399628,-0.15643294155597687,-0.004661045037209988
1739555416033506800,4.1195068359375,-0.11181092262268066,-0.15730997920036316,0.00934535451233387
1739555416043576800,4.129576904296875,-0.1255030333995819,-0.17122182250022888,0.03628163039684296
1739555416053646800,4.139646728515625,-0.1474425494670868,-0.1595045030117035,0.06851337850093842
1739555416063716900,4.149716796875,-0.17085014283657074,-0.12810185551643372,0.09475217014551163
1739555416073787000,4.159786865234375,-0.19571641087532043,-0.11985161900520325,0.10968088358640671
1739555416083857000,4.16985693359375,-0.23752537369728088,-0.16382811963558197,0.10677164793014526
1739555416093927000,4.179927001953125,-0.2954927086830139,-0.22818568348884583,0.09163486212491989
1739555416103996700,4.18999658203125,-0.37588393688201904,-0.3113144040107727,0.04775981605052948
1739555416114067000,4.20006689453125,-0.45936891436576843,-0.4010208249092102,-0.023171767592430115
1739555416124137000,4.210136962890625,-0.5069097876548767,-0.520971953868866,-0.10980386286973953
1739555416134206700,4.220206787109375,-0.5514549016952515,-0.5946945548057556,-0.24936939775943756
1739555416144276700,4.23027685546875,-0.604090690612793,-0.5539974570274353,-0.3565206229686737
1739555416154345700,4.240345703125,-0.637244462966919,-0.4147445857524872,-0.46206432580947876
1739555416164415700,4.250415771484375,-0.638065755367279,-0.188691183924675,-0.5565085411071777
1739555416174486000,4.260486083984375,-0.6139543056488037,0.10353336483240128,-0.6260756850242615
1739555416184555800,4.2705556640625,-0.5436577796936035,0.3661159873008728,-0.6608091592788696
1739555416194625800,4.280625732421875,-0.407470166683197,0.5504243969917297,-0.6037287712097168
1739555416204696000,4.290696044921875,-0.1839981973171234,0.6945275068283081,-0.4156329035758972
1739555416214765800,4.300765869140625,0.09863710403442383,0.7954298257827759,-0.14133206009864807
1739555416224835800,4.3108359375,0.3917619287967682,0.8340632319450378,0.17065326869487762
1739555416234905900,4.32090576171875,0.6372378468513489,0.8214616775512695,0.46696993708610535
1739555416244975900,4.330975830078125,0.8087515234947205,0.7688719630241394,0.7342652678489685
1739555416255046000,4.3410458984375,0.90038001537323,0.6810557842254639,0.9565990567207336
1739555416265116000,4.351115966796875,0.905533492565155,0.5167374014854431,1.0983716249465942
1739555416275186000,4.36118603515625,0.8352056741714478,0.3093433082103729,1.169791340827942
1739555416285256000,4.371255859375,0.7061421871185303,0.07359840720891953,1.171798586845398
1739555416295325700,4.38132568359375,0.5335692167282104,-0.15905477106571198,1.111218810081482
1739555416305396000,4.39139599609375,0.33045494556427,-0.3683834969997406,1.00490403175354
1739555416315466200,4.40146630859375,0.11915356665849686,-0.535528302192688,0.8750335574150085
1739555416325536300,4.411536376953125,-0.09259037673473358,-0.6102893352508545,0.7331443428993225
1739555416335606000,4.42160595703125,-0.27293941378593445,-0.5663723945617676,0.5835280418395996
1739555416345676300,4.43167626953125,-0.4200337827205658,-0.4156947433948517,0.42691120505332947
1739555416355746300,4.441746337890625,-0.5312195420265198,-0.18309417366981506,0.27548861503601074
1739555416365816000,4.451816162109375,-0.5876644849777222,0.09459149837493896,0.13992121815681458
1739555416375886000,4.461885986328125,-0.57786625623703,0.34453892707824707,0.03845271095633507
1739555416385955000,4.471955078125,-0.5063078999519348,0.49227672815322876,-0.010207236744463444
1739555416396025000,4.482025146484375,-0.39938628673553467,0.5662051439285278,0.004692418500781059
1739555416406095400,4.492095458984375,-0.2911871075630188,0.5614892244338989,0.07007009536027908
1739555416416165000,4.5021650390625,-0.19099777936935425,0.47410160303115845,0.151251882314682
1739555416426235100,4.512235107421875,-0.10984674096107483,0.32882454991340637,0.21951696276664734
1739555416436305400,4.522305419921875,-0.05952974781394005,0.1714930534362793,0.24325835704803467
1739555416446375200,4.532375244140625,-0.03493012860417366,0.041807226836681366,0.22676005959510803
1739555416456445200,4.542445068359375,-0.0447503998875618,-0.06004384905099869,0.1674746870994568
1739555416466515200,4.55251513671875,-0.08820786327123642,-0.12886765599250793,0.08657851070165634
1739555416476585200,4.562585205078125,-0.1642291098833084,-0.1525222659111023,-0.011601503007113934
1739555416486655200,4.5726552734375,-0.23908497393131256,-0.12981882691383362,-0.12264546006917953
1739555416496725000,4.58272509765625,-0.3075735867023468,-0.08736376464366913,-0.2237561196088791
1739555416506795300,4.592795166015625,-0.344211220741272,-0.02018686570227146,-0.3056887984275818
1739555416516865300,4.602865234375,-0.35039424896240234,0.040026672184467316,-0.36610180139541626
1739555416526935000,4.61293505859375,-0.32191306352615356,0.07560517638921738,-0.3997660279273987
1739555416537005300,4.62300537109375,-0.2643156945705414,0.11532279849052429,-0.40350738167762756
1739555416547075300,4.633075439453125,-0.20493626594543457,0.1450013369321823,-0.3936670124530792
1739555416557145000,4.64314501953125,-0.14999017119407654,0.145181804895401,-0.37801557779312134
1739555416567215000,4.653215087890625,-0.11084330826997757,0.13020285964012146,-0.3619878888130188
1739555416577285400,4.663285400390625,-0.08875669538974762,0.10725992172956467,-0.35453787446022034
1739555416587355100,4.673355224609375,-0.06864450126886368,0.07653370499610901,-0.35001397132873535
1739555416597425200,4.683425048828125,-0.04700019955635071,0.05927109718322754,-0.3294871151447296
1739555416607495400,4.693495361328125,-0.028382571414113045,0.058504633605480194,-0.29357120394706726
1739555416617565200,4.703565185546875,-0.015539509244263172,0.06380311399698257,-0.258225679397583
1739555416627635200,4.71363525390625,-0.004752374719828367,0.0743633434176445,-0.24130260944366455
1739555416637705000,4.723705078125,0.017444409430027008,0.09611836075782776,-0.23296552896499634
1739555416647775200,4.733775146484375,0.0539931021630764,0.11087653785943985,-0.23968228697776794
1739555416657845200,4.74384521484375,0.07693727314472198,0.11771591007709503,-0.25255194306373596
1739555416667914200,4.753914306640625,0.09280385076999664,0.12360735237598419,-0.2572838366031647
1739555416677984300,4.763984375,0.09413675218820572,0.10840219259262085,-0.2590315043926239
1739555416688054000,4.774053955078125,0.10648396611213684,0.06588562577962875,-0.2554303705692291
1739555416698124300,4.784124267578125,0.12249597907066345,0.01608538255095482,-0.2516239285469055
1739555416708194300,4.7941943359375,0.13980838656425476,-0.028965715318918228,-0.24642620980739594
1739555416718264000,4.80426416015625,0.16422058641910553,-0.05240160599350929,-0.22792282700538635
1739555416728334000,4.814333984375,0.19482243061065674,-0.052172042429447174,-0.1930559277534485
1739555416738404400,4.824404296875,0.21698811650276184,-0.034033022820949554,-0.15990899503231049
1739555416748474000,4.83447412109375,0.2438783198595047,-0.0040383730083703995,-0.12839661538600922
1739555416758544100,4.844544189453125,0.2716977000236511,0.0217443760484457,-0.09113536030054092
1739555416768614400,4.854614501953125,0.28907373547554016,0.03441276773810387,-0.051673971116542816
1739555416778684200,4.86468408203125,0.28425756096839905,0.06421411037445068,-0.0012506060302257538
1739555416788754200,4.874754150390625,0.26234668493270874,0.10178918391466141,0.05226108804345131
1739555416798824200,4.88482421875,0.24407479166984558,0.1057148277759552,0.08610980212688446
1739555416808894200,4.894894287109375,0.2477337270975113,0.10865122824907303,0.1197764202952385
1739555416818964200,4.904964111328125,0.27091625332832336,0.12235090881586075,0.16294074058532715
1739555416829034000,4.915033935546875,0.3090713620185852,0.12355837970972061,0.19562599062919617
1739555416839104300,4.925104248046875,0.3410244286060333,0.09542369097471237,0.22591356933116913
1739555416849174300,4.93517431640625,0.3749943971633911,0.07452507317066193,0.2682754099369049
1739555416859244000,4.945244140625,0.42707863450050354,0.0893373042345047,0.3351399302482605
1739555416869314300,4.955314208984375,0.4842905104160309,0.05021679773926735,0.4087936580181122
1739555416879384300,4.96538427734375,0.5124096870422363,-0.09344085305929184,0.45359286665916443
1739555416889454000,4.9754541015625,0.4974762797355652,-0.27031227946281433,0.4619498550891876
1739555416899524000,4.985524169921875,0.4540632963180542,-0.4259507656097412,0.44925254583358765
1739555416909594400,4.995594482421875,0.38989388942718506,-0.5259565114974976,0.4117469787597656
1739555416919664000,5.0056640625,0.3121946156024933,-0.5497673153877258,0.358267605304718
1739555416929734100,5.015734130859375,0.23259593546390533,-0.4959421455860138,0.2840929925441742
1739555416939804400,5.025804443359375,0.15838266909122467,-0.40143537521362305,0.19168172776699066
1739555416949874200,5.035874267578125,0.10177504271268845,-0.26957082748413086,0.08345165103673935
1739555416959944200,5.045944091796875,0.06030486896634102,-0.15655890107154846,-0.026449620723724365
1739555416970014200,5.05601416015625,0.021815534681081772,-0.10637030005455017,-0.14542047679424286
1739555416980084200,5.066084228515625,-0.028519535437226295,-0.09435054659843445,-0.2797800600528717
1739555416990154200,5.076154296875,-0.09370466321706772,-0.10674037039279938,-0.4182537794113159
1739555417000224000,5.08622412109375,-0.15241052210330963,-0.10193199664354324,-0.5196338295936584
1739555417010294300,5.096294189453125,-0.21211832761764526,-0.05104351043701172,-0.5778366923332214
1739555417020364300,5.1063642578125,-0.2431081235408783,0.05170580744743347,-0.5817136168479919
1739555417030434000,5.11643408203125,-0.22442206740379333,0.22170975804328918,-0.5271545052528381
1739555417040504300,5.12650439453125,-0.14758311212062836,0.42920243740081787,-0.4273383915424347
1739555417050574300,5.13657421875,-0.011650312691926956,0.6607006192207336,-0.276543527841568
1739555417060644000,5.14664404296875,0.13371515274047852,0.8635368943214417,-0.11986328661441803
1739555417070714000,5.156714111328125,0.2641216218471527,1.0165506601333618,0.03622591122984886
1739555417080784100,5.1667841796875,0.3751772940158844,1.0901967287063599,0.18618904054164886
1739555417090854100,5.176854248046875,0.46039843559265137,1.0774427652359009,0.32780447602272034
1739555417100924200,5.186924072265625,0.5003056526184082,0.9820400476455688,0.44068092107772827
1739555417110994200,5.196994140625,0.5088227391242981,0.8031744360923767,0.5171815156936646
1739555417121064200,5.207064208984375,0.47905731201171875,0.5479304194450378,0.5381336808204651
1739555417131134200,5.21713427734375,0.43021947145462036,0.2145567536354065,0.5093880295753479
1739555417141204200,5.227204345703125,0.35961785912513733,-0.1477075219154358,0.4451502561569214
1739555417151274200,5.237274169921875,0.2654969394207001,-0.4942915737628937,0.3697790503501892
1739555417161343000,5.247343017578125,0.16260585188865662,-0.7043710350990295,0.2953033447265625
1739555417171414000,5.2574140625,0.07699986547231674,-0.7515630722045898,0.24440208077430725
1739555417181483300,5.267483154296875,0.0037855468690395355,-0.6355668902397156,0.20633751153945923
1739555417191553000,5.277552978515625,-0.03837522491812706,-0.3913598358631134,0.21208354830741882
1739555417201623300,5.287623291015625,-0.04284433647990227,-0.11539033055305481,0.2735840678215027
1739555417211693300,5.297693359375,-0.0027525785844773054,0.120945505797863,0.36735770106315613
1739555417221763000,5.30776318359375,0.06621567159891129,0.2976704239845276,0.4748098850250244
1739555417231833300,5.317833251953125,0.13862168788909912,0.3859877586364746,0.5688565373420715
1739555417241903400,5.3279033203125,0.20722366869449615,0.37891602516174316,0.6284887194633484
1739555417251973000,5.33797314453125,0.26183685660362244,0.2882244884967804,0.6407493352890015
1739555417262043100,5.348043212890625,0.2866429090499878,0.12531369924545288,0.5986558794975281
1739555417272113200,5.358113037109375,0.28763389587402344,-0.03360085189342499,0.5293029546737671
1739555417282183200,5.36818310546875,0.2666197121143341,-0.13267971575260162,0.4566357135772705
1739555417292253200,5.378253173828125,0.22795991599559784,-0.14100609719753265,0.38770779967308044
1739555417302323200,5.3883232421875,0.1893405318260193,-0.057653333991765976,0.3315350413322449
1739555417312392700,5.398392822265625,0.170329287648201,0.07613109052181244,0.2970958352088928
1739555417322462700,5.408462646484375,0.165083110332489,0.20245856046676636,0.27512893080711365
1739555417332532700,5.41853271484375,0.1662873923778534,0.2826556861400604,0.2654086649417877
1739555417342602800,5.428602783203125,0.1839131861925125,0.314862459897995,0.2573171555995941
1739555417352672800,5.4386728515625,0.20202454924583435,0.3118778467178345,0.24237015843391418
1739555417362742800,5.44874267578125,0.2202112078666687,0.2783772349357605,0.21496328711509705
1739555417372812800,5.458812744140625,0.2279873788356781,0.22035999596118927,0.16413766145706177
1739555417382882800,5.4688828125,0.23115840554237366,0.14930115640163422,0.09652496874332428
1739555417392952600,5.47895263671875,0.2275490164756775,0.06437934190034866,0.019480522722005844
1739555417403022800,5.48902294921875,0.21482409536838531,-0.007433741353452206,-0.057879187166690826
1739555417413092900,5.4990927734375,0.19884805381298065,-0.03902282938361168,-0.12114817649126053
1739555417423162600,5.50916259765625,0.17092697322368622,-0.043060023337602615,-0.17598965764045715
1739555417433233000,5.51923291015625,0.1448996365070343,-0.04211140424013138,-0.21873340010643005
1739555417443302700,5.529302734375,0.11283916234970093,-0.05459348112344742,-0.26441121101379395
1739555417453372700,5.53937255859375,0.08662141114473343,-0.06351134181022644,-0.2986818552017212
1739555417463442700,5.549442626953125,0.06617429107427597,-0.06880008429288864,-0.3279924690723419
1739555417473512700,5.5595126953125,0.047078900039196014,-0.10061660408973694,-0.3520844876766205
1739555417483582700,5.569582763671875,0.03199875354766846,-0.13391399383544922,-0.3520313799381256
1739555417493652700,5.57965283203125,0.027639158070087433,-0.14265848696231842,-0.3352782428264618
1739555417503722800,5.58972265625,0.03003520518541336,-0.14783354103565216,-0.3087877929210663
1739555417513792800,5.599792724609375,0.031026430428028107,-0.15945132076740265,-0.28851020336151123
1739555417523862800,5.60986279296875,0.026610082015395164,-0.15776026248931885,-0.281364768743515
1739555417533932800,5.619932861328125,0.015020005404949188,-0.14735954999923706,-0.29007279872894287
1739555417544002800,5.6300029296875,-0.0033707262482494116,-0.12761162221431732,-0.32563310861587524
1739555417554072800,5.64007275390625,-0.0320282019674778,-0.10719822347164154,-0.38431477546691895
1739555417564142600,5.650142578125,-0.050664592534303665,-0.06657493114471436,-0.4406653344631195
1739555417574212900,5.660212890625,-0.062387026846408844,-0.041909538209438324,-0.48064497113227844
1739555417584282600,5.67028271484375,-0.06108648329973221,-0.03545096144080162,-0.48067718744277954
1739555417594352600,5.6803525390625,-0.04701966792345047,-0.027462545782327652,-0.44120702147483826
1739555417604423000,5.6904228515625,-0.030883844941854477,-0.024718262255191803,-0.37166422605514526
1739555417614492700,5.70049267578125,-0.007630452513694763,-0.01489545963704586,-0.268714964389801
1739555417624562700,5.710562744140625,0.018495064228773117,-0.007210996001958847,-0.15329961478710175
1739555417634632700,5.7206328125,0.02440594881772995,0.0029753288254141808,-0.060582198202610016
1739555417644702700,5.73070263671875,0.024412577971816063,0.021497298032045364,-0.03487931936979294
1739555417654772700,5.740772705078125,0.033746954053640366,0.03963528946042061,-0.04484353959560394
1739555417664842800,5.7508427734375,0.044416118413209915,0.018513595685362816,-0.06119817867875099
1739555417674912800,5.760912841796875,0.033821530640125275,-0.04547817260026932,-0.0840720683336258
1739555417684982800,5.770982666015625,0.01244126632809639,-0.10845369100570679,-0.08288471400737762
1739555417695052500,5.781052490234375,0.0024786475114524364,-0.16711755096912384,-0.04253888875246048
1739555417705123600,5.79112353515625,0.015678375959396362,-0.2594203054904938,0.025700371712446213
1739555417715192800,5.80119287109375,0.03276361897587776,-0.34080731868743896,0.10859072953462601
1739555417725262600,5.8112626953125,0.05808905139565468,-0.4030251204967499,0.20302735269069672
1739555417735333600,5.821333740234375,0.08315019309520721,-0.42585986852645874,0.27285143733024597
1739555417745403600,5.831403564453125,0.09337277710437775,-0.45086872577667236,0.3058164119720459
1739555417755474000,5.841473876953125,0.07138092815876007,-0.48356541991233826,0.2879844307899475
1739555417765543700,5.851543701171875,-0.03313817083835602,-0.5037710666656494,0.18241026997566223
1739555417775613700,5.86161376953125,-0.19647303223609924,-0.4515107572078705,-0.0020506633445620537
1739555417785683700,5.87168359375,-0.3524759113788605,-0.3022354543209076,-0.2299281805753708
1739555417795753700,5.881753662109375,-0.47482818365097046,-0.12457702308893204,-0.4719133675098419
1739555417805823700,5.89182373046875,-0.547379732131958,0.014588391408324242,-0.6596556305885315
1739555417815893800,5.901893798828125,-0.5640287399291992,0.06095029413700104,-0.7541009187698364
1739555417825963800,5.9119638671875,-0.5526146292686462,-0.021851221099495888,-0.7586997151374817
1739555417836033800,5.92203369140625,-0.5144680738449097,-0.19212070107460022,-0.6956565976142883
1739555417846103600,5.932103515625,-0.46242353320121765,-0.34711378812789917,-0.5722503066062927
1739555417856173800,5.942173828125,-0.39933592081069946,-0.43865087628364563,-0.4123905897140503
1739555417866243800,5.952243896484375,-0.3371867835521698,-0.38573676347732544,-0.2247748225927353
1739555417876313600,5.962313720703125,-0.2576645314693451,-0.19000744819641113,-0.025145873427391052
1739555417886383900,5.9723837890625,-0.16741764545440674,0.11151795834302902,0.1920064389705658
1739555417896454000,5.982453857421875,-0.06350615620613098,0.4591086804866791,0.39896440505981445
1739555417906523600,5.992523681640625,0.02076391689479351,0.7383792996406555,0.5518900156021118
1739555417916593700,6.00259375,0.09073927998542786,0.9212452173233032,0.6681079864501953
1739555417926663700,6.01266357421875,0.13730764389038086,1.0030436515808105,0.7437703013420105
1739555417936733700,6.022733642578125,0.15767204761505127,0.9628967642784119,0.7873678207397461
1739555417946803700,6.0328037109375,0.15331223607063293,0.8234277367591858,0.805232584476471
1739555417956873700,6.042873779296875,0.1326032280921936,0.6083239316940308,0.8239207863807678
1739555417966943700,6.05294384765625,0.10698002576828003,0.3696883022785187,0.8499049544334412
1739555417977013800,6.063013671875,0.07311500608921051,0.1508220136165619,0.8790715932846069
1739555417987083800,6.073083740234375,0.028688985854387283,-0.019147058948874474,0.8813925981521606
1739555417997153800,6.08315380859375,-0.028763120993971825,-0.11077524721622467,0.8598763942718506
1739555418007223800,6.093223876953125,-0.0865582823753357,-0.13440680503845215,0.8164042234420776
1739555418017293600,6.10329345703125,-0.1541418433189392,-0.11553483456373215,0.7461071610450745
1739555418027363800,6.11336376953125,-0.23061694204807281,-0.07623275369405746,0.6631661653518677
1739555418037433600,6.12343359375,-0.2935042977333069,-0.029597345739603043,0.5641631484031677
1739555418047503600,6.133503662109375,-0.3415226936340332,0.01771228015422821,0.4869595766067505
1739555418057574000,6.143573974609375,-0.3727368116378784,0.05916358530521393,0.42152678966522217
1739555418067643600,6.1536435546875,-0.3851894438266754,0.04944116994738579,0.3644653856754303
1739555418077713700,6.163713623046875,-0.37779197096824646,0.01900230348110199,0.31606802344322205
1739555418087784000,6.173783935546875,-0.3709588348865509,-0.01962967775762081,0.2810632884502411
1739555418097853700,6.183853759765625,-0.363966703414917,-0.06347356736660004,0.2413129359483719
1739555418107923700,6.193923828125,-0.350824236869812,-0.11792967468500137,0.20082758367061615
1739555418117993700,6.20399365234375,-0.3247377574443817,-0.14353731274604797,0.15405261516571045
1739555418128063700,6.214063720703125,-0.28917232155799866,-0.14545275270938873,0.09654420614242554
1739555418138133800,6.2241337890625,-0.25495174527168274,-0.12464386969804764,0.03206481784582138
1739555418148203800,6.234203857421875,-0.2211446464061737,-0.09291405230760574,-0.03872866928577423
1739555418158273800,6.244273681640625,-0.1881595253944397,-0.06185733526945114,-0.12110930681228638
1739555418168343800,6.25434375,-0.16232527792453766,-0.046369921416044235,-0.1996879279613495
1739555418178413600,6.26441357421875,-0.14203518629074097,-0.043785322457551956,-0.27251073718070984
1739555418188483800,6.27448388671875,-0.13131855428218842,-0.0309322327375412,-0.3357608914375305
1739555418198553900,6.284553955078125,-0.10926039516925812,-0.021329140290617943,-0.36495792865753174
1739555418208623600,6.29462353515625,-0.06340911984443665,-0.0186232328414917,-0.3359358012676239
1739555418218693600,6.304693603515625,-0.0033492436632514,-0.017152901738882065,-0.2557341754436493
1739555418228764000,6.314763916015625,0.04544563218951225,-0.02723056450486183,-0.15297327935695648
1739555418238833700,6.324833740234375,0.0826401337981224,-0.05063415691256523,-0.06918729096651077
1739555418248903700,6.334903564453125,0.11813990771770477,-0.08642065525054932,-0.04773943871259689
1739555418258974000,6.344973876953125,0.150758296251297,-0.10484973341226578,-0.10077762603759766
1739555418269043700,6.355043701171875,0.18193164467811584,-0.07130524516105652,-0.19778771698474884
1739555418279113700,6.36511376953125,0.19513079524040222,-0.010251740925014019,-0.31754258275032043
1739555418289183700,6.375183837890625,0.19073784351348877,0.04803922027349472,-0.4135952293872833
1739555418299253800,6.385253662109375,0.1789107471704483,0.09215901046991348,-0.47171950340270996
1739555418309323800,6.39532373046875,0.17397074401378632,0.14838570356369019,-0.47601696848869324
1739555418319394300,6.405394287109375,0.17911970615386963,0.19210149347782135,-0.44306087493896484
1739555418329464300,6.41546435546875,0.1916976124048233,0.2105555534362793,-0.37293851375579834
1739555418339534300,6.425534423828125,0.2023523896932602,0.21573299169540405,-0.28437429666519165
1739555418349604400,6.435604248046875,0.22742821276187897,0.2021218240261078,-0.188661590218544
1739555418359674400,6.44567431640625,0.26366183161735535,0.170890673995018,-0.11928651481866837
1739555418369744400,6.455744384765625,0.2996974289417267,0.12592414021492004,-0.07609888911247253
1739555418379815400,6.4658154296875,0.3246895968914032,0.08215136080980301,-0.05054719001054764
1739555418389885400,6.475885498046875,0.33271074295043945,0.028542956337332726,-0.03767990320920944
1739555418399955200,6.485955078125,0.32466667890548706,-0.03063248097896576,-0.03268034756183624
1739555418410025500,6.496025390625,0.3039168417453766,-0.07806658744812012,-0.02249675616621971
1739555418420095500,6.506095458984375,0.2821146249771118,-0.10817787796258926,-0.00531057920306921
1739555418430165200,6.516165283203125,0.2528747022151947,-0.10125339776277542,0.023145828396081924
1739555418440235300,6.5262353515625,0.2204323559999466,-0.06060556322336197,0.04900192469358444
1739555418450305500,6.536305419921875,0.18280848860740662,0.012310212478041649,0.0811409130692482
1739555418460375300,6.546375244140625,0.15480907261371613,0.101601742208004,0.11209110170602798
1739555418470445300,6.5564453125,0.13592000305652618,0.17035336792469025,0.12602123618125916
1739555418480515600,6.566515625,0.12990498542785645,0.2161101996898651,0.13071292638778687
1739555418490585300,6.57658544921875,0.13131965696811676,0.23879137635231018,0.11903879791498184
1739555418500655400,6.5866552734375,0.14159706234931946,0.24649031460285187,0.10644204914569855
1739555418510725400,6.596725341796875,0.1623494178056717,0.28889140486717224,0.09325754642486572
1739555418520795400,6.60679541015625,0.21454496681690216,0.3052658438682556,0.07017432898283005
1739555418530865400,6.616865478515625,0.2615460157394409,0.21300745010375977,0.025328192859888077
1739555418540935200,6.62693505859375,0.27412840723991394,0.0007444513030350208,-0.04462479054927826
1739555418551005400,6.63700537109375,0.2171097993850708,-0.27601975202560425,-0.15261176228523254
1739555418561075500,6.647075439453125,0.11978936195373535,-0.5416474342346191,-0.27098846435546875
1739555418571145200,6.657145263671875,0.018055282533168793,-0.6777048110961914,-0.3423672616481781
1739555418581215500,6.667215576171875,-0.06264382600784302,-0.6808979511260986,-0.37763363122940063
1739555418591285500,6.677285400390625,-0.11979066580533981,-0.6651334762573242,-0.3942132294178009
1739555418601355300,6.687355224609375,-0.15211078524589539,-0.6098340153694153,-0.3899518847465515
1739555418611425300,6.69742529296875,-0.1619407832622528,-0.525222659111023,-0.3822387456893921
1739555418621495600,6.70749560546875,-0.1637706458568573,-0.43699318170547485,-0.3906327486038208
1739555418631565300,6.7175654296875,-0.16206581890583038,-0.3682056963443756,-0.4404714107513428
1739555418641635300,6.72763525390625,-0.16582860052585602,-0.2943578362464905,-0.5380962491035461
1739555418651705300,6.737705322265625,-0.16503001749515533,-0.17178887128829956,-0.6559988260269165
1739555418661775400,6.747775390625,-0.16329602897167206,-0.0412396602332592,-0.7550585269927979
1739555418671845400,6.757845458984375,-0.14951689541339874,0.12563787400722504,-0.7971606850624084
1739555418681915400,6.767915283203125,-0.12767258286476135,0.32393497228622437,-0.7390576601028442
1739555418691985400,6.7779853515625,-0.06832447648048401,0.5540304183959961,-0.5670135021209717
1739555418702055400,6.788055419921875,0.029194621369242668,0.7987762093544006,-0.29372549057006836
1739555418712125200,6.798125244140625,0.1594824641942978,0.9778091311454773,0.004212884232401848
1739555418722195500,6.808195556640625,0.29307299852371216,1.0075676441192627,0.26371023058891296
1739555418732265500,6.818265380859375,0.4025057554244995,0.9329333305358887,0.48098376393318176
1739555418742335200,6.828335205078125,0.48378515243530273,0.7920337319374084,0.6415660381317139
1739555418752405500,6.838405517578125,0.5382438898086548,0.49821871519088745,0.7451238632202148
1739555418762475300,6.848475341796875,0.5575826168060303,0.17098869383335114,0.7903797626495361
1739555418772545300,6.858545166015625,0.54541015625,-0.17295807600021362,0.784509539604187
1739555418782615300,6.868615234375,0.5128048062324524,-0.48581239581108093,0.7590464949607849
1739555418792685300,6.878685302734375,0.4819614291191101,-0.7138882279396057,0.7023688554763794
1739555418802755300,6.88875537109375,0.45451807975769043,-0.822066068649292,0.6321988105773926
1739555418812825300,6.898825439453125,0.4110315144062042,-0.7769575715065002,0.5624281167984009
1739555418822895400,6.908895263671875,0.3529956340789795,-0.5570638179779053,0.5205666422843933
1739555418832965400,6.91896533203125,0.30283960700035095,-0.239229217171669,0.5275590419769287
1739555418843035400,6.929035400390625,0.28134843707084656,0.09227176755666733,0.5875872373580933
1739555418853105400,6.93910546875,0.28123512864112854,0.35813382267951965,0.6707848310470581
1739555418863175400,6.949175537109375,0.29299962520599365,0.511467456817627,0.754987359046936
1739555418873245400,6.959245361328125,0.3255499005317688,0.5817582607269287,0.8168058395385742
1739555418883315200,6.969315185546875,0.3678709864616394,0.5863490104675293,0.8363102674484253
1739555418893385500,6.979385498046875,0.393375962972641,0.5219435095787048,0.810675323009491
1739555418903455200,6.989455322265625,0.4154021739959717,0.40333542227745056,0.7552205920219421
1739555418913525200,6.999525146484375,0.42592623829841614,0.2823415994644165,0.6761159300804138
1739555418923595500,7.009595458984375,0.4188174605369568,0.1763525903224945,0.5832163691520691
1739555418933665300,7.019665283203125,0.39291781187057495,0.10638982802629471,0.4829096794128418
1739555418943735300,7.0297353515625,0.3524593412876129,0.09098050743341446,0.3868981897830963
1739555418953805600,7.0398056640625,0.3166559934616089,0.154695525765419,0.31673017144203186
1739555418963876600,7.049876708984375,0.26913267374038696,0.23615576326847076,0.27266472578048706
1739555418973946400,7.0599462890625,0.2190338373184204,0.35273846983909607,0.2491622120141983
1739555418984016400,7.070016357421875,0.1814315915107727,0.47106537222862244,0.23540405929088593
1739555418994086100,7.080086181640625,0.16692402958869934,0.5471072196960449,0.2352752685546875
1739555419004156400,7.090156494140625,0.17518754303455353,0.586702287197113,0.24550366401672363
1739555419014226400,7.100226318359375,0.18557894229888916,0.5802556276321411,0.2344542145729065
1739555419024296200,7.110296142578125,0.1852034330368042,0.5222415924072266,0.20363691449165344
1739555419034366500,7.120366455078125,0.177175834774971,0.43112698197364807,0.16728483140468597
1739555419044436500,7.1304365234375,0.1522475779056549,0.33696746826171875,0.12402232736349106
1739555419054506200,7.14050634765625,0.11902081221342087,0.24908630549907684,0.06605742871761322
1739555419064576500,7.150576416015625,0.09350106865167618,0.1853685826063156,0.0036941850557923317
1739555419074646500,7.160646484375,0.08562704175710678,0.15320734679698944,-0.03937041014432907
1739555419084716300,7.17071630859375,0.09027079492807388,0.13466057181358337,-0.05548466742038727
1739555419094786300,7.180786376953125,0.10874567180871964,0.09231853485107422,-0.05979621782898903
1739555419104856300,7.190856201171875,0.12247426807880402,0.03528081998229027,-0.07141505181789398
1739555419114926300,7.20092626953125,0.11729365587234497,-0.03409696742892265,-0.09323834627866745
1739555419124996400,7.210996337890625,0.09320215880870819,-0.09265535324811935,-0.11823292076587677
1739555419135066400,7.22106640625,0.05199011415243149,-0.13867926597595215,-0.15121178328990936
1739555419145136400,7.231136474609375,-0.002183109289035201,-0.1382339894771576,-0.1806359738111496
1739555419155206400,7.241206298828125,-0.04811890795826912,-0.10033801198005676,-0.2178475260734558
1739555419165276400,7.2512763671875,-0.03501136228442192,-0.08494147658348083,-0.2792970538139343
1739555419175346400,7.261346435546875,0.015767494216561317,-0.02431175857782364,-0.34944573044776917
1739555419185416400,7.27141650390625,0.06079302355647087,0.06829193979501724,-0.39542627334594727
1739555419195486200,7.281486328125,0.0447956807911396,0.06789619475603104,-0.4106193482875824
1739555419205556500,7.291556396484375,-0.001107359305024147,0.004712969996035099,-0.4027518332004547
1739555419215626500,7.30162646484375,-0.029731350019574165,-0.018207667395472527,-0.36479052901268005
1739555419225696300,7.3116962890625,-0.025700921192765236,0.002272839192301035,-0.3154586851596832
1739555419235766500,7.3217666015625,-0.026701465249061584,0.0074877068400382996,-0.24575269222259521
1739555419245836300,7.331836181640625,-0.032003287225961685,0.03683707118034363,-0.15821751952171326
1739555419255906300,7.34190625,-0.0447566993534565,0.06541431695222855,-0.07095174491405487
1739555419265976300,7.351976318359375,-0.04963481426239014,0.05564797669649124,-0.007665982469916344
1739555419276046300,7.36204638671875,-0.04035196825861931,0.03212445229291916,0.03401387110352516
1739555419286116400,7.372116455078125,-0.01309371367096901,0.02925143949687481,0.05625765770673752
1739555419296186400,7.382186279296875,0.02003161609172821,0.06177201494574547,0.06230867654085159
1739555419306256400,7.39225634765625,0.06094043329358101,0.10409150272607803,0.036803584545850754
1739555419316326400,7.402326416015625,0.10355101525783539,0.09450235962867737,-0.005857488140463829
1739555419326396400,7.412396484375,0.12706460058689117,0.031546831130981445,-0.0561603382229805
1739555419336466400,7.422466552734375,0.11179432272911072,-0.07987970113754272,-0.10662337392568588
1739555419346536400,7.432536376953125,0.07407917082309723,-0.21134772896766663,-0.13323207199573517
1739555419356606500,7.4426064453125,0.026243671774864197,-0.2964245676994324,-0.11079185456037521
1739555419366676500,7.452676513671875,-0.018308617174625397,-0.36856189370155334,-0.05359727889299393
1739555419376746500,7.46274658203125,-0.08751974254846573,-0.42747360467910767,-0.009107070043683052
1739555419386816500,7.47281640625,-0.18539251387119293,-0.4859808385372162,-0.0013996157795190811
1739555419396886500,7.482886474609375,-0.30623313784599304,-0.49676239490509033,-0.05399729311466217
1739555419406956500,7.49295654296875,-0.4491897523403168,-0.4461013376712799,-0.1680319756269455
1739555419417026600,7.503026611328125,-0.5824339985847473,-0.30128923058509827,-0.32312577962875366
1739555419427096600,7.5130966796875,-0.6531265377998352,-0.09239325672388077,-0.4784621000289917
1739555419437166300,7.523166259765625,-0.6553977727890015,0.1007862314581871,-0.5865285992622375
1739555419447236600,7.533236572265625,-0.6146535873413086,0.21638499200344086,-0.6350764036178589
1739555419457306400,7.543306396484375,-0.5751435160636902,0.22139975428581238,-0.6240049004554749
1739555419467376400,7.55337646484375,-0.5497198700904846,0.11306102573871613,-0.5842705368995667
1739555419477446700,7.56344677734375,-0.5258268713951111,-0.06849421560764313,-0.5258231163024902
1739555419487516400,7.573516357421875,-0.4900183379650116,-0.2559964656829834,-0.4580390155315399
1739555419497586400,7.58358642578125,-0.4472918212413788,-0.3916844129562378,-0.3674846887588501
1739555419507656400,7.593656494140625,-0.3895457088947296,-0.46672937273979187,-0.23858633637428284
1739555419517726500,7.6037265625,-0.3242192566394806,-0.4620048701763153,-0.06473016738891602
1739555419527796500,7.61379638671875,-0.25713926553726196,-0.34158578515052795,0.15043167769908905
1739555419537866500,7.623866455078125,-0.1840357631444931,-0.14212602376937866,0.3799997866153717
1739555419547936500,7.6339365234375,-0.10911519080400467,0.08783633261919022,0.5772175192832947
1739555419558006500,7.644006591796875,-0.041637349873781204,0.26699933409690857,0.7141870260238647
1739555419568076500,7.65407666015625,0.011444511823356152,0.3727633059024811,0.7940139174461365
1739555419578146600,7.664146484375,0.03842799365520477,0.4094833731651306,0.831125795841217
1739555419588216600,7.674216552734375,0.03671664744615555,0.37067580223083496,0.8422756791114807
1739555419598286300,7.684286376953125,0.006774428300559521,0.2679370045661926,0.8422800302505493
1739555419608356400,7.6943564453125,-0.04549543559551239,0.1426888257265091,0.8195749521255493
1739555419618426600,7.704426513671875,-0.10588584095239639,0.034826479852199554,0.7897578477859497
1739555419628497700,7.71449755859375,-0.16604532301425934,-0.03172964230179787,0.7710996866226196
1739555419638567400,7.7245673828125,-0.22981001436710358,-0.027873948216438293,0.7625969052314758
1739555419648637400,7.734637451171875,-0.30313241481781006,0.03644698113203049,0.7625995874404907
1739555419658707500,7.74470751953125,-0.3729734420776367,0.13323140144348145,0.7605119347572327
1739555419668777500,7.754777587890625,-0.4324015974998474,0.20839965343475342,0.7355522513389587
1739555419678847500,7.764847412109375,-0.48652809858322144,0.25756412744522095,0.6825912594795227
1739555419688917500,7.77491748046875,-0.5217625498771667,0.2743745446205139,0.6025725603103638
1739555419698987500,7.784987548828125,-0.5386080145835876,0.2469615936279297,0.49467259645462036
1739555419709057500,7.7950576171875,-0.5242783427238464,0.19945745170116425,0.3853221535682678
1739555419719127300,7.805127197265625,-0.48486199975013733,0.14481793344020844,0.28510573506355286
1739555419729197600,7.815197509765625,-0.43085044622421265,0.0797414630651474,0.19651488959789276
1739555419739267600,7.825267578125,-0.38248971104621887,0.010591438040137291,0.12754103541374207
1739555419749337300,7.83533740234375,-0.3434397876262665,-0.04842527583241463,0.08565402776002884
1739555419759407600,7.84540771484375,-0.3195483684539795,-0.10037196427583694,0.05370252579450607
1739555419769477600,7.8554775390625,-0.307178258895874,-0.13256265223026276,0.04609972983598709
1739555419779547400,7.86554736328125,-0.2974463701248169,-0.13317623734474182,0.049937840551137924
1739555419789617700,7.87561767578125,-0.2924092710018158,-0.12550126016139984,0.06333193928003311
1739555419799687400,7.8856875,-0.2851720154285431,-0.11902617663145065,0.06482511758804321
1739555419809757400,7.89575732421875,-0.2856745719909668,-0.12823379039764404,0.046604037284851074
1739555419819827500,7.905827392578125,-0.2853279411792755,-0.1329716444015503,0.011108963750302792
1739555419829897500,7.9158974609375,-0.2639017403125763,-0.1296461671590805,-0.037394654005765915
1739555419839967500,7.925967529296875,-0.2367381900548935,-0.10831127315759659,-0.08689816296100616
1739555419850037500,7.93603759765625,-0.1995154470205307,-0.08494576811790466,-0.1426844596862793
1739555419860107500,7.946107421875,-0.1470337063074112,-0.06488005071878433,-0.2031238079071045
1739555419870177500,7.956177490234375,-0.08269839733839035,-0.043227747082710266,-0.26204705238342285
1739555419880247600,7.96624755859375,-0.019604455679655075,-0.01944463886320591,-0.31931623816490173
1739555419890317600,7.976317626953125,0.03849773108959198,-0.008928613737225533,-0.378699392080307
1739555419900387600,7.9863876953125,0.09352486580610275,0.001405548769980669,-0.42535197734832764
1739555419910457600,7.99645751953125,0.14578673243522644,0.03712386265397072,-0.44627004861831665
1739555419920527400,8.00652734375,0.1975286304950714,0.08053304255008698,-0.42920124530792236
1739555419930597600,8.01659765625,0.2406313717365265,0.1275399625301361,-0.379049688577652
1739555419940667400,8.02666748046875,0.2749113440513611,0.19583874940872192,-0.2960342466831207
1739555419950737400,8.0367373046875,0.29809656739234924,0.2553319036960602,-0.2003742903470993
1739555419960807700,8.0468076171875,0.3062725067138672,0.28279909491539,-0.12337304651737213
1739555419970877400,8.05687744140625,0.3136449456214905,0.29704487323760986,-0.061251621693372726
1739555419980947500,8.066947509765624,0.3345818817615509,0.2890866994857788,-0.01617427170276642
1739555419991017500,8.077017578125,0.3622308373451233,0.25140777230262756,0.014977254904806614
1739555420001087500,8.08708740234375,0.3857451379299164,0.19567827880382538,0.043868280947208405
1739555420011157500,8.097157470703126,0.40924781560897827,0.1653749644756317,0.0931125208735466
1739555420021227500,8.1072275390625,0.4236477017402649,0.14858144521713257,0.1644466370344162
1739555420031297500,8.117297607421875,0.4238005578517914,0.13483527302742004,0.23847424983978271
1739555420041367600,8.127367431640625,0.41126778721809387,0.11443034559488297,0.29836374521255493
1739555420051437300,8.137437255859375,0.37915804982185364,0.06000225991010666,0.3242805600166321
1739555420061507600,8.147507568359375,0.3375024199485779,-0.032320521771907806,0.30513712763786316
1739555420071577600,8.15757763671875,0.294337660074234,-0.11458743363618851,0.2589901387691498
1739555420081647400,8.1676474609375,0.21974414587020874,-0.2140151858329773,0.17853081226348877
1739555420091717400,8.17771728515625,0.14331194758415222,-0.33185818791389465,0.08316274732351303
1739555420101787600,8.18778759765625,0.07748338580131531,-0.398127943277359,0.0077574728056788445
1739555420111857400,8.197857421875,0.02320043370127678,-0.40542447566986084,-0.04307721182703972
1739555420121927400,8.207927490234376,-0.0148603655397892,-0.350605309009552,-0.06872939318418503
1739555420131997700,8.217997802734375,-0.04981328919529915,-0.20551414787769318,-0.06553040444850922
1739555420142067500,8.2280673828125,-0.05931834504008293,-0.027326682582497597,-0.054037611931562424
1739555420152137500,8.238137451171875,-0.04511517286300659,0.0935579240322113,-0.03892337158322334
1739555420162207500,8.24820751953125,-0.03872973844408989,0.1110856756567955,-0.05582740902900696
1739555420172277500,8.258277587890625,-0.04900234937667847,0.026620326563715935,-0.12987448275089264
1739555420182347500,8.268347412109375,-0.07419729232788086,-0.14452102780342102,-0.24775297939777374
1739555420192417300,8.278417236328124,-0.1467607170343399,-0.3448202908039093,-0.39916858077049255
1739555420202487600,8.288487548828124,-0.25699514150619507,-0.4990027844905853,-0.559548556804657
1739555420212557600,8.2985576171875,-0.34667521715164185,-0.5423161387443542,-0.6715453863143921
1739555420222627300,8.30862744140625,-0.4067625105381012,-0.4705095887184143,-0.7352316379547119
1739555420232697600,8.318697509765625,-0.43526551127433777,-0.32103753089904785,-0.7428948879241943
1739555420242767600,8.328767578125,-0.43448394536972046,-0.14523829519748688,-0.7048664093017578
1739555420252837400,8.33883740234375,-0.42749983072280884,-0.007887367159128189,-0.6539518237113953
1739555420262907400,8.348907470703125,-0.44672974944114685,0.08476630598306656,-0.6231657862663269
1739555420272977700,8.358977783203125,-0.4844813942909241,0.13007892668247223,-0.6205055713653564
1739555420283047400,8.36904736328125,-0.5292397141456604,0.21628105640411377,-0.6051892638206482
1739555420293117400,8.379117431640625,-0.5455307960510254,0.3909841477870941,-0.5372717380523682
1739555420303187700,8.389187744140624,-0.538862943649292,0.6482517123222351,-0.4053347706794739
1739555420313257500,8.399257568359374,-0.48250114917755127,0.9578393697738647,-0.24931751191616058
1739555420323326500,8.409326416015626,-0.3780381381511688,1.230710744857788,-0.09207352250814438
1739555420333396500,8.419396484375,-0.24109625816345215,1.3609744310379028,0.05986087769269943
1739555420343466200,8.42946630859375,-0.11247966438531876,1.3379617929458618,0.20327085256576538
1739555420353536300,8.439536376953125,-0.035142265260219574,1.1397533416748047,0.29947754740715027
1739555420363606500,8.4496064453125,0.0026258216239511967,0.7801167368888855,0.3494645357131958
1739555420373676300,8.45967626953125,0.03215894475579262,0.32173529267311096,0.3725530803203583
1739555420383746300,8.469746337890625,0.060662489384412766,-0.15915684401988983,0.38229453563690186
1739555420393816600,8.479816650390624,0.09730278700590134,-0.5911127924919128,0.38999828696250916
1739555420403886300,8.48988623046875,0.14929425716400146,-0.912172257900238,0.38844165205955505
1739555420413956400,8.499956298828126,0.21195870637893677,-1.1247282028198242,0.3843667507171631
1739555420424026400,8.5100263671875,0.25835177302360535,-1.169311761856079,0.39969179034233093
1739555420434096400,8.520096435546876,0.27547749876976013,-1.0867109298706055,0.42707228660583496
1739555420444166400,8.53016650390625,0.2559228539466858,-0.9172645211219788,0.4809266924858093
1739555420454236200,8.540236083984375,0.22323226928710938,-0.6436820030212402,0.5627184510231018
1739555420464306400,8.550306396484375,0.18852220475673676,-0.36415863037109375,0.6563097834587097
1739555420474376400,8.56037646484375,0.1578013002872467,-0.14015217125415802,0.7141386866569519
1739555420484446200,8.5704462890625,0.1296696960926056,-0.010827763006091118,0.7251642942428589
1739555420494516500,8.5805166015625,0.10944510996341705,0.04426504671573639,0.6914100646972656
1739555420504586500,8.59058642578125,0.10792553424835205,0.04242900758981705,0.6430385112762451
1739555420514656300,8.60065625,0.11441618949174881,-0.011916786432266235,0.598215639591217
1739555420524726300,8.610726318359376,0.11729361116886139,-0.0774233341217041,0.5630253553390503
1739555420534796500,8.620796630859376,0.1023828387260437,-0.12556210160255432,0.555958092212677
1739555420544866300,8.6308662109375,0.0694844126701355,-0.1633722484111786,0.55635005235672
1739555420554936300,8.640936279296875,0.012646159157156944,-0.1745668351650238,0.552459180355072
1739555420565006300,8.65100634765625,-0.051560964435338974,-0.1430775374174118,0.53596431016922
1739555420575076400,8.661076416015625,-0.11931391060352325,-0.07813289761543274,0.5075294375419617
1739555420585146400,8.671146484375,-0.17472030222415924,0.01180969551205635,0.4729611277580261
1739555420595216400,8.68121630859375,-0.21259790658950806,0.09994994103908539,0.4191972315311432
1739555420605286400,8.691286376953125,-0.2284843623638153,0.15740926563739777,0.3541959822177887
1739555420615356400,8.7013564453125,-0.2153983861207962,0.17976544797420502,0.28035053610801697
1739555420625426200,8.71142626953125,-0.18967588245868683,0.15232719480991364,0.20935770869255066
1739555420635496400,8.721496337890626,-0.15591605007648468,0.08326290547847748,0.14112140238285065
1739555420645566500,8.73156640625,-0.11117352545261383,0.001289562787860632,0.08257944881916046
1739555420655636200,8.74163623046875,-0.07179363071918488,-0.02770480513572693,0.049989551305770874
1739555420665706500,8.75170654296875,-0.03375673294067383,0.0011926698498427868,0.041191089898347855
1739555420675776500,8.761776611328125,-0.001950336154550314,0.0556790828704834,0.036556124687194824
1739555420685846300,8.77184619140625,0.027590777724981308,0.11078733950853348,0.027110692113637924
1739555420695916300,8.781916259765625,0.04474366456270218,0.14891155064105988,-0.004103952087461948
1739555420705986300,8.791986328125,0.05341848358511925,0.14854860305786133,-0.05726664513349533
1739555420716056300,8.802056396484375,0.048648495227098465,0.12345629930496216,-0.11600718647241592
1739555420726126300,8.812126220703124,0.04473182186484337,0.0706910789012909,-0.18421420454978943
1739555420736196400,8.8221962890625,0.035331398248672485,0.01765795797109604,-0.24221543967723846
1739555420746266400,8.832266357421876,0.032514702528715134,-0.014105752110481262,-0.2861275374889374
1739555420756336400,8.84233642578125,0.04087090119719505,-0.04154696315526962,-0.3287668824195862
1739555420766406400,8.852406494140626,0.06279024481773376,-0.03822934255003929,-0.358272522687912
1739555420776476400,8.862476318359375,0.0990915298461914,-0.009881325997412205,-0.3773719072341919
1739555420786546400,8.87254638671875,0.13777397572994232,0.003792561125010252,-0.3948117196559906
1739555420796616200,8.8826162109375,0.16724984347820282,-0.007701375521719456,-0.4226230978965759
1739555420806686500,8.8926865234375,0.17866425216197968,-0.022611049935221672,-0.461047887802124
1739555420816756200,8.902756103515625,0.17554409801959991,-0.05657806992530823,-0.5096873044967651
1739555420826825500,8.912825439453124,0.16935640573501587,-0.07389690726995468,-0.5573723316192627
1739555420836896500,8.922896484375,0.14906364679336548,-0.0661202147603035,-0.6047816872596741
1739555420846965200,8.93296533203125,0.12040336430072784,-0.048109281808137894,-0.6349067687988281
1739555420857035500,8.943035400390626,0.10378337651491165,0.004718512762337923,-0.6383659243583679
1739555420867105500,8.95310546875,0.11058998852968216,0.06497389823198318,-0.6171611547470093
1739555420877175300,8.96317529296875,0.1288379728794098,0.10203365236520767,-0.573399007320404
1739555420887245300,8.973245361328125,0.160109743475914,0.12158505618572235,-0.5162622928619385
1739555420897315300,8.9833154296875,0.19812849164009094,0.10311684012413025,-0.4474251866340637
1739555420907385300,8.99338525390625,0.234996497631073,0.06356100738048553,-0.3685726225376129
1739555420917455400,9.003455322265625,0.2594773471355438,0.039450082927942276,-0.29878154397010803
1739555420927525400,9.013525390625,0.27464020252227783,0.012171562761068344,-0.23908193409442902
1739555420937595400,9.023595458984374,0.2779739499092102,-0.015183895826339722,-0.20916318893432617
1739555420947665400,9.03366552734375,0.27254077792167664,-0.04230104759335518,-0.20657089352607727
1739555420957735400,9.0437353515625,0.2593480050563812,-0.04598606377840042,-0.22009310126304626
1739555420967805400,9.053805419921876,0.2498541921377182,-0.06285517662763596,-0.24153614044189453
1739555420977875500,9.06387548828125,0.23332367837429047,-0.07392540574073792,-0.24553513526916504
1739555420987945200,9.0739453125,0.21949099004268646,-0.08436757326126099,-0.23638753592967987
1739555420998015500,9.084015380859375,0.21462486684322357,-0.0910976454615593,-0.20160530507564545
1739555421008085200,9.094085205078125,0.20664602518081665,-0.11190783977508545,-0.14930090308189392
1739555421018155300,9.1041552734375,0.1950002908706665,-0.12498316168785095,-0.08870653063058853
1739555421028225500,9.1142255859375,0.17950846254825592,-0.1229926198720932,-0.03676990792155266
1739555421038295300,9.12429541015625,0.16331325471401215,-0.09650641679763794,-0.00015597138553857803
1739555421048365300,9.134365234375,0.14042800664901733,-0.053133346140384674,0.007244811858981848
1739555421058435300,9.144435302734376,0.1175685003399849,-0.03078729286789894,-0.013766996562480927
1739555421068505300,9.15450537109375,0.09620724618434906,-0.03440476953983307,-0.07556629180908203
1739555421078575400,9.164575439453126,0.06244395673274994,-0.08622375875711441,-0.1707676500082016
1739555421088645400,9.174645263671875,0.018677078187465668,-0.13829831779003143,-0.2719210684299469
1739555421098715400,9.18471533203125,-0.025722075253725052,-0.17077262699604034,-0.35381272435188293
1739555421108785400,9.194785400390625,-0.06402365863323212,-0.14778874814510345,-0.40711748600006104
1739555421118855400,9.20485546875,-0.08267351239919662,-0.09812238812446594,-0.42661237716674805
1739555421128925400,9.214925537109375,-0.0783873200416565,-0.05380682647228241,-0.42434215545654297
1739555421138995500,9.224995361328125,-0.05772597715258598,-0.05340095981955528,-0.41251611709594727
1739555421149065200,9.235065185546874,-0.02608560211956501,-0.14830683171749115,-0.4079282283782959
1739555421159135200,9.24513525390625,0.005611340515315533,-0.26742950081825256,-0.4145885407924652
1739555421169205500,9.25520556640625,0.041722699999809265,-0.3813305199146271,-0.43517106771469116
1739555421179275300,9.265275146484376,0.058934979140758514,-0.48954832553863525,-0.46661341190338135
1739555421189345300,9.27534521484375,0.07657726109027863,-0.5351321697235107,-0.4982799291610718
1739555421199415600,9.28541552734375,0.10935864597558975,-0.5311187505722046,-0.5070201754570007
1739555421209485300,9.2954853515625,0.1536567658185959,-0.4798617362976074,-0.452241450548172
1739555421219555300,9.305555419921875,0.19388993084430695,-0.3798283338546753,-0.3397705852985382
1739555421229625300,9.315625244140625,0.22707068920135498,-0.25028687715530396,-0.16753554344177246
1739555421239695400,9.3256953125,0.2512010335922241,-0.10723811388015747,0.03620479255914688
1739555421249765400,9.335765380859375,0.27130839228630066,0.03122289478778839,0.24077336490154266
1739555421259835400,9.34583544921875,0.28125423192977905,0.12156184762716293,0.40100353956222534
1739555421269905400,9.355905517578124,0.27296018600463867,0.14033180475234985,0.4986477494239807
1739555421279975400,9.365975341796876,0.24467264115810394,0.1351975053548813,0.5426865220069885
1739555421290045200,9.376045166015626,0.19124802947044373,0.12808819115161896,0.5661492347717285
1739555421300115500,9.386115478515626,0.11085890978574753,0.12401037663221359,0.5730913281440735
1739555421310185500,9.396185546875,0.026494493708014488,0.14844448864459991,0.5839159488677979
1739555421320259300,9.40625927734375,-0.053015775978565216,0.17593976855278015,0.5978519916534424
1739555421330329000,9.4163291015625,-0.11501366645097733,0.23758792877197266,0.613392174243927
1739555421340399400,9.4263994140625,-0.1649804264307022,0.2878180742263794,0.6400994062423706
1739555421350469400,9.436469482421876,-0.1909182220697403,0.32625338435173035,0.680169403553009
1739555421360539100,9.4465390625,-0.20564790070056915,0.34470829367637634,0.7217884659767151
1739555421370609400,9.456609375,-0.21420376002788544,0.33331596851348877,0.7547874450683594
1739555421380679200,9.46667919921875,-0.22060786187648773,0.3085983693599701,0.7729747295379639
1739555421390749200,9.476749267578125,-0.23392754793167114,0.26404303312301636,0.7689487934112549
1739555421400819200,9.486819091796875,-0.24494531750679016,0.21384988725185394,0.7401027679443359
1739555421410889200,9.49688916015625,-0.25938382744789124,0.14763900637626648,0.6894379258155823
1739555421420958200,9.506958251953124,-0.27149295806884766,0.06551137566566467,0.6071334481239319
1739555421431028200,9.5170283203125,-0.27576231956481934,-0.01396507490426302,0.5117472410202026
1739555421441098200,9.52709814453125,-0.27129486203193665,-0.10165391117334366,0.4120880663394928
1739555421451168300,9.537168212890625,-0.26291224360466003,-0.20762193202972412,0.3127829432487488
1739555421461238300,9.54723828125,-0.24485629796981812,-0.2914835512638092,0.2237154096364975
1739555421471308300,9.557308349609375,-0.2464640885591507,-0.34457072615623474,0.14840492606163025
1739555421481378300,9.56737841796875,-0.2540042996406555,-0.3501300811767578,0.08703398704528809
1739555421491448000,9.577447998046875,-0.25655966997146606,-0.298897922039032,0.0491202250123024
1739555421501518300,9.587518310546875,-0.24538983404636383,-0.20753206312656403,0.04059065133333206
1739555421511588400,9.59758837890625,-0.24091242253780365,-0.07513926178216934,0.06017894670367241
1739555421521658000,9.607658203125,-0.21934615075588226,0.06093388795852661,0.1018851175904274
1739555421531728400,9.617728271484374,-0.17302682995796204,0.18214888870716095,0.15748357772827148
1739555421541798400,9.62779833984375,-0.13220269978046417,0.2658059597015381,0.19033607840538025
1739555421551868200,9.6378681640625,-0.10046111047267914,0.2996729612350464,0.19235506653785706
1739555421561938200,9.647938232421875,-0.07414162158966064,0.2886916995048523,0.17308896780014038
1739555421572008200,9.65800830078125,-0.06613717973232269,0.23570764064788818,0.13225224614143372
1739555421582078200,9.668078125,-0.07653495669364929,0.15360797941684723,0.0656503215432167
1739555421592148200,9.678148193359375,-0.10024730861186981,0.07096737623214722,-0.016771890223026276
1739555421602218200,9.68821826171875,-0.12964755296707153,0.02002003975212574,-0.0986582338809967
1739555421612288300,9.698288330078125,-0.14171715080738068,0.008191358298063278,-0.16076959669589996
1739555421622358300,9.708358154296874,-0.12025552988052368,0.03875406086444855,-0.19713611900806427
1739555421632428300,9.71842822265625,-0.08500614762306213,0.10262476652860641,-0.21778404712677002
1739555421642498300,9.728498291015624,-0.03587988391518593,0.14956484735012054,-0.23320987820625305
1739555421652568300,9.738568359375,0.02152085304260254,0.17656506597995758,-0.2373507171869278
1739555421662638000,9.74863818359375,0.08219138532876968,0.1785227656364441,-0.2257814258337021
1739555421672708400,9.758708251953125,0.1320788413286209,0.16875074803829193,-0.20092904567718506
1739555421682778400,9.7687783203125,0.17706575989723206,0.1636694371700287,-0.1628492921590805
1739555421692848000,9.77884814453125,0.2137908637523651,0.16000118851661682,-0.11881123483181
1739555421702918400,9.78891845703125,0.23709352314472198,0.16043102741241455,-0.07816873490810394
1739555421712988200,9.79898828125,0.2573293149471283,0.1699991524219513,-0.05922698974609375
1739555421723058200,9.80905810546875,0.26457682251930237,0.16271115839481354,-0.05387590080499649
1739555421733128200,9.819128173828124,0.2595938444137573,0.15493716299533844,-0.06318061053752899
1739555421743198200,9.8291982421875,0.24802564084529877,0.16811208426952362,-0.06707388162612915
1739555421753268200,9.839268310546874,0.23850470781326294,0.1747225821018219,-0.08422920107841492
1739555421763338200,9.849338134765626,0.23356400430202484,0.19172260165214539,-0.10533767938613892
1739555421773408300,9.859408203125,0.23568440973758698,0.20320561528205872,-0.13532060384750366
1739555421783478300,9.869478271484375,0.2383023053407669,0.19236284494400024,-0.1579204499721527
1739555421793548300,9.87954833984375,0.2546981871128082,0.2020169496536255,-0.16610068082809448
1739555421803618300,9.889618408203125,0.27463167905807495,0.1997212916612625,-0.15051479637622833
1739555421813688300,9.899688232421875,0.2909644842147827,0.2017459124326706,-0.11859871447086334
1739555421823758000,9.909758056640625,0.29314160346984863,0.19169753789901733,-0.07041734457015991
1739555421833827300,9.919827392578124,0.2859576940536499,0.15065136551856995,-0.030735448002815247
1739555421843897300,9.9298974609375,0.2663392424583435,0.08012554049491882,-0.0064114658161997795
1739555421853967000,9.939967041015626,0.23817066848278046,0.00903443805873394,-0.006297951564192772
1739555421864037400,9.950037353515626,0.20589181780815125,-0.03890938684344292,-0.01085834950208664
1739555421874107400,9.960107421875,0.18117950856685638,-0.045417044311761856,-0.026022840291261673
1739555421884177200,9.97017724609375,0.17544439435005188,0.01401405781507492,-0.04900006577372551
1739555421894247200,9.9802470703125,0.18369950354099274,0.13943056762218475,-0.07394026219844818
1739555421904317200,9.990317138671875,0.20478801429271698,0.3237500786781311,-0.0778370052576065
1739555421914387200,10.00038720703125,0.23573783040046692,0.5719780325889587,-0.0457475408911705
1739555421924457200,10.010457275390625,0.27389001846313477,0.7492990493774414,-0.017854662612080574
1739555421934527200,10.02052734375,0.33730003237724304,0.7690345644950867,-0.02171885222196579
1739555421944597200,10.03059716796875,0.39282774925231934,0.7152450680732727,-0.03770607337355614
1739555421954667300,10.040667236328124,0.3973892629146576,0.573948860168457,-0.06638297438621521
1739555421964737300,10.0507373046875,0.3359312415122986,0.33776506781578064,-0.10859380662441254
1739555421974807300,10.060807373046876,0.23410192131996155,0.05975986272096634,-0.178512841463089
1739555421984877300,10.070877197265625,0.14289316534996033,-0.2056017816066742,-0.24228808283805847
1739555421994947000,10.080947021484375,0.0745101273059845,-0.4064894914627075,-0.27612242102622986
1739555422005017300,10.091017333984375,0.023397140204906464,-0.5416433215141296,-0.31643441319465637
1739555422015087000,10.101087158203125,0.006745296996086836,-0.6128242611885071,-0.3436983823776245
1739555422025157000,10.1111572265625,0.03530929982662201,-0.551934540271759,-0.3263968825340271
1739555422035227400,10.121227294921875,0.10199695080518723,-0.4196586608886719,-0.2574441432952881
1739555422045297200,10.131297119140624,0.19332526624202728,-0.22655633091926575,-0.14955495297908783
1739555422055367200,10.1413671875,0.3122289180755615,0.014494111761450768,-0.013426955789327621
1739555422065437400,10.1514375,0.4478514790534973,0.26075637340545654,0.1113320142030716
1739555422075507200,10.161507080078126,0.5730627775192261,0.479627788066864,0.21594469249248505
1739555422085577200,10.1715771484375,0.6667163372039795,0.6484661102294922,0.30597391724586487
1739555422095647200,10.181647216796875,0.7417123317718506,0.7786881923675537,0.3934054970741272
1739555422105717200,10.19171728515625,0.8061318397521973,0.9297069907188416,0.4914495050907135
1739555422115787300,10.201787353515625,0.8580512404441833,1.0483201742172241,0.5830669403076172
1739555422125857300,10.211857177734375,0.9049524068832397,1.1316531896591187,0.6665778160095215
1739555422135927300,10.22192724609375,0.9371140003204346,1.1331912279129028,0.7110109925270081
1739555422145997300,10.231997314453125,0.9759913682937622,1.0461982488632202,0.7216016054153442
1739555422156066300,10.24206640625,1.0095415115356445,0.8509570956230164,0.6992872953414917
1739555422166136300,10.25213623046875,1.0128395557403564,0.5548546314239502,0.6431012749671936
1739555422176206300,10.262206298828126,0.9843097925186157,0.1761745810508728,0.5587254166603088
1739555422186276000,10.272276123046876,0.9128356575965881,-0.2646808326244354,0.4622103273868561
1739555422196346400,10.282346435546875,0.7794229388237,-0.6757768392562866,0.3487960398197174
1739555422206416100,10.292416015625,0.596746027469635,-0.974687933921814,0.23004302382469177
1739555422216486100,10.302486083984375,0.39883294701576233,-1.1087009906768799,0.11719679087400436
1739555422226556400,10.312556396484375,0.20929016172885895,-1.1111953258514404,0.003568761982023716
1739555422236626200,10.322626220703125,0.040715742856264114,-1.0343232154846191,-0.121146559715271
1739555422246696200,10.3326962890625,-0.09531959146261215,-0.8822173476219177,-0.22657950222492218
1739555422256766200,10.34276611328125,-0.21777009963989258,-0.713610053062439,-0.3188008666038513
1739555422266836200,10.352836181640624,-0.32485154271125793,-0.5357815027236938,-0.3851548433303833
1739555422276906200,10.36290625,-0.3877982497215271,-0.3386368751525879,-0.42241811752319336
1739555422286976300,10.372976318359376,-0.40540361404418945,-0.13413351774215698,-0.413215309381485
1739555422297046300,10.38304638671875,-0.3648552894592285,0.09726793318986893,-0.35320067405700684
1739555422307116300,10.3931162109375,-0.27846768498420715,0.30078884959220886,-0.26593446731567383
1739555422317183200,10.403183349609375,-0.16206856071949005,0.47563111782073975,-0.16164784133434296
1739555422327253200,10.413253173828124,-0.04231473058462143,0.608098566532135,-0.06761188805103302
1739555422337323500,10.423323486328124,0.05295473337173462,0.6944443583488464,-0.005372060462832451
1739555422347393300,10.433393310546874,0.12842312455177307,0.7029472589492798,0.035764992237091064
1739555422357463300,10.44346337890625,0.19004541635513306,0.6559805274009705,0.07023444026708603
1739555422367533300,10.453533203125,0.24219197034835815,0.6052539944648743,0.1045021340250969
1739555422377603300,10.463603271484375,0.2745511531829834,0.5463696122169495,0.12574072182178497
1739555422387673300,10.47367333984375,0.2909647524356842,0.4589976966381073,0.13331182301044464
1739555422397743000,10.4837431640625,0.30634671449661255,0.36530786752700806,0.11706630885601044
1739555422407813400,10.4938134765625,0.31695035099983215,0.27608877420425415,0.07494708150625229
1739555422417883400,10.50388330078125,0.3191320300102234,0.19429099559783936,0.018862951546907425
1739555422427953200,10.513953125,0.30398795008659363,0.12328127771615982,-0.04905298352241516
1739555422438023400,10.5240234375,0.26694053411483765,0.05638248100876808,-0.12253496795892715
1739555422448092200,10.534092041015626,0.21372897922992706,0.0043925135396420956,-0.19719882309436798
1739555422458162400,10.544162353515626,0.1494944840669632,-0.042027298361063004,-0.2735421061515808
1739555422468232400,10.554232421875,0.08781487494707108,-0.08139334619045258,-0.34367379546165466
1739555422478302200,10.56430224609375,0.03544143959879875,-0.08696091175079346,-0.39912229776382446
1739555422488372200,10.574372314453125,-0.006442093290388584,-0.10127300769090652,-0.4235434830188751
1739555422498442500,10.5844423828125,-0.027091413736343384,-0.05011831969022751,-0.4229843020439148
1739555422508512300,10.59451220703125,-0.039315324276685715,0.0235268697142601,-0.39030227065086365
1739555422518582300,10.604582275390625,-0.04418039694428444,0.14166514575481415,-0.3531755805015564
1739555422528652500,10.614652587890625,-0.041811782866716385,0.2543131411075592,-0.31863144040107727
1739555422538722300,10.624722412109374,-0.035514023154973984,0.3330419361591339,-0.289252370595932
1739555422548792300,10.634792236328124,-0.03422105684876442,0.36374977231025696,-0.2574014961719513
1739555422558862300,10.6448623046875,-0.035137444734573364,0.31481802463531494,-0.22734151780605316
1739555422568932400,10.654932373046876,-0.038749754428863525,0.22049950063228607,-0.19284187257289886
1739555422579002400,10.66500244140625,-0.03577010706067085,0.12093967199325562,-0.15126554667949677
1739555422589072100,10.675072021484375,-0.026714827865362167,0.007047189865261316,-0.11716562509536743
1739555422599142400,10.685142333984375,-0.008333327248692513,-0.07875274121761322,-0.0861610695719719
1739555422609212400,10.69521240234375,0.02176918275654316,-0.13270598649978638,-0.05748362094163895
1739555422619282200,10.7052822265625,0.05466553941369057,-0.1568775326013565,-0.03557319566607475
1739555422629352400,10.7153525390625,0.0839853510260582,-0.16842952370643616,-0.024830002337694168
1739555422639422500,10.72542236328125,0.1133866012096405,-0.19151991605758667,-0.023321863263845444
1739555422649492200,10.7354921875,0.132550448179245,-0.23543117940425873,-0.024613764137029648
1739555422659562200,10.745562255859374,0.12113583832979202,-0.2719059884548187,-0.012968214228749275
1739555422669632500,10.755632568359376,0.09066634625196457,-0.3025752305984497,0.004064831882715225
1739555422679702300,10.765702392578126,0.048099566251039505,-0.3358626067638397,0.011922254227101803
1739555422689772300,10.775772216796875,0.004042091313749552,-0.3587556779384613,0.014242665842175484
1739555422699842300,10.78584228515625,-0.05050547420978546,-0.36704352498054504,0.015193447470664978
1739555422709911300,10.795911376953125,-0.09676991403102875,-0.3547695279121399,0.02170860394835472
1739555422719981300,10.805981201171875,-0.1222052127122879,-0.32904213666915894,0.03435277193784714
1739555422730051300,10.81605126953125,-0.11950929462909698,-0.29371798038482666,0.06998853385448456
1739555422740121300,10.826121337890624,-0.09406149387359619,-0.26028144359588623,0.13547112047672272
1739555422750191000,10.836191162109374,-0.04928204417228699,-0.21320182085037231,0.22477756440639496
1739555422760261400,10.846261474609374,-0.006981512997299433,-0.21186935901641846,0.3098892271518707
1739555422770331400,10.856331298828126,0.03284606337547302,-0.24157825112342834,0.3716428875923157
1739555422780401200,10.866401123046876,0.04994558170437813,-0.3284226655960083,0.3902028799057007
1739555422790471400,10.876471435546875,0.008533427491784096,-0.4754089117050171,0.33909842371940613
1739555422800541400,10.88654150390625,-0.09762270748615265,-0.6873530149459839,0.20207206904888153
1739555422810611200,10.896611083984375,-0.2597847282886505,-0.9284055829048157,-0.0026238178834319115
1739555422820681200,10.90668115234375,-0.48955702781677246,-1.1601008176803589,-0.2409954071044922
1739555422830751500,10.91675146484375,-0.7430825233459473,-1.3014219999313354,-0.45865023136138916
1739555422840821200,10.9268212890625,-1.0011316537857056,-1.2709510326385498,-0.634075939655304
1739555422850891300,10.936891357421874,-1.237233281135559,-1.1104180812835693,-0.755866527557373
1739555422860961500,10.94696142578125,-1.3775416612625122,-0.757800281047821,-0.7902078628540039
1739555422871031300,10.95703125,-1.3756837844848633,-0.2915023863315582,-0.7301400303840637
1739555422881101300,10.967101318359376,-1.2320295572280884,0.217759907245636,-0.6018821001052856
1739555422891171300,10.97717138671875,-0.9702907204627991,0.7043660283088684,-0.42097628116607666
1739555422901241300,10.987241455078125,-0.6487213373184204,1.1054555177688599,-0.20106732845306396
1739555422911311400,10.997311279296875,-0.3332099914550781,1.332008719444275,0.042633477598428726
1739555422921381000,11.007381103515625,-0.06392478942871094,1.3728824853897095,0.29124540090560913
1739555422931451400,11.017451416015625,0.15877220034599304,1.2760027647018433,0.5399715900421143
1739555422941521400,11.027521484375,0.3354092240333557,1.0656758546829224,0.7733697295188904
1739555422951590400,11.03759033203125,0.4602433145046234,0.7766896486282349,0.9745270609855652
1739555422961660400,11.047660400390624,0.5318679809570312,0.4357201159000397,1.1401485204696655
1739555422971730200,11.057730224609376,0.5491809248924255,0.05146487429738045,1.2429252862930298
1739555422981800200,11.06780029296875,0.4995742738246918,-0.3396604061126709,1.2448283433914185
1739555422991870500,11.077870361328126,0.37580597400665283,-0.7169485092163086,1.1282579898834229
1739555423001940200,11.087940185546875,0.16692832112312317,-1.069201111793518,0.8965966105461121
1739555423012010200,11.09801025390625,-0.12544548511505127,-1.372646689414978,0.5575996041297913
1739555423022080500,11.10808056640625,-0.45978018641471863,-1.5504988431930542,0.1785503774881363
1739555423032150300,11.118150390625,-0.7775182127952576,-1.4994961023330688,-0.17103052139282227
1739555423042220300,11.12822021484375,-1.0588747262954712,-1.2135260105133057,-0.44595542550086975
1739555423052290600,11.13829052734375,-1.2466810941696167,-0.7214908599853516,-0.6170981526374817
1739555423062360300,11.1483603515625,-1.286916971206665,-0.1084473729133606,-0.677039384841919
1739555423072430300,11.158430419921874,-1.157784342765808,0.4497906267642975,-0.660227358341217
1739555423082500000,11.1685,-0.8835850358009338,0.8600128889083862,-0.5919008851051331
1739555423092570400,11.1785703125,-0.5520092248916626,1.078477144241333,-0.472474604845047
1739555423102640400,11.188640380859376,-0.24391622841358185,1.0859553813934326,-0.3403158187866211
1739555423112710100,11.198710205078125,0.011116063222289085,0.9141032099723816,-0.21306546032428741
1739555423122780400,11.208780517578125,0.22113604843616486,0.6205008625984192,-0.09905102849006653
1739555423132850400,11.218850341796875,0.37334877252578735,0.32056713104248047,-0.006897401064634323
1739555423142920200,11.228920166015625,0.4417386054992676,0.053527943789958954,0.05289869382977486
1739555423152990500,11.238990478515625,0.4448734223842621,-0.151341050863266,0.08455009758472443
1739555423163060500,11.249060546875,0.411334365606308,-0.28633883595466614,0.06879713386297226
1739555423173129200,11.259129150390624,0.3535163402557373,-0.34338560700416565,-0.003987055271863937
1739555423183199500,11.269199462890626,0.27154541015625,-0.35604164004325867,-0.11479660123586655
1739555423193269200,11.279269287109376,0.18205441534519196,-0.3493768274784088,-0.24516712129116058
1739555423203339300,11.28933935546875,0.09012790769338608,-0.3269609212875366,-0.37868446111679077
1739555423213409500,11.299409423828125,0.012160135433077812,-0.2923821806907654,-0.4808065593242645
1739555423223479300,11.309479248046875,-0.051008276641368866,-0.22145065665245056,-0.533178985118866
1739555423233549300,11.31954931640625,-0.07763083279132843,-0.12977293133735657,-0.5361729264259338
1739555423243619300,11.329619384765625,-0.07055238634347916,-0.01799112930893898,-0.49408602714538574
1739555423253689300,11.339689453125,-0.03976810723543167,0.10658195614814758,-0.42985615134239197
1739555423263759400,11.34975927734375,0.02052840031683445,0.19301488995552063,-0.35552215576171875
1739555423273829000,11.3598291015625,0.09035621583461761,0.22425377368927002,-0.28976550698280334
1739555423283899400,11.3698994140625,0.1589602530002594,0.20919843018054962,-0.2284458577632904
1739555423293969400,11.379969482421876,0.20779304206371307,0.14425911009311676,-0.18390396237373352
1739555423304039200,11.3900390625,0.24852995574474335,0.0663420557975769,-0.16773952543735504
1739555423314109400,11.400109375,0.26915881037712097,0.004169759806245565,-0.17140616476535797
1739555423324179200,11.41017919921875,0.2719631791114807,-0.02150406874716282,-0.20139917731285095
1739555423334249000,11.4202490234375,0.26739639043807983,0.006809860002249479,-0.23189690709114075
1739555423344319200,11.4303193359375,0.26083627343177795,0.03668775036931038,-0.22722339630126953
1739555423354389200,11.44038916015625,0.2431904673576355,0.08718182146549225,-0.1782156378030777
1739555423364459000,11.450458984375,0.23243781924247742,0.18169039487838745,-0.07950232923030853
1739555423374529000,11.460529052734374,0.22748513519763947,0.2765128016471863,0.02334868721663952
1739555423384598000,11.470597900390626,0.22467413544654846,0.2976243197917938,0.09792739152908325
1739555423394668000,11.48066796875,0.24917548894882202,0.2710758149623871,0.14047352969646454
1739555423404738300,11.49073828125,0.2707107961177826,0.19856971502304077,0.1527775675058365
1739555423414808000,11.50080810546875,0.2847498953342438,0.11457280814647675,0.14374172687530518
1739555423424878000,11.510878173828125,0.28211158514022827,0.06425881385803223,0.1357872486114502
1739555423434948000,11.520947998046875,0.2796798646450043,0.04322969540953636,0.13295550644397736
1739555423445018000,11.53101806640625,0.26826906204223633,0.04954160749912262,0.13330742716789246
1739555423455088000,11.541088134765625,0.2497696727514267,0.09958266466856003,0.1307702362537384
1739555423465158100,11.551158203125,0.22473809123039246,0.14823228120803833,0.12086822837591171
1739555423475228200,11.561228271484374,0.1954776793718338,0.18918876349925995,0.10874631255865097
1739555423485298200,11.571298095703124,0.18291354179382324,0.22948943078517914,0.11103562265634537
1739555423495368000,11.581367919921876,0.18028633296489716,0.24805378913879395,0.13044659793376923
1739555423505438200,11.591438232421876,0.18572716414928436,0.23893608152866364,0.14512479305267334
1739555423515508200,11.60150830078125,0.21628452837467194,0.2625484764575958,0.1510559320449829
1739555423525578000,11.611577880859375,0.26884520053863525,0.38428935408592224,0.15438085794448853
1739555423535648000,11.62164794921875,0.33640560507774353,0.5296292901039124,0.13601675629615784
1739555423545718300,11.63171826171875,0.4106883406639099,0.542393147945404,0.080081507563591
1739555423555788000,11.6417880859375,0.4778127670288086,0.43279337882995605,-0.026882223784923553
1739555423565858000,11.651858154296875,0.5077868103981018,0.2659224569797516,-0.17571169137954712
1739555423575928300,11.66192822265625,0.4730176627635956,0.06113549321889877,-0.3567906618118286
1739555423585997000,11.6719970703125,0.35992100834846497,-0.13651135563850403,-0.5273042917251587
1739555423596067000,11.682067138671876,0.1896187663078308,-0.279304176568985,-0.6518959999084473
1739555423606137000,11.69213720703125,-0.0003490629605948925,-0.4189521372318268,-0.7299408912658691
1739555423616207000,11.70220703125,-0.13962732255458832,-0.5163577795028687,-0.730401873588562
1739555423626277000,11.712277099609375,-0.19620026648044586,-0.4791927933692932,-0.6314536333084106
1739555423636347100,11.72234716796875,-0.1822655349969864,-0.26687920093536377,-0.46485450863838196
1739555423646417200,11.732417236328125,-0.08221683651208878,0.017768045887351036,-0.27343320846557617
1739555423656487200,11.742487060546875,0.06819503754377365,0.3202328383922577,-0.07376161962747574
1739555423666557200,11.75255712890625,0.2217349261045456,0.5935627222061157,0.10207407176494598
1739555423676627200,11.762627197265624,0.35237762331962585,0.7996228933334351,0.2633655071258545
1739555423686697000,11.772697021484374,0.46055105328559875,0.9383509159088135,0.40880662202835083
1739555423696767000,11.78276708984375,0.5231407284736633,0.9820824265480042,0.5250495672225952
1739555423706837200,11.792837158203126,0.5690373182296753,0.9974530935287476,0.6171163320541382
1739555423716907000,11.802906982421876,0.5897729396820068,0.9994955062866211,0.6933298707008362
1739555423726977000,11.81297705078125,0.5960029363632202,0.9944899678230286,0.7411210536956787
1739555423737047300,11.82304736328125,0.5945573449134827,0.979583203792572,0.7547465562820435
1739555423747117000,11.833116943359375,0.581283688545227,0.9391440153121948,0.7360068559646606
1739555423757187000,11.84318701171875,0.5515242218971252,0.8291679620742798,0.6858411431312561
1739555423767257000,11.853257080078125,0.5125110149383545,0.5885939002037048,0.5937729477882385
1739555423777327000,11.8633271484375,0.4674130380153656,0.23762598633766174,0.46991652250289917
1739555423787396000,11.87339599609375,0.42003333568573,-0.1746777892112732,0.32683277130126953
1739555423797466000,11.883466064453126,0.38459038734436035,-0.5721942782402039,0.18425913155078888
1739555423807536000,11.8935361328125,0.3685362935066223,-0.8738937973976135,0.06851822137832642
1739555423817606100,11.903606201171876,0.32894814014434814,-1.0705647468566895,-0.025719868019223213
1739555423827676200,11.91367626953125,0.2815033793449402,-1.1752078533172607,-0.09251078218221664
1739555423837746200,11.92374609375,0.22802257537841797,-1.175055742263794,-0.11668775230646133
1739555423847816200,11.933816162109375,0.17560414969921112,-1.1089253425598145,-0.1157454401254654
1739555423857886000,11.943885986328125,0.1403798609972,-0.9648435711860657,-0.10587576031684875
1739555423867956200,11.953956298828125,0.1083686575293541,-0.7529731392860413,-0.10331353545188904
1739555423878026000,11.96402587890625,0.06533490121364594,-0.53840172290802,-0.13012970983982086
1739555423888096000,11.974095947265624,0.018263036385178566,-0.3310938775539398,-0.17287218570709229
1739555423898166300,11.984166259765624,-0.03368351608514786,-0.13114826381206512,-0.20647647976875305
1739555423908236000,11.994236083984376,-0.07672402262687683,0.0353236049413681,-0.2212192565202713
1739555423918306000,12.00430615234375,-0.09255731850862503,0.17069581151008606,-0.21334508061408997
1739555423928376300,12.014376220703125,-0.07914721220731735,0.24825136363506317,-0.1698632687330246
1739555423938446000,12.024446044921875,-0.04092126339673996,0.2744278609752655,-0.1068829745054245
1739555423948516000,12.03451611328125,0.009761160239577293,0.25712063908576965,-0.044885192066431046
1739555423958586000,12.044586181640625,0.06246671825647354,0.1890033632516861,0.00851784460246563
1739555423968655000,12.054655029296875,0.08188953995704651,0.09602172672748566,0.05604582279920578
1739555423978725000,12.06472509765625,-0.03462562337517738,-0.1389164924621582,0.11718108505010605
1739555423988795100,12.074795166015624,-0.07808342576026917,-0.1022273376584053,0.20942746102809906
1739555423998865200,12.084865234375,-0.018446195870637894,-0.05821008235216141,0.24610717594623566
1739555424008935200,12.09493505859375,0.06289636343717575,-0.0521208792924881,0.21242797374725342
1739555424019005200,12.105005126953126,0.1116362065076828,-0.040306828916072845,0.14322732388973236
1739555424029075200,12.1150751953125,0.11436723172664642,0.016747066751122475,0.08782937377691269
1739555424039145200,12.125145263671875,0.0988929346203804,0.031252771615982056,0.041397154331207275
1739555424049215000,12.135215087890625,0.07152555882930756,-0.021087242290377617,-0.0047762710601091385
1739555424059285200,12.14528515625,0.021286893635988235,-0.12580619752407074,-0.029001183807849884
1739555424069355000,12.15535498046875,-0.04440823197364807,-0.24857020378112793,-0.04215000942349434
1739555424079425000,12.165425048828125,-0.1089768335223198,-0.3678819239139557,-0.04120831564068794
1739555424089495300,12.175495361328124,-0.17086729407310486,-0.45004111528396606,-0.03479495644569397
1739555424099565000,12.18556494140625,-0.23724311590194702,-0.45370084047317505,-0.032538995146751404
1739555424109635000,12.195635009765626,-0.29864639043807983,-0.4299143850803375,-0.03866143524646759
1739555424119705000,12.205705078125,-0.33855465054512024,-0.37912338972091675,-0.05855711176991463
1739555424129775000,12.215775146484376,-0.3574504852294922,-0.29993101954460144,-0.07084871083498001
1739555424139845000,12.22584521484375,-0.35142776370048523,-0.20321780443191528,-0.08014047890901566
1739555424149915100,12.2359150390625,-0.3293415307998657,-0.11181037873029709,-0.07825122773647308
1739555424159984000,12.245984130859375,-0.29531779885292053,-0.039111942052841187,-0.08289258182048798
1739555424170054100,12.25605419921875,-0.2682960629463196,-0.007457725238054991,-0.10264772176742554
1739555424180124200,12.266124267578125,-0.24958254396915436,-0.029652509838342667,-0.1318998783826828
1739555424190194200,12.276194091796874,-0.2551986575126648,-0.09877859055995941,-0.16288603842258453
1739555424200264200,12.28626416015625,-0.27651381492614746,-0.16963651776313782,-0.18738019466400146
1739555424210334000,12.296333984375,-0.3075011372566223,-0.22842468321323395,-0.2023630142211914
1739555424220404200,12.306404296875,-0.32715898752212524,-0.25649386644363403,-0.19887854158878326
1739555424230474200,12.31647412109375,-0.33652836084365845,-0.24436241388320923,-0.183026984333992
