time,seconds_elapsed,z,y,x
1739555411945134600,0.031134521484375,-30.7056884765625,-21.533851623535156,-16.30941390991211
1739555411955203800,0.041203857421875,-30.779754638671875,-21.215591430664062,-16.417200088500977
1739555411965273600,0.051273681640625,-31.0247802734375,-21.878822326660156,-16.583486557006836
1739555411975343600,0.061343505859375,-30.956878662109375,-22.408599853515625,-16.82823944091797
1739555411985414000,0.071413818359375,-31.13824462890625,-22.433631896972656,-16.89885902404785
1739555411995483600,0.081483642578125,-31.574249267578125,-22.590194702148438,-16.89999771118164
1739555412005553700,0.0915537109375,-31.115325927734375,-22.67682647705078,-16.594552993774414
1739555412015622700,0.10162255859375,-31.342864990234375,-22.546127319335938,-16.630828857421875
1739555412025692700,0.111692626953125,-31.105133056640625,-22.489295959472656,-16.655912399291992
1739555412035762700,0.1217626953125,-31.5311279296875,-22.238243103027344,-16.72977066040039
1739555412045832700,0.131832763671875,-31.45947265625,-22.31183624267578,-16.698699951171875
1739555412055902700,0.14190283203125,-31.64569091796875,-22.06200408935547,-16.29483985900879
1739555412065971700,0.1519716796875,-31.527069091796875,-22.44940948486328,-16.558475494384766
1739555412076041700,0.162041748046875,-31.180084228515625,-22.25617218017578,-16.682531356811523
1739555412086111700,0.17211181640625,-31.05828857421875,-22.370704650878906,-16.703834533691406
1739555412096181500,0.182181396484375,-31.170135498046875,-22.38568878173828,-16.731618881225586
1739555412106251800,0.192251708984375,-31.149688720703125,-22.5072021484375,-16.713024139404297
1739555412116321800,0.20232177734375,-31.129241943359375,-22.24134063720703,-16.799175262451172
1739555412126390800,0.212390869140625,-31.1796875,-22.20063018798828,-16.76700782775879
1739555412136460800,0.222460693359375,-31.317474365234375,-22.255027770996094,-16.744905471801758
1739555412146530600,0.232530517578125,-31.400604248046875,-22.23162078857422,-16.946794509887695
1739555412156600800,0.242600830078125,-31.294525146484375,-21.97834014892578,-16.713735580444336
1739555412166670800,0.2526708984375,-31.19683837890625,-22.03577423095703,-16.779050827026367
1739555412176740600,0.26274072265625,-31.17877197265625,-21.959190368652344,-16.624895095825195
1739555412186809900,0.272809814453125,-31.397796630859375,-21.81682586669922,-16.758874893188477
1739555412196879600,0.282879638671875,-31.606658935546875,-21.711097717285156,-16.61145782470703
1739555412206949600,0.29294970703125,-31.757415771484375,-21.755104064941406,-16.8560791015625
1739555412217020000,0.30302001953125,-31.94622802734375,-21.692855834960938,-16.668561935424805
1739555412227089700,0.313089599609375,-31.694976806640625,-21.65338134765625,-16.632604598999023
1739555412237158700,0.32315869140625,-31.532867431640625,-21.472015380859375,-16.710615158081055
1739555412247228700,0.333228759765625,-31.803955078125,-21.434036254882812,-16.92035484313965
1739555412257298700,0.343298583984375,-31.66119384765625,-21.373451232910156,-16.82444190979004
1739555412267368700,0.35336865234375,-32.252716064453125,-21.49712371826172,-16.859844207763672
1739555412277438700,0.363438720703125,-32.21136474609375,-21.36901092529297,-16.81324577331543
1739555412287508700,0.3735087890625,-31.826324462890625,-21.36492156982422,-16.811935424804688
1739555412297577700,0.38357763671875,-31.5419921875,-21.522567749023438,-17.012428283691406
1739555412307648000,0.39364794921875,-31.54046630859375,-21.355926513671875,-16.782608032226562
1739555412317717800,0.4037177734375,-31.266387939453125,-21.077903747558594,-16.672605514526367
1739555412327787800,0.413787841796875,-31.217193603515625,-21.227493286132812,-16.618757247924805
1739555412337857800,0.42385791015625,-31.454498291015625,-21.482215881347656,-16.708574295043945
1739555412347926800,0.4339267578125,-31.524017333984375,-21.397056579589844,-16.973709106445312
1739555412357997000,0.4439970703125,-31.59527587890625,-21.40418243408203,-16.99877166748047
1739555412368066800,0.45406689453125,-31.557830810546875,-21.328994750976562,-17.250661849975586
1739555412378136800,0.46413671875,-31.306304931640625,-21.271018981933594,-17.259531021118164
1739555412388206800,0.474206787109375,-31.49005126953125,-21.277359008789062,-17.29017448425293
1739555412398276900,0.48427685546875,-31.734100341796875,-21.419052124023438,-17.52492332458496
1739555412408345900,0.494345947265625,-31.328643798828125,-21.25096893310547,-17.068302154541016
1739555412418415900,0.504415771484375,-31.452850341796875,-21.313491821289062,-17.080970764160156
1739555412428486000,0.51448583984375,-31.284576416015625,-21.207008361816406,-16.97953224182129
1739555412438555600,0.5245556640625,-31.617828369140625,-21.142990112304688,-17.127304077148438
1739555412448626000,0.5346259765625,-31.54339599609375,-21.11212158203125,-17.011320114135742
1739555412458696000,0.544696044921875,-31.677276611328125,-21.06280517578125,-17.126384735107422
1739555412468764700,0.5547646484375,-31.563232421875,-20.943679809570312,-16.977787017822266
1739555412478835000,0.5648349609375,-31.890716552734375,-21.150421142578125,-17.30914878845215
1739555412488904700,0.57490478515625,-31.4368896484375,-20.736671447753906,-17.05963706970215
1739555412498974700,0.584974609375,-31.23150634765625,-21.107025146484375,-16.90340232849121
1739555412509045000,0.595044921875,-31.406402587890625,-21.179351806640625,-17.088367462158203
1739555412519114800,0.60511474609375,-31.587371826171875,-21.034278869628906,-16.69341278076172
1739555412529183700,0.615183837890625,-31.855010986328125,-21.17681121826172,-16.840662002563477
1739555412539253800,0.625253662109375,-31.7548828125,-21.09406280517578,-16.995027542114258
1739555412549323800,0.63532373046875,-31.860443115234375,-21.00652313232422,-16.902555465698242
1739555412559393800,0.645393798828125,-31.8216552734375,-21.000755310058594,-16.805217742919922
1739555412569463800,0.6554638671875,-31.662750244140625,-21.060806274414062,-16.731809616088867
1739555412579533800,0.665533935546875,-31.846435546875,-21.19507598876953,-16.769927978515625
1739555412589602800,0.675602783203125,-32.05072021484375,-21.221893310546875,-16.881052017211914
1739555412599672800,0.6856728515625,-31.92596435546875,-21.009841918945312,-17.107440948486328
1739555412609742800,0.695742919921875,-31.6689453125,-20.690895080566406,-16.90504264831543
1739555412619812600,0.7058125,-31.945831298828125,-20.719970703125,-16.945585250854492
1739555412629883000,0.7158828125,-31.771270751953125,-20.815460205078125,-17.140993118286133
1739555412639952000,0.725951904296875,-31.75994873046875,-20.692123413085938,-17.20180320739746
1739555412650022000,0.73602197265625,-31.233917236328125,-20.518714904785156,-17.426197052001953
1739555412660092000,0.746091796875,-31.509979248046875,-20.71136474609375,-17.186553955078125
1739555412670161700,0.75616162109375,-31.333953857421875,-20.567123413085938,-17.105052947998047
1739555412680232000,0.76623193359375,-31.539642333984375,-20.699447631835938,-16.978723526000977
1739555412690302000,0.776302001953125,-31.706451416015625,-20.39348602294922,-17.28581428527832
1739555412700370700,0.78637060546875,-31.466644287109375,-20.280906677246094,-17.278377532958984
1739555412710441000,0.79644091796875,-31.80999755859375,-20.651268005371094,-17.409584045410156
1739555412720510700,0.8065107421875,-31.624114990234375,-20.38660430908203,-17.314085006713867
1739555412730580700,0.816580810546875,-31.837921142578125,-20.573143005371094,-17.146448135375977
1739555412740651000,0.826651123046875,-31.92950439453125,-20.39537811279297,-17.07539939880371
1739555412750720800,0.836720703125,-31.8106689453125,-20.61705780029297,-17.18255615234375
1739555412760789800,0.846789794921875,-31.985992431640625,-20.686012268066406,-17.384042739868164
1739555412770859800,0.85685986328125,-31.97222900390625,-20.734527587890625,-17.258893966674805
1739555412780929800,0.8669296875,-31.757232666015625,-20.607803344726562,-17.242334365844727
1739555412790999800,0.876999755859375,-31.5098876953125,-20.582176208496094,-17.227087020874023
1739555412801069800,0.88706982421875,-31.71026611328125,-20.497901916503906,-17.08742332458496
1739555412811139800,0.897139892578125,-31.811798095703125,-20.583480834960938,-17.227130889892578
1739555412821209900,0.9072099609375,-32.033660888671875,-20.72943115234375,-17.274436950683594
1739555412831278800,0.91727880859375,-32.039093017578125,-20.675735473632812,-17.368864059448242
1739555412841348900,0.927348876953125,-31.571929931640625,-20.624420166015625,-17.562938690185547
1739555412851418600,0.937418701171875,-31.7330322265625,-20.735641479492188,-17.74626350402832
1739555412861489000,0.947489013671875,-31.5831298828125,-20.793800354003906,-17.67566680908203
1739555412871559000,0.957558837890625,-31.56109619140625,-20.539291381835938,-17.608253479003906
1739555412881628700,0.967628662109375,-31.5262451171875,-20.85216522216797,-17.420644760131836
1739555412891698000,0.977697998046875,-31.876373291015625,-20.738632202148438,-17.464696884155273
1739555412901767700,0.987767578125,-32.040557861328125,-20.62908935546875,-17.409204483032227
1739555412911837700,0.997837646484375,-31.546905517578125,-20.58910369873047,-17.443439483642578
1739555412921908000,1.007907958984375,-31.501617431640625,-20.661293029785156,-17.366270065307617
1739555412931977700,1.017977783203125,-31.584716796875,-20.70159912109375,-17.398744583129883
1739555412942047700,1.0280478515625,-31.854095458984375,-20.87792205810547,-17.52303123474121
1739555412952116700,1.03811669921875,-31.6719970703125,-20.575401306152344,-17.205642700195312
1739555412962186800,1.048186767578125,-31.87640380859375,-20.535049438476562,-17.568477630615234
1739555412972257000,1.058257080078125,-31.709075927734375,-20.71595001220703,-17.52288246154785
1739555412982326800,1.068326904296875,-31.685943603515625,-20.740371704101562,-17.51336669921875
1739555412992396800,1.078396728515625,-31.9022216796875,-20.629074096679688,-17.607515335083008
1739555413002466800,1.088466796875,-31.96044921875,-20.583160400390625,-17.710756301879883
1739555413012535800,1.098535888671875,-31.997833251953125,-20.539772033691406,-17.7484130859375
1739555413022605800,1.108605712890625,-31.428466796875,-20.69207763671875,-17.581222534179688
1739555413032675800,1.11867578125,-31.365234375,-20.58252716064453,-17.656312942504883
1739555413042745900,1.128745849609375,-31.473419189453125,-20.84412384033203,-17.591272354125977
1739555413052816000,1.13881591796875,-31.451690673828125,-21.03081512451172,-17.55976104736328
1739555413062886000,1.148885986328125,-31.251220703125,-21.300918579101562,-17.719585418701172
1739555413072956000,1.158955810546875,-31.456451416015625,-20.986289978027344,-17.506933212280273
1739555413083024600,1.169024658203125,-31.746795654296875,-20.819686889648438,-17.61457061767578
1739555413093095000,1.179094970703125,-31.780303955078125,-20.78687286376953,-17.85326385498047
1739555413103165000,1.1891650390625,-31.90087890625,-20.787673950195312,-17.702964782714844
1739555413113234700,1.199234619140625,-31.8919677734375,-20.921096801757812,-17.633325576782227
1739555413123305000,1.209304931640625,-31.886962890625,-21.000083923339844,-17.73458480834961
1739555413133375000,1.219375,-31.64129638671875,-20.811866760253906,-17.796327590942383
1739555413143444700,1.22944482421875,-32.233306884765625,-20.539695739746094,-17.45374870300293
1739555413153514000,1.239513916015625,-31.96142578125,-20.45892333984375,-17.504213333129883
1739555413163583700,1.249583740234375,-31.8818359375,-20.491111755371094,-17.580305099487305
1739555413173653800,1.25965380859375,-31.98638916015625,-20.744468688964844,-17.40540885925293
1739555413183724000,1.26972412109375,-32.08123779296875,-20.858154296875,-17.659740447998047
1739555413193793800,1.279793701171875,-31.9805908203125,-20.826705932617188,-17.610074996948242
1739555413203863800,1.28986376953125,-32.034423828125,-20.770301818847656,-17.737016677856445
1739555413213933800,1.299933837890625,-31.720947265625,-20.61254119873047,-17.556779861450195
1739555413224002800,1.3100029296875,-31.680389404296875,-20.499305725097656,-17.712963104248047
1739555413234072800,1.32007275390625,-31.435943603515625,-20.479293823242188,-17.574920654296875
1739555413244142800,1.330142822265625,-31.5355224609375,-20.762474060058594,-17.63457489013672
1739555413254212900,1.340212890625,-31.60137939453125,-20.724571228027344,-17.756488800048828
1739555413264283000,1.350282958984375,-31.53863525390625,-20.472244262695312,-17.695398330688477
1739555413274353000,1.360352783203125,-31.605224609375,-20.85760498046875,-17.476150512695312
1739555413284423000,1.3704228515625,-31.619110107421875,-20.653182983398438,-17.438140869140625
1739555413294491600,1.38049169921875,-31.746246337890625,-20.53905487060547,-17.469762802124023
1739555413304562000,1.39056201171875,-31.56524658203125,-20.406951904296875,-17.51261329650879
1739555413314631700,1.400631591796875,-31.60235595703125,-20.73487091064453,-17.569456100463867
1739555413324701700,1.41070166015625,-31.547332763671875,-20.56897735595703,-17.779720306396484
1739555413334771700,1.420771728515625,-31.652008056640625,-20.47936248779297,-17.712947845458984
1739555413344841700,1.430841796875,-31.955657958984375,-20.36339569091797,-17.592077255249023
1739555413354911700,1.440911865234375,-32.052734375,-20.512832641601562,-17.90808868408203
1739555413364980700,1.450980712890625,-31.6495361328125,-20.426124572753906,-17.902416229248047
1739555413375050800,1.46105078125,-31.72412109375,-20.344573974609375,-17.5952091217041
1739555413385120500,1.47112060546875,-31.546417236328125,-20.361679077148438,-17.759258270263672
1739555413395190800,1.481190673828125,-31.49884033203125,-20.426246643066406,-17.84511375427246
1739555413405260800,1.4912607421875,-31.848297119140625,-20.54315185546875,-17.744277954101562
1739555413415330600,1.50133056640625,-31.5849609375,-20.502426147460938,-17.56424903869629
1739555413425400800,1.51140087890625,-31.81805419921875,-20.522300720214844,-17.632171630859375
1739555413435470600,1.521470703125,-31.950653076171875,-20.617965698242188,-17.66324806213379
1739555413445539800,1.531539794921875,-31.688690185546875,-20.490234375,-17.55380630493164
1739555413455609900,1.54160986328125,-31.583251953125,-20.501617431640625,-17.399734497070312
1739555413465679600,1.5516796875,-31.8555908203125,-20.35601043701172,-17.500160217285156
1739555413475749600,1.56174951171875,-32.185333251953125,-20.518875122070312,-17.596235275268555
1739555413485820000,1.57181982421875,-32.014495849609375,-20.511886596679688,-17.59577751159668
1739555413495889700,1.5818896484375,-32.201416015625,-20.408187866210938,-17.658761978149414
1739555413505959700,1.591959716796875,-32.189727783203125,-20.619125366210938,-17.575977325439453
1739555413516028700,1.602028564453125,-32.044464111328125,-20.575950622558594,-17.6779842376709
1739555413526098700,1.6120986328125,-31.403594970703125,-20.55004119873047,-17.58013916015625
1739555413536168700,1.622168701171875,-31.463714599609375,-20.5880126953125,-17.921981811523438
1739555413546238700,1.63223876953125,-31.435699462890625,-20.87561798095703,-17.725797653198242
1739555413556308700,1.642308837890625,-31.1331787109375,-20.764366149902344,-17.780607223510742
1739555413566378500,1.65237841796875,-31.617889404296875,-20.437576293945312,-17.806215286254883
1739555413576448800,1.66244873046875,-31.94873046875,-20.543426513671875,-17.588199615478516
1739555413586518800,1.672518798828125,-32.04693603515625,-20.761886596679688,-17.531858444213867
1739555413596588500,1.682588623046875,-32.029571533203125,-20.594154357910156,-17.784835815429688
1739555413606657800,1.69265771484375,-31.999298095703125,-20.50537109375,-17.89225959777832
1739555413616727600,1.7027275390625,-31.958892822265625,-20.4356689453125,-17.82175064086914
1739555413626797600,1.712797607421875,-32.030029296875,-20.628990173339844,-17.765201568603516
1739555413636867800,1.722867919921875,-32.131683349609375,-20.508071899414062,-17.57918930053711
1739555413646937600,1.7329375,-31.998138427734375,-20.42938995361328,-17.780546188354492
1739555413657007600,1.743007568359375,-32.132354736328125,-20.343276977539062,-17.57206153869629
1739555413667078000,1.753077880859375,-32.0640869140625,-20.424102783203125,-17.627954483032227
1739555413677147600,1.763147705078125,-31.7225341796875,-20.438934326171875,-17.73469352722168
1739555413687216600,1.773216552734375,-31.84393310546875,-20.403076171875,-17.616113662719727
1739555413697286700,1.78328662109375,-31.705535888671875,-20.606658935546875,-17.92637062072754
1739555413707356700,1.793356689453125,-31.6015625,-20.677780151367188,-17.63852882385254
1739555413717426700,1.8034267578125,-32.00244140625,-20.57282257080078,-17.537809371948242
1739555413727496700,1.81349658203125,-31.896240234375,-20.346023559570312,-17.662994384765625
1739555413737566700,1.823566650390625,-31.892578125,-20.51129913330078,-17.931045532226562
1739555413747636700,1.83363671875,-31.968780517578125,-20.479476928710938,-17.701732635498047
1739555413757706800,1.843706787109375,-31.986175537109375,-20.509902954101562,-17.493467330932617
1739555413767775700,1.853775634765625,-32.19708251953125,-20.66161346435547,-17.65030860900879
1739555413777845500,1.863845458984375,-31.819091796875,-20.317047119140625,-17.73526954650879
1739555413787915800,1.873915771484375,-31.801025390625,-20.519065856933594,-17.76153564453125
1739555413797985800,1.88398583984375,-31.761566162109375,-20.66118621826172,-17.857376098632812
1739555413808055600,1.8940556640625,-31.964935302734375,-20.647293090820312,-17.834692001342773
1739555413818125800,1.904125732421875,-32.15228271484375,-20.5126953125,-17.64320945739746
1739555413828195800,1.91419580078125,-31.978179931640625,-20.360145568847656,-17.412822723388672
1739555413838265600,1.924265625,-31.74041748046875,-20.463546752929688,-17.511459350585938
1739555413848335600,1.934335693359375,-32.097503662109375,-20.50434112548828,-17.776704788208008
1739555413858404600,1.944404541015625,-32.365142822265625,-20.37279510498047,-17.478673934936523
1739555413868474600,1.954474609375,-32.608367919921875,-20.485389709472656,-17.41107749938965
1739555413878545000,1.964544921875,-32.120880126953125,-20.654006958007812,-17.446964263916016
1739555413888614700,1.97461474609375,-32.0089111328125,-20.690216064453125,-17.401636123657227
1739555413898684700,1.9846845703125,-31.846435546875,-20.460311889648438,-17.50697898864746
1739555413908754700,1.994754638671875,-31.865509033203125,-20.60913848876953,-17.485065460205078
1739555413918824700,2.00482470703125,-32.185546875,-20.52423858642578,-17.512950897216797
1739555413928894700,2.014894775390625,-32.1251220703125,-20.62732696533203,-17.72829246520996
1739555413938964500,2.024964599609375,-32.24676513671875,-20.539260864257812,-17.5524959564209
1739555413949033700,2.03503369140625,-32.254669189453125,-20.50188446044922,-17.662229537963867
1739555413959103500,2.045103515625,-32.17279052734375,-20.4996337890625,-17.610313415527344
1739555413969173800,2.055173828125,-32.049407958984375,-20.373764038085938,-17.65472412109375
1739555413979243800,2.065243896484375,-32.182159423828125,-20.386276245117188,-17.663400650024414
1739555413989313500,2.0753134765625,-31.976959228515625,-20.488319396972656,-17.47310447692871
1739555413999383800,2.0853837890625,-31.911651611328125,-20.5662841796875,-17.540374755859375
1739555414009453800,2.095453857421875,-32.35797119140625,-20.387405395507812,-17.49854278564453
1739555414019523600,2.105523681640625,-32.115997314453125,-20.625457763671875,-17.524362564086914
1739555414029593600,2.115593505859375,-31.7161865234375,-20.52635955810547,-17.47405433654785
1739555414039662600,2.12566259765625,-31.96240234375,-20.47130584716797,-17.64394187927246
1739555414049732600,2.135732666015625,-32.250396728515625,-20.256629943847656,-17.56584358215332
1739555414059803000,2.145802978515625,-32.12799072265625,-20.35602569580078,-17.710533142089844
1739555414069872600,2.15587255859375,-32.621185302734375,-20.162979125976562,-17.723854064941406
1739555414079942700,2.165942626953125,-32.25018310546875,-20.51556396484375,-17.601991653442383
1739555414090012700,2.1760126953125,-32.031341552734375,-20.443626403808594,-17.55699348449707
1739555414100082700,2.186082763671875,-32.148834228515625,-20.105987548828125,-17.99289894104004
1739555414110152700,2.196152587890625,-32.20672607421875,-19.853744506835938,-17.887496948242188
1739555414120222700,2.20622265625,-32.167694091796875,-20.006851196289062,-17.96795654296875
1739555414130291700,2.216291748046875,-32.414825439453125,-19.919296264648438,-17.94684410095215
1739555414140361700,2.22636181640625,-31.7391357421875,-19.931968688964844,-17.989913940429688
1739555414150431700,2.236431640625,-32.003143310546875,-20.236160278320312,-17.841672897338867
1739555414160501800,2.246501708984375,-32.020965576171875,-19.965232849121094,-17.796655654907227
1739555414170571800,2.25657177734375,-32.159027099609375,-20.012863159179688,-17.853662490844727
1739555414180641500,2.2666416015625,-32.02996826171875,-19.772689819335938,-17.951974868774414
1739555414190711800,2.2767119140625,-31.94598388671875,-19.90271759033203,-18.100587844848633
1739555414200781600,2.286781494140625,-31.939971923828125,-19.957008361816406,-18.121248245239258
1739555414210851600,2.2968515625,-31.806854248046875,-20.06456756591797,-18.243221282958984
1739555414220921900,2.306921875,-31.705780029296875,-20.0946044921875,-18.179832458496094
1739555414230990600,2.316990478515625,-31.446075439453125,-19.99079132080078,-18.18998908996582
1739555414241060600,2.327060546875,-31.2666015625,-20.178268432617188,-18.11831283569336
1739555414251131000,2.337130859375,-31.953826904296875,-20.029754638671875,-17.910320281982422
1739555414261200600,2.34720068359375,-31.790252685546875,-20.083961486816406,-18.13051986694336
1739555414271270700,2.357270751953125,-31.64129638671875,-20.252708435058594,-18.081541061401367
1739555414281340700,2.367340576171875,-31.5281982421875,-20.340621948242188,-18.084455490112305
1739555414291410700,2.37741064453125,-31.6571044921875,-20.051109313964844,-18.048673629760742
1739555414301480700,2.387480712890625,-31.28814697265625,-20.496047973632812,-17.9501895904541
1739555414311551000,2.397551025390625,-31.50909423828125,-20.542274475097656,-18.117141723632812
1739555414321620000,2.407619873046875,-31.501068115234375,-20.4266357421875,-18.179176330566406
1739555414331689700,2.417689697265625,-31.076904296875,-20.552505493164062,-18.222156524658203
1739555414341760000,2.427760009765625,-31.553985595703125,-20.72211456298828,-18.12746810913086
1739555414351830000,2.437830078125,-31.557403564453125,-20.57581329345703,-18.27671241760254
1739555414361899800,2.447899658203125,-31.537506103515625,-20.665023803710938,-18.233247756958008
1739555414371970000,2.457969970703125,-31.109405517578125,-20.57929229736328,-18.22811508178711
1739555414382040000,2.4680400390625,-31.2095947265625,-20.64501190185547,-18.002296447753906
1739555414392109800,2.47810986328125,-31.71270751953125,-20.709373474121094,-18.299697875976562
1739555414402179800,2.488179931640625,-31.28924560546875,-20.594215393066406,-18.284000396728516
1739555414412250000,2.49825,-31.4217529296875,-20.73114013671875,-18.33913230895996
1739555414422318800,2.50831884765625,-31.567626953125,-20.778533935546875,-18.071542739868164
1739555414432389000,2.51838916015625,-31.38299560546875,-20.886741638183594,-18.393360137939453
1739555414442459000,2.528458984375,-30.880645751953125,-20.755996704101562,-18.100631713867188
1739555414452529000,2.53852880859375,-31.148590087890625,-20.680618286132812,-18.041574478149414
1739555414462599000,2.548598876953125,-30.914093017578125,-20.657508850097656,-18.030147552490234
1739555414472669000,2.5586689453125,-31.240325927734375,-20.6319580078125,-18.040115356445312
1739555414482739000,2.568739013671875,-31.106689453125,-20.861282348632812,-18.19025230407715
1739555414492809000,2.57880908203125,-31.58123779296875,-20.592147827148438,-18.027019500732422
1739555414502879000,2.58887890625,-31.44256591796875,-20.216026306152344,-18.19316291809082
1739555414512949000,2.598948974609375,-31.273529052734375,-20.4853515625,-18.10965347290039
1739555414523018800,2.609018798828125,-30.88665771484375,-20.630447387695312,-18.20918083190918
1739555414533088000,2.619087890625,-31.614654541015625,-20.841217041015625,-18.185274124145508
1739555414543158000,2.629157958984375,-31.506134033203125,-20.9993896484375,-18.093839645385742
1739555414553227800,2.639227783203125,-31.17755126953125,-20.656394958496094,-18.07954978942871
1739555414563298000,2.649298095703125,-31.438079833984375,-20.742568969726562,-18.055147171020508
1739555414573367800,2.659367919921875,-31.392730712890625,-20.612228393554688,-18.154523849487305
1739555414583437800,2.669437744140625,-31.641143798828125,-20.765365600585938,-18.293407440185547
1739555414593508000,2.679508056640625,-31.544219970703125,-20.804168701171875,-18.35153579711914
1739555414603577900,2.689577880859375,-31.16961669921875,-20.82984161376953,-18.032228469848633
1739555414613648000,2.69964794921875,-31.42059326171875,-20.8546142578125,-17.878681182861328
1739555414623718100,2.70971826171875,-31.5877685546875,-20.94084930419922,-17.724096298217773
1739555414633787000,2.719786865234375,-31.20819091796875,-21.130477905273438,-17.547317504882812
1739555414643857000,2.72985693359375,-30.970062255859375,-21.17657470703125,-17.716262817382812
1739555414653927000,2.739927001953125,-31.1876220703125,-20.690887451171875,-17.5734920501709
1739555414663997000,2.749996826171875,-31.732940673828125,-20.832443237304688,-17.887802124023438
1739555414674067000,2.76006689453125,-31.9351806640625,-20.9205322265625,-18.00518035888672
1739555414684137000,2.770136962890625,-32.14825439453125,-20.998428344726562,-18.03570556640625
1739555414694207000,2.78020703125,-32.165618896484375,-20.685836791992188,-17.999954223632812
1739555414704277000,2.790277099609375,-31.678314208984375,-20.74834442138672,-17.594566345214844
1739555414714347000,2.800346923828125,-31.55047607421875,-20.71923828125,-17.537992477416992
1739555414724417000,2.8104169921875,-31.763702392578125,-20.428611755371094,-17.789365768432617
1739555414734487000,2.820487060546875,-31.57855224609375,-20.341636657714844,-17.85202407836914
1739555414744556000,2.83055615234375,-31.47576904296875,-20.48504638671875,-17.608375549316406
1739555414754626000,2.8406259765625,-31.233306884765625,-20.475906372070312,-17.907182693481445
1739555414764695800,2.85069580078125,-31.299652099609375,-20.518203735351562,-17.904888153076172
1739555414774766000,2.86076611328125,-31.826141357421875,-20.40416717529297,-17.901897430419922
1739555414784836000,2.870836181640625,-31.87066650390625,-20.355880737304688,-18.131200790405273
1739555414794905900,2.88090576171875,-31.42034912109375,-20.676864624023438,-17.724695205688477
1739555414804975900,2.890975830078125,-31.58721923828125,-20.496688842773438,-17.86386489868164
1739555414815046000,2.9010458984375,-32.3560791015625,-20.215042114257812,-17.93816566467285
1739555414825116000,2.911115966796875,-31.87493896484375,-20.276473999023438,-18.0989933013916
1739555414835186000,2.92118603515625,-32.083099365234375,-20.385536193847656,-17.993133544921875
1739555414845256000,2.931255859375,-32.1514892578125,-20.314491271972656,-17.929447174072266
1739555414855325000,2.941324951171875,-32.114898681640625,-20.369773864746094,-17.83036994934082
1739555414865395000,2.95139501953125,-31.877227783203125,-20.43932342529297,-17.952735900878906
1739555414875465000,2.96146484375,-31.644989013671875,-20.56134796142578,-18.015113830566406
1739555414885535000,2.971534912109375,-31.613037109375,-20.64447021484375,-17.872074127197266
1739555414895604700,2.981604736328125,-31.53265380859375,-20.51929473876953,-17.774776458740234
1739555414905675000,2.991675048828125,-31.911773681640625,-20.571884155273438,-17.669296264648438
1739555414915745000,3.0017451171875,-32.064849853515625,-20.44855499267578,-17.717424392700195
1739555414925814800,3.011814697265625,-32.102813720703125,-20.816055297851562,-17.83993148803711
1739555414935885000,3.021885009765625,-32.051544189453125,-20.595199584960938,-17.956689834594727
1739555414945955000,3.031955078125,-32.1588134765625,-20.39057159423828,-17.854976654052734
1739555414956024800,3.04202490234375,-31.955810546875,-20.22966766357422,-17.689697265625
1739555414966094800,3.0520947265625,-31.891326904296875,-20.364051818847656,-17.531381607055664
1739555414976163800,3.062163818359375,-32.3262939453125,-20.18694305419922,-17.804731369018555
1739555414986233900,3.07223388671875,-32.250213623046875,-20.331741333007812,-17.75227928161621
1739555414996304100,3.08230419921875,-31.841796875,-20.287063598632812,-17.680490493774414
1739555415006374000,3.092373779296875,-31.93017578125,-20.086151123046875,-17.740617752075195
1739555415016444000,3.10244384765625,-31.5980224609375,-20.03954315185547,-17.675031661987305
1739555415026514200,3.11251416015625,-32.06011962890625,-20.097434997558594,-17.918655395507812
1739555415036584000,3.122583984375,-32.111358642578125,-20.147216796875,-17.87276268005371
1739555415046654000,3.132654052734375,-32.08294677734375,-19.691497802734375,-17.773563385009766
1739555415056723700,3.1427236328125,-31.88287353515625,-19.565338134765625,-17.618967056274414
1739555415066794000,3.1527939453125,-32.1072998046875,-19.607528686523438,-17.678146362304688
1739555415076864000,3.162864013671875,-31.537384033203125,-19.664573669433594,-17.7850341796875
1739555415086933800,3.172933837890625,-31.642608642578125,-19.445571899414062,-17.764522552490234
1739555415097003000,3.1830029296875,-32.200653076171875,-19.548194885253906,-17.91363525390625
1739555415107073000,3.193072998046875,-32.011444091796875,-19.66742706298828,-17.934385299682617
1739555415117143000,3.20314306640625,-31.81689453125,-19.798912048339844,-17.94405746459961
1739555415127213000,3.213213134765625,-31.87322998046875,-19.26319122314453,-17.60215950012207
1739555415137282800,3.22328271484375,-31.377716064453125,-19.52521514892578,-17.65904998779297
1739555415147352800,3.233352783203125,-31.687103271484375,-19.57122039794922,-17.740400314331055
1739555415157423000,3.243423095703125,-31.752197265625,-19.321273803710938,-17.837717056274414
1739555415167492900,3.253492919921875,-32.08099365234375,-19.24658966064453,-17.453094482421875
1739555415177563000,3.26356298828125,-32.166107177734375,-19.189537048339844,-17.280664443969727
1739555415187633200,3.273633056640625,-31.803192138671875,-19.130203247070312,-17.29146385192871
1739555415197703000,3.283702880859375,-31.91278076171875,-18.983070373535156,-17.409984588623047
1739555415207773000,3.29377294921875,-31.78961181640625,-18.882247924804688,-17.427200317382812
1739555415217843000,3.303843017578125,-31.99169921875,-18.856422424316406,-17.69011116027832
1739555415227912000,3.313911865234375,-32.10137939453125,-18.81494903564453,-17.97507095336914
1739555415237982000,3.32398193359375,-31.9610595703125,-18.838302612304688,-18.006820678710938
1739555415248052000,3.334052001953125,-32.0853271484375,-18.555755615234375,-18.22429847717285
1739555415258122000,3.3441220703125,-32.4774169921875,-18.47112274169922,-17.97742462158203
1739555415268192000,3.35419189453125,-32.2938232421875,-18.40058135986328,-17.940074920654297
1739555415278262000,3.364261962890625,-32.110076904296875,-18.44617462158203,-17.721908569335938
1739555415288332000,3.37433203125,-32.328125,-18.33142852783203,-17.6838436126709
1739555415298401800,3.38440185546875,-32.184112548828125,-18.632301330566406,-17.803848266601562
1739555415308471800,3.394471923828125,-32.256103515625,-18.37604522705078,-17.782669067382812
1739555415318541800,3.404541748046875,-32.3990478515625,-18.346176147460938,-17.688528060913086
1739555415328611800,3.41461181640625,-32.64312744140625,-18.201339721679688,-17.383562088012695
1739555415338681900,3.424681884765625,-32.68365478515625,-18.25439453125,-17.035404205322266
1739555415348752000,3.434751953125,-32.801513671875,-18.25189208984375,-17.12188720703125
1739555415358820900,3.44482080078125,-33.0469970703125,-18.186363220214844,-16.864791870117188
1739555415368891000,3.454890869140625,-33.164520263671875,-17.99498748779297,-16.52587127685547
1739555415378961000,3.4649609375,-33.3582763671875,-18.238815307617188,-16.159196853637695
1739555415389031000,3.475031005859375,-33.239990234375,-18.20391845703125,-16.313949584960938
1739555415399100700,3.4851005859375,-33.188507080078125,-18.04511260986328,-16.38764190673828
1739555415409171000,3.4951708984375,-33.538726806640625,-18.234153747558594,-16.61858558654785
1739555415419241000,3.505240966796875,-33.1507568359375,-18.343833923339844,-16.65752601623535
1739555415429310700,3.515310791015625,-32.911376953125,-18.47411346435547,-16.849279403686523
1739555415439381000,3.525381103515625,-33.392120361328125,-18.701522827148438,-17.023460388183594
1739555415449451000,3.535450927734375,-33.13641357421875,-18.90985107421875,-17.232898712158203
1739555415459520800,3.545520751953125,-32.968994140625,-18.884658813476562,-17.24306869506836
1739555415469590800,3.5555908203125,-32.527008056640625,-18.774688720703125,-17.360231399536133
1739555415479660800,3.565660888671875,-32.59912109375,-18.888107299804688,-17.658267974853516
1739555415489729800,3.575729736328125,-32.514068603515625,-18.608261108398438,-17.842668533325195
1739555415499800000,3.585800048828125,-32.54339599609375,-18.61229705810547,-17.70530891418457
1739555415509869800,3.595869873046875,-32.111236572265625,-18.73272705078125,-17.881460189819336
1739555415519939800,3.60593994140625,-31.97735595703125,-18.61695098876953,-18.098682403564453
1739555415530010000,3.616010009765625,-31.916717529296875,-18.802879333496094,-18.423276901245117
1739555415540079900,3.626079833984375,-32.01123046875,-18.90673065185547,-18.320327758789062
1739555415550150000,3.63614990234375,-31.436431884765625,-18.982032775878906,-18.60757064819336
1739555415560219600,3.6462197265625,-31.67779541015625,-18.75476837158203,-18.723859786987305
1739555415570290000,3.6562900390625,-31.96710205078125,-18.774513244628906,-18.49567222595215
1739555415580360000,3.66635986328125,-31.7900390625,-18.957504272460938,-18.5177059173584
1739555415590429700,3.6764296875,-31.720733642578125,-18.87981414794922,-18.503063201904297
1739555415600500000,3.6865,-31.365234375,-18.75415802001953,-18.44424819946289
1739555415610570000,3.696570068359375,-32.12652587890625,-19.17096710205078,-18.404651641845703
1739555415620639700,3.7066396484375,-31.9063720703125,-19.21063995361328,-18.448867797851562
1739555415630709800,3.716709716796875,-31.7509765625,-18.89056396484375,-18.079753875732422
1739555415640778800,3.72677880859375,-31.58807373046875,-19.186080932617188,-18.151363372802734
1739555415650848800,3.736848876953125,-31.81591796875,-19.186004638671875,-18.089122772216797
1739555415660919000,3.7469189453125,-31.449371337890625,-19.647781372070312,-17.738971710205078
1739555415670988800,3.75698876953125,-31.62921142578125,-19.34503936767578,-17.751575469970703
1739555415681058800,3.767058837890625,-31.751953125,-19.283103942871094,-17.910890579223633
1739555415691129000,3.777129150390625,-31.698455810546875,-19.300987243652344,-17.940460205078125
1739555415701198800,3.78719873046875,-31.678009033203125,-19.397262573242188,-17.883159637451172
1739555415711268900,3.797268798828125,-31.892486572265625,-19.25763702392578,-17.92559242248535
1739555415721338600,3.807338623046875,-31.72894287109375,-19.456649780273438,-17.88533592224121
1739555415731409000,3.817408935546875,-31.35662841796875,-19.531776428222656,-17.61315155029297
1739555415741479000,3.82747900390625,-31.499267578125,-19.356590270996094,-17.772899627685547
1739555415751548700,3.837548583984375,-31.983367919921875,-19.3582763671875,-17.772781372070312
1739555415761619000,3.847618896484375,-31.666595458984375,-19.1619873046875,-17.623340606689453
1739555415771689000,3.85768896484375,-31.94500732421875,-19.396934509277344,-17.75324821472168
1739555415781758700,3.8677587890625,-31.66778564453125,-19.57904815673828,-17.792316436767578
1739555415791828000,3.877827880859375,-31.75848388671875,-19.47327423095703,-17.696426391601562
1739555415801897700,3.887897705078125,-31.75115966796875,-19.702613830566406,-17.83646583557129
1739555415811967700,3.8979677734375,-31.71405029296875,-19.713211059570312,-17.68891716003418
1739555415822038000,3.9080380859375,-31.915252685546875,-19.65459442138672,-17.867950439453125
1739555415832107800,3.918107666015625,-31.61578369140625,-19.597686767578125,-17.808303833007812
1739555415842177800,3.928177734375,-32.202911376953125,-19.523269653320312,-17.899320602416992
1739555415852248000,3.938248046875,-31.842559814453125,-19.25481414794922,-17.862140655517578
1739555415862317800,3.94831787109375,-31.850006103515625,-19.24225616455078,-17.936616897583008
1739555415872387800,3.958387939453125,-32.1043701171875,-19.046417236328125,-18.152292251586914
1739555415882457900,3.968457763671875,-31.805572509765625,-19.237525939941406,-18.2612361907959
1739555415892527900,3.97852783203125,-31.45831298828125,-19.010284423828125,-18.516338348388672
1739555415902598000,3.988597900390625,-31.803436279296875,-19.15685272216797,-18.789981842041016
1739555415912667600,3.998667724609375,-31.790496826171875,-18.994232177734375,-18.991924285888672
1739555415922738000,4.008738037109375,-31.778106689453125,-18.903671264648438,-18.9831600189209
1739555415932808000,4.018807861328125,-31.759735107421875,-18.86834716796875,-18.611278533935547
1739555415942877700,4.028877685546875,-32.0211181640625,-18.629257202148438,-18.610734939575195
1739555415952948000,4.038947998046875,-31.6309814453125,-18.716270446777344,-18.677602767944336
1739555415963016700,4.0490166015625,-31.318084716796875,-19.065841674804688,-18.74496078491211
1739555415973086700,4.059086669921875,-31.467315673828125,-18.672409057617188,-18.837726593017578
1739555415983157000,4.069156982421875,-31.309478759765625,-18.690673828125,-19.11775016784668
1739555415993226800,4.079226806640625,-31.59710693359375,-18.276626586914062,-19.030563354492188
1739555416003296800,4.089296875,-31.542572021484375,-18.588302612304688,-19.395353317260742
1739555416013367000,4.099366943359375,-31.260986328125,-18.722915649414062,-19.280221939086914
1739555416023436800,4.109436767578125,-31.1983642578125,-18.76758575439453,-19.19333267211914
1739555416033506800,4.1195068359375,-31.348663330078125,-18.42779541015625,-19.510656356811523
1739555416043576800,4.129576904296875,-31.168487548828125,-18.609947204589844,-19.402101516723633
1739555416053646800,4.139646728515625,-31.218292236328125,-18.53759765625,-19.549442291259766
1739555416063716900,4.149716796875,-31.155242919921875,-18.58477783203125,-19.65963363647461
1739555416073787000,4.159786865234375,-30.9293212890625,-18.756614685058594,-19.864648818969727
1739555416083857000,4.16985693359375,-31.049407958984375,-18.66248321533203,-19.613889694213867
1739555416093927000,4.179927001953125,-30.8931884765625,-18.795372009277344,-19.694536209106445
1739555416103996700,4.18999658203125,-31.30322265625,-19.04742431640625,-19.674579620361328
1739555416114067000,4.20006689453125,-31.2989501953125,-19.471328735351562,-19.875343322753906
1739555416124137000,4.210136962890625,-30.9034423828125,-19.260879516601562,-19.697416305541992
1739555416134206700,4.220206787109375,-30.257904052734375,-19.04107666015625,-19.639801025390625
1739555416144276700,4.23027685546875,-30.6995849609375,-19.061241149902344,-19.954660415649414
1739555416154345700,4.240345703125,-30.32843017578125,-18.930618286132812,-19.934906005859375
1739555416164415700,4.250415771484375,-30.719573974609375,-19.110862731933594,-19.996328353881836
1739555416174486000,4.260486083984375,-30.529388427734375,-18.870269775390625,-20.025054931640625
1739555416184555800,4.2705556640625,-30.604705810546875,-18.93090057373047,-19.854000091552734
1739555416194625800,4.280625732421875,-31.0760498046875,-18.8868408203125,-19.69557762145996
1739555416204696000,4.290696044921875,-31.31634521484375,-18.871734619140625,-19.34288787841797
1739555416214765800,4.300765869140625,-31.271270751953125,-18.721473693847656,-19.13517189025879
1739555416224835800,4.3108359375,-31.501495361328125,-18.381423950195312,-18.684823989868164
1739555416234905900,4.32090576171875,-31.652496337890625,-18.293167114257812,-18.512189865112305
1739555416244975900,4.330975830078125,-31.4732666015625,-18.292587280273438,-18.498119354248047
1739555416255046000,4.3410458984375,-31.275421142578125,-18.373146057128906,-18.386362075805664
1739555416265116000,4.351115966796875,-31.299560546875,-18.429466247558594,-18.06307601928711
1739555416275186000,4.36118603515625,-31.331787109375,-18.66931915283203,-18.117067337036133
1739555416285256000,4.371255859375,-31.34722900390625,-18.932693481445312,-18.236005783081055
1739555416295325700,4.38132568359375,-30.930328369140625,-19.177627563476562,-18.233440399169922
1739555416305396000,4.39139599609375,-30.48760986328125,-19.62358856201172,-18.486703872680664
1739555416315466200,4.40146630859375,-30.614715576171875,-19.653701782226562,-18.652225494384766
1739555416325536300,4.411536376953125,-30.394622802734375,-20.08916473388672,-18.983915328979492
1739555416335606000,4.42160595703125,-29.513336181640625,-20.217323303222656,-19.340639114379883
1739555416345676300,4.43167626953125,-29.047760009765625,-20.52422332763672,-19.301197052001953
1739555416355746300,4.441746337890625,-28.75262451171875,-20.71935272216797,-19.593238830566406
1739555416365816000,4.451816162109375,-29.1212158203125,-20.822677612304688,-19.24491310119629
1739555416375886000,4.461885986328125,-29.124176025390625,-21.03730010986328,-19.16495704650879
1739555416385955000,4.471955078125,-29.11785888671875,-21.04668426513672,-18.8190860748291
1739555416396025000,4.482025146484375,-29.4324951171875,-21.20831298828125,-18.552770614624023
1739555416406095400,4.492095458984375,-28.901580810546875,-21.253211975097656,-18.206520080566406
1739555416416165000,4.5021650390625,-28.810333251953125,-21.362892150878906,-18.08997344970703
1739555416426235100,4.512235107421875,-29.55181884765625,-21.58264923095703,-17.73402976989746
1739555416436305400,4.522305419921875,-29.632171630859375,-21.58111572265625,-17.90043830871582
1739555416446375200,4.532375244140625,-29.674774169921875,-21.607620239257812,-17.668689727783203
1739555416456445200,4.542445068359375,-29.779205322265625,-21.656494140625,-17.5878963470459
1739555416466515200,4.55251513671875,-29.59063720703125,-21.723106384277344,-17.78670310974121
1739555416476585200,4.562585205078125,-29.522705078125,-21.73796844482422,-17.69554901123047
1739555416486655200,4.5726552734375,-29.5091552734375,-22.118362426757812,-17.786592483520508
1739555416496725000,4.58272509765625,-29.784637451171875,-21.731491088867188,-17.537410736083984
1739555416506795300,4.592795166015625,-30.12689208984375,-21.62799835205078,-17.543655395507812
1739555416516865300,4.602865234375,-30.010406494140625,-21.58679962158203,-17.549745559692383
1739555416526935000,4.61293505859375,-30.220947265625,-21.86608123779297,-17.618688583374023
1739555416537005300,4.62300537109375,-30.090118408203125,-21.251625061035156,-17.33602523803711
1739555416547075300,4.633075439453125,-29.72705078125,-21.58062744140625,-17.10357093811035
1739555416557145000,4.64314501953125,-29.982147216796875,-21.66510772705078,-17.194841384887695
1739555416567215000,4.653215087890625,-30.232147216796875,-21.702896118164062,-17.266361236572266
1739555416577285400,4.663285400390625,-30.294769287109375,-21.313552856445312,-17.216142654418945
1739555416587355100,4.673355224609375,-30.018218994140625,-21.30146026611328,-17.096271514892578
1739555416597425200,4.683425048828125,-30.586181640625,-21.27167510986328,-17.070003509521484
1739555416607495400,4.693495361328125,-30.75738525390625,-21.009475708007812,-17.186948776245117
1739555416617565200,4.703565185546875,-30.812744140625,-20.900711059570312,-16.942527770996094
1739555416627635200,4.71363525390625,-31.0960693359375,-21.245445251464844,-16.98031234741211
1739555416637705000,4.723705078125,-30.96002197265625,-20.91424560546875,-16.94598388671875
1739555416647775200,4.733775146484375,-30.62957763671875,-20.7408447265625,-17.072629928588867
1739555416657845200,4.74384521484375,-30.871551513671875,-20.832672119140625,-16.863523483276367
1739555416667914200,4.753914306640625,-31.05572509765625,-20.5286865234375,-16.942401885986328
1739555416677984300,4.763984375,-31.15728759765625,-20.565223693847656,-16.966064453125
1739555416688054000,4.774053955078125,-30.902252197265625,-20.14928436279297,-16.97271156311035
1739555416698124300,4.784124267578125,-31.11322021484375,-20.28327178955078,-16.997100830078125
1739555416708194300,4.7941943359375,-31.344390869140625,-19.992408752441406,-16.897218704223633
1739555416718264000,4.80426416015625,-31.236572265625,-20.184417724609375,-17.186817169189453
1739555416728334000,4.814333984375,-31.11688232421875,-20.04583740234375,-17.209495544433594
1739555416738404400,4.824404296875,-31.34210205078125,-19.914047241210938,-17.36424446105957
1739555416748474000,4.83447412109375,-31.32354736328125,-19.570884704589844,-17.1945743560791
1739555416758544100,4.844544189453125,-31.015625,-19.890426635742188,-17.239540100097656
1739555416768614400,4.854614501953125,-31.135284423828125,-19.36614990234375,-17.440868377685547
1739555416778684200,4.86468408203125,-30.87841796875,-19.29395294189453,-17.26276397705078
1739555416788754200,4.874754150390625,-31.077667236328125,-19.373260498046875,-17.546266555786133
1739555416798824200,4.88482421875,-31.200286865234375,-19.326560974121094,-17.62791633605957
1739555416808894200,4.894894287109375,-31.22662353515625,-19.208114624023438,-17.478057861328125
1739555416818964200,4.904964111328125,-31.189483642578125,-19.320068359375,-17.516218185424805
1739555416829034000,4.915033935546875,-30.928131103515625,-19.1536865234375,-17.435047149658203
1739555416839104300,4.925104248046875,-31.376190185546875,-19.304031372070312,-17.374502182006836
1739555416849174300,4.93517431640625,-31.22894287109375,-19.14667510986328,-17.444337844848633
1739555416859244000,4.945244140625,-31.282989501953125,-19.240478515625,-17.64463233947754
1739555416869314300,4.955314208984375,-31.212677001953125,-19.211441040039062,-17.84600257873535
1739555416879384300,4.96538427734375,-31.05657958984375,-19.408309936523438,-17.818103790283203
1739555416889454000,4.9754541015625,-31.053436279296875,-19.12677764892578,-17.780101776123047
1739555416899524000,4.985524169921875,-30.4033203125,-19.367218017578125,-18.203632354736328
1739555416909594400,4.995594482421875,-30.541656494140625,-19.62938690185547,-18.473264694213867
1739555416919664000,5.0056640625,-30.00396728515625,-19.604042053222656,-18.527746200561523
1739555416929734100,5.015734130859375,-30.184906005859375,-19.464828491210938,-18.736902236938477
1739555416939804400,5.025804443359375,-29.882720947265625,-19.30962371826172,-19.056623458862305
1739555416949874200,5.035874267578125,-29.96881103515625,-19.73332977294922,-19.32577896118164
1739555416959944200,5.045944091796875,-29.4229736328125,-19.805885314941406,-19.49675178527832
1739555416970014200,5.05601416015625,-29.6976318359375,-19.565574645996094,-19.55870819091797
1739555416980084200,5.066084228515625,-29.509124755859375,-19.574737548828125,-19.863540649414062
1739555416990154200,5.076154296875,-29.649322509765625,-19.55322265625,-19.714733123779297
1739555417000224000,5.08622412109375,-29.68365478515625,-19.333343505859375,-19.641563415527344
1739555417010294300,5.096294189453125,-29.40301513671875,-19.3299560546875,-19.62713623046875
1739555417020364300,5.1063642578125,-30.1640625,-18.993240356445312,-19.79538345336914
1739555417030434000,5.11643408203125,-30.23858642578125,-18.78887176513672,-19.88103675842285
1739555417040504300,5.12650439453125,-30.223602294921875,-18.515670776367188,-19.736249923706055
1739555417050574300,5.13657421875,-30.339935302734375,-18.51538848876953,-19.43454360961914
1739555417060644000,5.14664404296875,-30.371337890625,-18.42913818359375,-19.287336349487305
1739555417070714000,5.156714111328125,-30.895782470703125,-18.293846130371094,-18.85627555847168
1739555417080784100,5.1667841796875,-31.18585205078125,-18.15643310546875,-18.769962310791016
1739555417090854100,5.176854248046875,-31.297088623046875,-18.004615783691406,-18.069698333740234
1739555417100924200,5.186924072265625,-31.451934814453125,-18.122695922851562,-17.972318649291992
1739555417110994200,5.196994140625,-31.63079833984375,-18.313934326171875,-17.83530044555664
1739555417121064200,5.207064208984375,-31.76751708984375,-18.459442138671875,-17.585594177246094
1739555417131134200,5.21713427734375,-31.514892578125,-18.479629516601562,-17.205154418945312
1739555417141204200,5.227204345703125,-31.245697021484375,-18.384727478027344,-17.24239730834961
1739555417151274200,5.237274169921875,-31.444732666015625,-18.55328369140625,-17.74632453918457
1739555417161343000,5.247343017578125,-31.14154052734375,-18.757225036621094,-17.715417861938477
1739555417171414000,5.2574140625,-31.22381591796875,-18.852516174316406,-18.01776123046875
1739555417181483300,5.267483154296875,-31.24945068359375,-18.875106811523438,-19.200912475585938
1739555417191553000,5.277552978515625,-30.8028564453125,-18.882522583007812,-19.219282150268555
1739555417201623300,5.287623291015625,-30.7611083984375,-18.810333251953125,-19.19194793701172
1739555417211693300,5.297693359375,-30.364959716796875,-19.10181427001953,-19.017799377441406
1739555417221763000,5.30776318359375,-30.563720703125,-19.227081298828125,-19.098636627197266
1739555417231833300,5.317833251953125,-30.401824951171875,-19.621795654296875,-18.849628448486328
1739555417241903400,5.3279033203125,-30.322479248046875,-19.636032104492188,-18.749774932861328
1739555417251973000,5.33797314453125,-30.424896240234375,-19.917556762695312,-18.909286499023438
1739555417262043100,5.348043212890625,-30.3875732421875,-19.892288208007812,-18.668346405029297
1739555417272113200,5.358113037109375,-30.371246337890625,-20.10375213623047,-18.706565856933594
1739555417282183200,5.36818310546875,-30.4471435546875,-20.09735107421875,-19.000198364257812
1739555417292253200,5.378253173828125,-30.446624755859375,-20.22003936767578,-19.092458724975586
1739555417302323200,5.3883232421875,-29.707275390625,-20.309341430664062,-19.150373458862305
1739555417312392700,5.398392822265625,-29.597930908203125,-20.498130798339844,-19.03732681274414
1739555417322462700,5.408462646484375,-30.079925537109375,-20.697044372558594,-19.214445114135742
1739555417332532700,5.41853271484375,-29.45721435546875,-20.798843383789062,-19.2656307220459
1739555417342602800,5.428602783203125,-29.550140380859375,-20.821495056152344,-19.03755760192871
1739555417352672800,5.4386728515625,-29.654266357421875,-20.793983459472656,-18.88756561279297
1739555417362742800,5.44874267578125,-29.97186279296875,-20.79883575439453,-18.897798538208008
1739555417372812800,5.458812744140625,-29.923828125,-20.736160278320312,-18.65201187133789
1739555417382882800,5.4688828125,-29.84844970703125,-20.832992553710938,-18.766756057739258
1739555417392952600,5.47895263671875,-29.759979248046875,-20.703025817871094,-18.79156494140625
1739555417403022800,5.48902294921875,-29.669403076171875,-20.64765167236328,-19.062793731689453
1739555417413092900,5.4990927734375,-29.377716064453125,-20.77539825439453,-18.606828689575195
1739555417423162600,5.50916259765625,-29.61419677734375,-20.649139404296875,-18.641014099121094
1739555417433233000,5.51923291015625,-29.76947021484375,-20.51343536376953,-18.973060607910156
1739555417443302700,5.529302734375,-29.945709228515625,-20.4439697265625,-18.863697052001953
1739555417453372700,5.53937255859375,-29.633880615234375,-20.39739990234375,-19.0217342376709
1739555417463442700,5.549442626953125,-30.1285400390625,-20.129371643066406,-19.214078903198242
1739555417473512700,5.5595126953125,-30.285919189453125,-20.297874450683594,-19.213838577270508
1739555417483582700,5.569582763671875,-30.35198974609375,-20.04833984375,-19.157323837280273
1739555417493652700,5.57965283203125,-30.390411376953125,-19.82256317138672,-19.24715805053711
1739555417503722800,5.58972265625,-30.433563232421875,-19.853134155273438,-19.236122131347656
1739555417513792800,5.599792724609375,-30.66448974609375,-19.963356018066406,-19.408523559570312
1739555417523862800,5.60986279296875,-30.703643798828125,-19.817893981933594,-19.496984481811523
1739555417533932800,5.619932861328125,-30.51507568359375,-19.578338623046875,-19.57330322265625
1739555417544002800,5.6300029296875,-30.48626708984375,-19.7108154296875,-19.620622634887695
1739555417554072800,5.64007275390625,-30.47845458984375,-19.517135620117188,-19.63508415222168
1739555417564142600,5.650142578125,-30.7626953125,-19.439895629882812,-19.64699363708496
1739555417574212900,5.660212890625,-31.534454345703125,-19.339378356933594,-19.708335876464844
1739555417584282600,5.67028271484375,-31.0042724609375,-19.29283905029297,-19.934246063232422
1739555417594352600,5.6803525390625,-31.074615478515625,-19.22620391845703,-20.09242057800293
1739555417604423000,5.6904228515625,-31.189910888671875,-18.981277465820312,-19.858665466308594
1739555417614492700,5.70049267578125,-30.96087646484375,-18.489227294921875,-20.040508270263672
1739555417624562700,5.710562744140625,-31.08160400390625,-18.722991943359375,-20.089468002319336
1739555417634632700,5.7206328125,-31.429779052734375,-18.81468963623047,-20.212507247924805
1739555417644702700,5.73070263671875,-31.150604248046875,-18.559242248535156,-19.75261688232422
1739555417654772700,5.740772705078125,-31.206939697265625,-18.348129272460938,-19.724151611328125
1739555417664842800,5.7508427734375,-31.444000244140625,-18.17626953125,-19.905616760253906
1739555417674912800,5.760912841796875,-31.684814453125,-18.338394165039062,-19.894695281982422
1739555417684982800,5.770982666015625,-31.425811767578125,-18.301925659179688,-20.00200080871582
1739555417695052500,5.781052490234375,-31.421875,-18.14942169189453,-20.062625885009766
1739555417705123600,5.79112353515625,-31.337310791015625,-18.364898681640625,-19.941858291625977
1739555417715192800,5.80119287109375,-31.55450439453125,-18.213363647460938,-20.04454803466797
1739555417725262600,5.8112626953125,-31.3311767578125,-18.2821044921875,-20.263614654541016
1739555417735333600,5.821333740234375,-30.90185546875,-18.267547607421875,-20.457948684692383
1739555417745403600,5.831403564453125,-31.22039794921875,-18.59935760498047,-20.757492065429688
1739555417755474000,5.841473876953125,-30.779449462890625,-18.750946044921875,-21.050203323364258
1739555417765543700,5.851543701171875,-30.797637939453125,-18.749420166015625,-21.14464569091797
1739555417775613700,5.86161376953125,-30.411468505859375,-18.87609100341797,-21.476266860961914
1739555417785683700,5.87168359375,-30.281005859375,-18.845726013183594,-21.390623092651367
1739555417795753700,5.881753662109375,-30.472991943359375,-18.91705322265625,-21.251575469970703
1739555417805823700,5.89182373046875,-30.478515625,-18.910484313964844,-21.325679779052734
1739555417815893800,5.901893798828125,-31.000152587890625,-18.76055145263672,-21.26661491394043
1739555417825963800,5.9119638671875,-30.902496337890625,-18.35431671142578,-21.04076385498047
1739555417836033800,5.92203369140625,-30.8935546875,-18.233184814453125,-21.089988708496094
1739555417846103600,5.932103515625,-30.438751220703125,-18.268760681152344,-20.82086944580078
1739555417856173800,5.942173828125,-31.09210205078125,-18.078872680664062,-21.20843505859375
1739555417866243800,5.952243896484375,-31.065948486328125,-17.935775756835938,-21.277236938476562
1739555417876313600,5.962313720703125,-30.94915771484375,-17.90874481201172,-21.252925872802734
1739555417886383900,5.9723837890625,-30.820281982421875,-18.061996459960938,-21.175914764404297
1739555417896454000,5.982453857421875,-30.503814697265625,-18.160614013671875,-21.18533706665039
1739555417906523600,5.992523681640625,-30.530609130859375,-18.249404907226562,-20.981334686279297
1739555417916593700,6.00259375,-30.919525146484375,-18.297752380371094,-20.682357788085938
1739555417926663700,6.01266357421875,-30.869659423828125,-18.39588165283203,-20.20549201965332
1739555417936733700,6.022733642578125,-30.910430908203125,-18.68187713623047,-20.069541931152344
1739555417946803700,6.0328037109375,-31.026123046875,-19.13304901123047,-19.679092407226562
1739555417956873700,6.042873779296875,-30.93878173828125,-19.437744140625,-19.47121810913086
1739555417966943700,6.05294384765625,-31.005401611328125,-19.876083374023438,-18.986352920532227
1739555417977013800,6.063013671875,-31.258056640625,-20.077049255371094,-19.27870750427246
1739555417987083800,6.073083740234375,-30.85528564453125,-20.3194580078125,-19.261531829833984
1739555417997153800,6.08315380859375,-30.654998779296875,-20.58277130126953,-19.004505157470703
1739555418007223800,6.093223876953125,-30.820343017578125,-20.89714813232422,-18.894893646240234
1739555418017293600,6.10329345703125,-30.3626708984375,-21.220985412597656,-18.978500366210938
1739555418027363800,6.11336376953125,-29.396881103515625,-21.596511840820312,-19.27243423461914
1739555418037433600,6.12343359375,-29.35540771484375,-21.699172973632812,-19.094051361083984
1739555418047503600,6.133503662109375,-29.422943115234375,-21.793533325195312,-19.184818267822266
1739555418057574000,6.143573974609375,-28.886566162109375,-21.91656494140625,-19.111492156982422
1739555418067643600,6.1536435546875,-28.880157470703125,-22.269393920898438,-19.19709587097168
1739555418077713700,6.163713623046875,-29.127655029296875,-22.610260009765625,-19.219867706298828
1739555418087784000,6.173783935546875,-28.7423095703125,-22.88343048095703,-18.75380516052246
1739555418097853700,6.183853759765625,-28.8798828125,-22.843246459960938,-18.900903701782227
1739555418107923700,6.193923828125,-29.5989990234375,-22.883590698242188,-18.63134765625
1739555418117993700,6.20399365234375,-28.829681396484375,-23.078689575195312,-18.955474853515625
1739555418128063700,6.214063720703125,-28.604339599609375,-23.442779541015625,-18.739490509033203
1739555418138133800,6.2241337890625,-29.094390869140625,-23.284210205078125,-18.597610473632812
1739555418148203800,6.234203857421875,-29.02099609375,-23.324569702148438,-18.732847213745117
1739555418158273800,6.244273681640625,-28.726959228515625,-23.468597412109375,-18.58527374267578
1739555418168343800,6.25434375,-28.682830810546875,-23.52637481689453,-18.565105438232422
1739555418178413600,6.26441357421875,-28.89288330078125,-23.4931640625,-18.481130599975586
1739555418188483800,6.27448388671875,-28.645355224609375,-23.446739196777344,-18.44247055053711
1739555418198553900,6.284553955078125,-28.753082275390625,-23.433998107910156,-18.353309631347656
1739555418208623600,6.29462353515625,-29.105438232421875,-23.206398010253906,-18.604446411132812
1739555418218693600,6.304693603515625,-29.164031982421875,-23.184181213378906,-18.67993927001953
1739555418228764000,6.314763916015625,-29.2144775390625,-23.00757598876953,-18.63005828857422
1739555418238833700,6.324833740234375,-28.966949462890625,-23.014869689941406,-18.601024627685547
1739555418248903700,6.334903564453125,-29.13629150390625,-22.935508728027344,-18.381996154785156
1739555418258974000,6.344973876953125,-29.251312255859375,-22.78601837158203,-18.579504013061523
1739555418269043700,6.355043701171875,-29.44598388671875,-22.567581176757812,-18.423999786376953
1739555418279113700,6.36511376953125,-29.28131103515625,-22.778274536132812,-18.632272720336914
1739555418289183700,6.375183837890625,-29.2686767578125,-22.204971313476562,-18.778284072875977
1739555418299253800,6.385253662109375,-29.021728515625,-22.378555297851562,-18.75687026977539
1739555418309323800,6.39532373046875,-29.1544189453125,-22.038421630859375,-18.705364227294922
1739555418319394300,6.405394287109375,-29.344482421875,-21.882614135742188,-18.824338912963867
1739555418329464300,6.41546435546875,-29.34552001953125,-21.94586944580078,-18.45669937133789
1739555418339534300,6.425534423828125,-29.97137451171875,-21.53089141845703,-18.50161361694336
1739555418349604400,6.435604248046875,-30.13079833984375,-21.376609802246094,-18.368473052978516
1739555418359674400,6.44567431640625,-30.12921142578125,-20.991378784179688,-18.522438049316406
1739555418369744400,6.455744384765625,-30.2730712890625,-21.306053161621094,-18.618480682373047
1739555418379815400,6.4658154296875,-30.217864990234375,-21.265731811523438,-18.910070419311523
1739555418389885400,6.475885498046875,-30.33843994140625,-21.116836547851562,-19.025239944458008
1739555418399955200,6.485955078125,-29.7752685546875,-21.19757843017578,-19.05429458618164
1739555418410025500,6.496025390625,-29.974517822265625,-21.129249572753906,-19.064191818237305
1739555418420095500,6.506095458984375,-29.90460205078125,-21.19805908203125,-19.095291137695312
1739555418430165200,6.516165283203125,-29.64208984375,-20.944793701171875,-19.070772171020508
1739555418440235300,6.5262353515625,-29.970062255859375,-20.84850311279297,-19.284242630004883
1739555418450305500,6.536305419921875,-29.677276611328125,-20.944252014160156,-19.205078125
1739555418460375300,6.546375244140625,-29.731719970703125,-20.981674194335938,-19.274654388427734
1739555418470445300,6.5564453125,-29.82012939453125,-20.998245239257812,-19.48834800720215
1739555418480515600,6.566515625,-29.7376708984375,-20.853927612304688,-19.396909713745117
1739555418490585300,6.57658544921875,-29.83135986328125,-20.93608856201172,-19.53230094909668
1739555418500655400,6.5866552734375,-29.74774169921875,-21.336441040039062,-19.415630340576172
1739555418510725400,6.596725341796875,-29.892059326171875,-21.07093048095703,-19.535696029663086
1739555418520795400,6.60679541015625,-30.00140380859375,-20.984222412109375,-19.30252456665039
1739555418530865400,6.616865478515625,-30.2967529296875,-21.08727264404297,-19.139589309692383
1739555418540935200,6.62693505859375,-29.930267333984375,-21.063766479492188,-19.17443084716797
1739555418551005400,6.63700537109375,-29.874053955078125,-20.77429962158203,-19.2637939453125
1739555418561075500,6.647075439453125,-29.889434814453125,-20.776161193847656,-19.480966567993164
1739555418571145200,6.657145263671875,-29.714874267578125,-21.05103302001953,-19.870201110839844
1739555418581215500,6.667215576171875,-29.472442626953125,-20.701332092285156,-20.25489616394043
1739555418591285500,6.677285400390625,-29.74700927734375,-20.57823944091797,-20.528701782226562
1739555418601355300,6.687355224609375,-29.61334228515625,-20.53021240234375,-20.40726089477539
1739555418611425300,6.69742529296875,-29.32196044921875,-20.42005157470703,-20.65913200378418
1739555418621495600,6.70749560546875,-29.841766357421875,-20.341529846191406,-20.970685958862305
1739555418631565300,6.7175654296875,-29.849365234375,-20.37958526611328,-21.027055740356445
1739555418641635300,6.72763525390625,-29.575775146484375,-20.39057159423828,-20.9561767578125
1739555418651705300,6.737705322265625,-29.76043701171875,-20.206871032714844,-21.059188842773438
1739555418661775400,6.747775390625,-29.23736572265625,-19.970237731933594,-21.257814407348633
1739555418671845400,6.757845458984375,-29.685791015625,-19.881301879882812,-21.068714141845703
1739555418681915400,6.767915283203125,-29.5703125,-19.5064697265625,-20.867385864257812
1739555418691985400,6.7779853515625,-29.7913818359375,-19.35706329345703,-20.9791202545166
1739555418702055400,6.788055419921875,-30.131591796875,-19.219276428222656,-20.526098251342773
1739555418712125200,6.798125244140625,-30.09490966796875,-18.95948028564453,-20.35527992248535
1739555418722195500,6.808195556640625,-30.487884521484375,-19.159645080566406,-19.9047794342041
1739555418732265500,6.818265380859375,-30.641876220703125,-18.95146942138672,-19.778615951538086
1739555418742335200,6.828335205078125,-30.69036865234375,-19.237167358398438,-19.63465118408203
1739555418752405500,6.838405517578125,-30.572418212890625,-19.282546997070312,-19.435842514038086
1739555418762475300,6.848475341796875,-30.568084716796875,-19.200096130371094,-19.191165924072266
1739555418772545300,6.858545166015625,-30.3817138671875,-19.382606506347656,-19.220012664794922
1739555418782615300,6.868615234375,-30.592193603515625,-19.57819366455078,-19.448213577270508
1739555418792685300,6.878685302734375,-30.21282958984375,-19.900436401367188,-19.534992218017578
1739555418802755300,6.88875537109375,-29.958526611328125,-20.060379028320312,-19.918838500976562
1739555418812825300,6.898825439453125,-30.052978515625,-20.200279235839844,-20.427501678466797
1739555418822895400,6.908895263671875,-29.434234619140625,-20.247314453125,-20.75013542175293
1739555418832965400,6.91896533203125,-28.757781982421875,-20.20099639892578,-21.14401626586914
1739555418843035400,6.929035400390625,-28.488006591796875,-20.594467163085938,-21.472347259521484
1739555418853105400,6.93910546875,-28.3646240234375,-20.615798950195312,-21.579347610473633
1739555418863175400,6.949175537109375,-28.1766357421875,-21.077438354492188,-21.471134185791016
1739555418873245400,6.959245361328125,-28.308349609375,-21.20514678955078,-21.13892364501953
1739555418883315200,6.969315185546875,-28.57647705078125,-21.32257843017578,-21.145978927612305
1739555418893385500,6.979385498046875,-27.99676513671875,-21.45311737060547,-21.190078735351562
1739555418903455200,6.989455322265625,-28.05352783203125,-21.64789581298828,-21.30799102783203
1739555418913525200,6.999525146484375,-28.1273193359375,-21.805870056152344,-21.2308406829834
1739555418923595500,7.009595458984375,-27.781219482421875,-21.764144897460938,-21.301406860351562
1739555418933665300,7.019665283203125,-27.7388916015625,-22.04621124267578,-21.420400619506836
1739555418943735300,7.0297353515625,-27.519073486328125,-22.157432556152344,-21.595869064331055
1739555418953805600,7.0398056640625,-27.438629150390625,-22.315650939941406,-21.280561447143555
1739555418963876600,7.049876708984375,-27.184967041015625,-22.209976196289062,-21.191442489624023
1739555418973946400,7.0599462890625,-27.35638427734375,-22.44544219970703,-21.396373748779297
1739555418984016400,7.070016357421875,-27.129150390625,-22.223373413085938,-21.03811264038086
1739555418994086100,7.080086181640625,-27.449066162109375,-22.36822509765625,-21.1523494720459
1739555419004156400,7.090156494140625,-27.544830322265625,-22.474197387695312,-20.8831787109375
1739555419014226400,7.100226318359375,-27.6109619140625,-22.450706481933594,-20.99846076965332
1739555419024296200,7.110296142578125,-27.449493408203125,-22.40363311767578,-20.80756950378418
1739555419034366500,7.120366455078125,-27.633941650390625,-22.38482666015625,-20.42715835571289
1739555419044436500,7.1304365234375,-27.808013916015625,-22.462791442871094,-20.36469268798828
1739555419054506200,7.14050634765625,-27.770111083984375,-22.391403198242188,-20.34288787841797
1739555419064576500,7.150576416015625,-27.8516845703125,-22.257095336914062,-20.234495162963867
1739555419074646500,7.160646484375,-27.842071533203125,-22.248550415039062,-20.409957885742188
1739555419084716300,7.17071630859375,-27.600433349609375,-22.45330047607422,-20.482635498046875
1739555419094786300,7.180786376953125,-27.476348876953125,-22.27838897705078,-20.38113784790039
1739555419104856300,7.190856201171875,-27.779632568359375,-22.159019470214844,-20.279298782348633
1739555419114926300,7.20092626953125,-27.787384033203125,-22.339675903320312,-20.46743392944336
1739555419124996400,7.210996337890625,-28.095489501953125,-22.074974060058594,-20.446979522705078
1739555419135066400,7.22106640625,-28.044586181640625,-22.20128631591797,-20.821056365966797
1739555419145136400,7.231136474609375,-27.99713134765625,-22.206466674804688,-20.720718383789062
1739555419155206400,7.241206298828125,-27.92889404296875,-21.930404663085938,-20.850278854370117
1739555419165276400,7.2512763671875,-28.1873779296875,-21.78852081298828,-21.00191307067871
1739555419175346400,7.261346435546875,-28.2923583984375,-21.93279266357422,-20.77798843383789
1739555419185416400,7.27141650390625,-28.56024169921875,-21.917495727539062,-20.862529754638672
1739555419195486200,7.281486328125,-27.8682861328125,-21.70134735107422,-20.588146209716797
1739555419205556500,7.291556396484375,-28.171966552734375,-21.40209197998047,-20.86042594909668
1739555419215626500,7.30162646484375,-28.38421630859375,-21.144920349121094,-20.87586212158203
1739555419225696300,7.3116962890625,-28.49102783203125,-21.13959503173828,-21.097864151000977
1739555419235766500,7.3217666015625,-29.070526123046875,-21.32354736328125,-21.153778076171875
1739555419245836300,7.331836181640625,-28.7386474609375,-21.400909423828125,-21.220430374145508
1739555419255906300,7.34190625,-28.898193359375,-21.035736083984375,-21.041263580322266
1739555419265976300,7.351976318359375,-28.433929443359375,-21.089401245117188,-21.346820831298828
1739555419276046300,7.36204638671875,-28.466644287109375,-21.030662536621094,-21.09168815612793
1739555419286116400,7.372116455078125,-28.29638671875,-20.97943115234375,-20.936113357543945
1739555419296186400,7.382186279296875,-28.263702392578125,-21.015228271484375,-20.97540855407715
1739555419306256400,7.39225634765625,-28.26434326171875,-21.071556091308594,-21.19139862060547
1739555419316326400,7.402326416015625,-28.343414306640625,-21.04357147216797,-21.09706687927246
1739555419326396400,7.412396484375,-28.51171875,-21.10723114013672,-21.133792877197266
1739555419336466400,7.422466552734375,-28.48077392578125,-21.163780212402344,-21.09061622619629
1739555419346536400,7.432536376953125,-28.392364501953125,-21.23938751220703,-21.06117820739746
1739555419356606500,7.4426064453125,-28.420074462890625,-21.233802795410156,-21.28230857849121
1739555419366676500,7.452676513671875,-28.5819091796875,-20.94342041015625,-21.233301162719727
1739555419376746500,7.46274658203125,-28.2926025390625,-21.112564086914062,-21.461524963378906
1739555419386816500,7.47281640625,-28.17779541015625,-21.353744506835938,-21.686737060546875
1739555419396886500,7.482886474609375,-27.89990234375,-21.203414916992188,-21.95115852355957
1739555419406956500,7.49295654296875,-27.89654541015625,-21.137046813964844,-22.06366729736328
1739555419417026600,7.503026611328125,-28.228240966796875,-21.262359619140625,-21.998470306396484
1739555419427096600,7.5130966796875,-28.06915283203125,-21.332496643066406,-21.730985641479492
1739555419437166300,7.523166259765625,-28.282562255859375,-21.467269897460938,-21.760175704956055
1739555419447236600,7.533236572265625,-28.578369140625,-21.170181274414062,-21.60202407836914
1739555419457306400,7.543306396484375,-28.640167236328125,-21.0670166015625,-21.35318946838379
1739555419467376400,7.55337646484375,-28.3548583984375,-21.03191375732422,-21.247634887695312
1739555419477446700,7.56344677734375,-28.62188720703125,-20.829261779785156,-21.17154884338379
1739555419487516400,7.573516357421875,-28.5494384765625,-20.942779541015625,-21.103904724121094
1739555419497586400,7.58358642578125,-28.774627685546875,-20.896690368652344,-21.083824157714844
1739555419507656400,7.593656494140625,-29.150787353515625,-20.883468627929688,-21.12449073791504
1739555419517726500,7.6037265625,-29.038909912109375,-21.076515197753906,-21.092945098876953
1739555419527796500,7.61379638671875,-28.69757080078125,-20.88482666015625,-21.311784744262695
1739555419537866500,7.623866455078125,-28.40789794921875,-20.91455841064453,-20.825191497802734
1739555419547936500,7.6339365234375,-28.199676513671875,-21.022186279296875,-21.059614181518555
1739555419558006500,7.644006591796875,-28.009857177734375,-21.270095825195312,-20.79266357421875
1739555419568076500,7.65407666015625,-28.22540283203125,-21.68958282470703,-20.980701446533203
1739555419578146600,7.664146484375,-28.266937255859375,-21.638328552246094,-21.02072525024414
1739555419588216600,7.674216552734375,-28.04376220703125,-21.96910858154297,-20.7833309173584
1739555419598286300,7.684286376953125,-28.20623779296875,-22.421951293945312,-20.767345428466797
1739555419608356400,7.6943564453125,-28.435882568359375,-22.767684936523438,-20.677213668823242
1739555419618426600,7.704426513671875,-28.322113037109375,-23.017837524414062,-20.665620803833008
1739555419628497700,7.71449755859375,-28.03155517578125,-23.319427490234375,-20.616573333740234
1739555419638567400,7.7245673828125,-27.685760498046875,-23.5894775390625,-20.469722747802734
1739555419648637400,7.734637451171875,-27.66156005859375,-23.790695190429688,-20.47245216369629
1739555419658707500,7.74470751953125,-27.20880126953125,-24.128379821777344,-20.302143096923828
1739555419668777500,7.754777587890625,-27.345672607421875,-24.555885314941406,-20.51222801208496
1739555419678847500,7.764847412109375,-26.888153076171875,-25.142616271972656,-20.05120849609375
1739555419688917500,7.77491748046875,-26.62286376953125,-25.568344116210938,-20.041873931884766
1739555419698987500,7.784987548828125,-26.59759521484375,-25.789588928222656,-19.83376693725586
1739555419709057500,7.7950576171875,-26.72955322265625,-25.993125915527344,-19.616594314575195
1739555419719127300,7.805127197265625,-26.4556884765625,-26.486610412597656,-19.204130172729492
1739555419729197600,7.815197509765625,-26.50848388671875,-26.712547302246094,-19.16278076171875
1739555419739267600,7.825267578125,-26.304443359375,-26.60124969482422,-18.72041893005371
1739555419749337300,7.83533740234375,-26.11480712890625,-26.67144775390625,-18.671367645263672
1739555419759407600,7.84540771484375,-26.0924072265625,-26.732925415039062,-18.560768127441406
1739555419769477600,7.8554775390625,-26.079803466796875,-26.942054748535156,-18.67525863647461
1739555419779547400,7.86554736328125,-25.913055419921875,-27.233383178710938,-18.590879440307617
1739555419789617700,7.87561767578125,-25.793121337890625,-27.31747817993164,-18.485517501831055
1739555419799687400,7.8856875,-25.6177978515625,-27.189857482910156,-18.72620391845703
1739555419809757400,7.89575732421875,-25.954437255859375,-27.23700714111328,-18.615324020385742
1739555419819827500,7.905827392578125,-26.06829833984375,-27.409954071044922,-18.376678466796875
1739555419829897500,7.9158974609375,-25.870574951171875,-27.498615264892578,-18.41502571105957
1739555419839967500,7.925967529296875,-25.447906494140625,-27.58682632446289,-18.31731414794922
1739555419850037500,7.93603759765625,-25.674072265625,-27.654109954833984,-18.476516723632812
1739555419860107500,7.946107421875,-25.976715087890625,-27.390621185302734,-18.422874450683594
1739555419870177500,7.956177490234375,-25.763214111328125,-27.441787719726562,-18.338672637939453
1739555419880247600,7.96624755859375,-25.859344482421875,-27.561927795410156,-18.413999557495117
1739555419890317600,7.976317626953125,-26.12200927734375,-27.370128631591797,-18.437414169311523
1739555419900387600,7.9863876953125,-26.032379150390625,-27.221092224121094,-18.380786895751953
1739555419910457600,7.99645751953125,-26.033721923828125,-27.012840270996094,-18.630159378051758
1739555419920527400,8.00652734375,-25.92645263671875,-27.05738067626953,-18.423364639282227
1739555419930597600,8.01659765625,-26.329559326171875,-26.96783447265625,-18.398597717285156
1739555419940667400,8.02666748046875,-26.516693115234375,-26.901992797851562,-18.421743392944336
1739555419950737400,8.0367373046875,-26.56475830078125,-26.71495819091797,-18.5499324798584
1739555419960807700,8.0468076171875,-26.41668701171875,-26.506927490234375,-18.346168518066406
1739555419970877400,8.05687744140625,-26.84014892578125,-26.287490844726562,-18.312780380249023
1739555419980947500,8.066947509765624,-26.86468505859375,-26.015869140625,-18.187273025512695
1739555419991017500,8.077017578125,-26.564056396484375,-26.463272094726562,-18.069246292114258
1739555420001087500,8.08708740234375,-26.8248291015625,-26.367889404296875,-18.264060974121094
1739555420011157500,8.097157470703126,-26.85504150390625,-26.394210815429688,-18.22809600830078
1739555420021227500,8.1072275390625,-26.519683837890625,-26.299514770507812,-18.33806800842285
1739555420031297500,8.117297607421875,-26.59014892578125,-26.329879760742188,-18.447078704833984
1739555420041367600,8.127367431640625,-26.59197998046875,-26.451263427734375,-18.33460235595703
1739555420051437300,8.137437255859375,-26.506134033203125,-26.47240447998047,-18.51030921936035
1739555420061507600,8.147507568359375,-26.109283447265625,-26.595291137695312,-18.50532341003418
1739555420071577600,8.15757763671875,-25.683441162109375,-26.445144653320312,-18.67326545715332
1739555420081647400,8.1676474609375,-25.914215087890625,-26.52301788330078,-18.659650802612305
1739555420091717400,8.17771728515625,-25.49371337890625,-26.73272705078125,-18.452978134155273
1739555420101787600,8.18778759765625,-25.9005126953125,-26.61339569091797,-18.965892791748047
1739555420111857400,8.197857421875,-25.24224853515625,-26.778396606445312,-19.147274017333984
1739555420121927400,8.207927490234376,-25.3409423828125,-26.710716247558594,-19.507591247558594
1739555420131997700,8.217997802734375,-25.439208984375,-26.649154663085938,-19.50093650817871
1739555420142067500,8.2280673828125,-25.591705322265625,-26.6502685546875,-19.249601364135742
1739555420152137500,8.238137451171875,-25.44720458984375,-26.62432861328125,-19.378639221191406
1739555420162207500,8.24820751953125,-25.1907958984375,-26.70569610595703,-19.171566009521484
1739555420172277500,8.258277587890625,-25.40277099609375,-26.424911499023438,-19.140905380249023
1739555420182347500,8.268347412109375,-25.51318359375,-26.398712158203125,-19.073755264282227
1739555420192417300,8.278417236328124,-26.179901123046875,-26.26134490966797,-19.03461265563965
1739555420202487600,8.288487548828124,-25.750885009765625,-26.363479614257812,-19.138919830322266
1739555420212557600,8.2985576171875,-25.373321533203125,-26.30322265625,-19.064655303955078
1739555420222627300,8.30862744140625,-25.630706787109375,-26.395263671875,-19.393997192382812
1739555420232697600,8.318697509765625,-25.960784912109375,-26.201202392578125,-19.27423667907715
1739555420242767600,8.328767578125,-26.431884765625,-25.831787109375,-19.132999420166016
1739555420252837400,8.33883740234375,-26.3250732421875,-25.85266876220703,-19.12038803100586
1739555420262907400,8.348907470703125,-26.307525634765625,-25.834251403808594,-18.879669189453125
1739555420272977700,8.358977783203125,-26.477569580078125,-25.94696807861328,-18.712053298950195
1739555420283047400,8.36904736328125,-26.747344970703125,-25.707382202148438,-18.466625213623047
1739555420293117400,8.379117431640625,-27.02813720703125,-25.705490112304688,-18.355010986328125
1739555420303187700,8.389187744140624,-26.95751953125,-25.35364532470703,-17.898273468017578
1739555420313257500,8.399257568359374,-27.131591796875,-25.49658203125,-17.462295532226562
1739555420323326500,8.409326416015626,-27.71978759765625,-25.594314575195312,-17.136234283447266
1739555420333396500,8.419396484375,-28.12530517578125,-25.455291748046875,-16.480003356933594
1739555420343466200,8.42946630859375,-28.131561279296875,-25.622482299804688,-15.943792343139648
1739555420353536300,8.439536376953125,-27.96588134765625,-25.491455078125,-15.433464050292969
1739555420363606500,8.4496064453125,-28.308197021484375,-25.539016723632812,-15.23403263092041
1739555420373676300,8.45967626953125,-28.34375,-25.802352905273438,-14.64739990234375
1739555420383746300,8.469746337890625,-28.336883544921875,-25.771522521972656,-14.619431495666504
1739555420393816600,8.479816650390624,-27.984375,-25.916580200195312,-14.707477569580078
1739555420403886300,8.48988623046875,-27.832061767578125,-26.209609985351562,-14.492984771728516
1739555420413956400,8.499956298828126,-27.83367919921875,-26.435623168945312,-14.79817008972168
1739555420424026400,8.5100263671875,-27.6309814453125,-26.27466583251953,-15.006043434143066
1739555420434096400,8.520096435546876,-27.44091796875,-26.2000732421875,-15.575593948364258
1739555420444166400,8.53016650390625,-27.31475830078125,-26.5194091796875,-15.685362815856934
1739555420454236200,8.540236083984375,-26.623504638671875,-26.573379516601562,-16.295467376708984
1739555420464306400,8.550306396484375,-26.692291259765625,-26.72937774658203,-16.543535232543945
1739555420474376400,8.56037646484375,-26.45941162109375,-27.113365173339844,-16.83385467529297
1739555420484446200,8.5704462890625,-25.821441650390625,-27.345478057861328,-16.461416244506836
1739555420494516500,8.5805166015625,-25.808502197265625,-27.52121353149414,-16.564720153808594
1739555420504586500,8.59058642578125,-25.391876220703125,-27.901348114013672,-16.658010482788086
1739555420514656300,8.60065625,-25.1185302734375,-28.04281234741211,-16.597028732299805
1739555420524726300,8.610726318359376,-25.172760009765625,-28.216869354248047,-16.77239418029785
1739555420534796500,8.620796630859376,-25.06781005859375,-28.38759994506836,-16.867921829223633
1739555420544866300,8.6308662109375,-25.1507568359375,-28.79187774658203,-16.62443733215332
1739555420554936300,8.640936279296875,-24.72161865234375,-28.793651580810547,-16.622852325439453
1739555420565006300,8.65100634765625,-24.881072998046875,-28.808021545410156,-16.65094566345215
1739555420575076400,8.661076416015625,-24.187042236328125,-29.100051879882812,-16.70639419555664
1739555420585146400,8.671146484375,-24.309356689453125,-29.279739379882812,-16.6544189453125
1739555420595216400,8.68121630859375,-24.20367431640625,-29.192596435546875,-16.638774871826172
1739555420605286400,8.691286376953125,-24.152099609375,-29.46670913696289,-16.35504722595215
1739555420615356400,8.7013564453125,-23.814788818359375,-29.31829071044922,-16.14545440673828
1739555420625426200,8.71142626953125,-24.148651123046875,-29.838848114013672,-16.073959350585938
1739555420635496400,8.721496337890626,-23.84332275390625,-29.73501968383789,-16.212928771972656
1739555420645566500,8.73156640625,-23.86065673828125,-30.07598876953125,-15.94884204864502
1739555420655636200,8.74163623046875,-24.0111083984375,-29.910667419433594,-15.935847282409668
1739555420665706500,8.75170654296875,-23.599273681640625,-29.726234436035156,-16.000329971313477
1739555420675776500,8.761776611328125,-23.53057861328125,-29.67706298828125,-15.681105613708496
1739555420685846300,8.77184619140625,-23.74993896484375,-29.684017181396484,-15.7763032913208
1739555420695916300,8.781916259765625,-23.715789794921875,-29.70040512084961,-15.796564102172852
1739555420705986300,8.791986328125,-23.90130615234375,-29.95793914794922,-15.642192840576172
1739555420716056300,8.802056396484375,-23.53570556640625,-29.74715805053711,-15.784920692443848
1739555420726126300,8.812126220703124,-23.933258056640625,-30.05893325805664,-15.850125312805176
1739555420736196400,8.8221962890625,-24.022735595703125,-30.008716583251953,-15.85015869140625
1739555420746266400,8.832266357421876,-23.75567626953125,-29.767677307128906,-15.874041557312012
1739555420756336400,8.84233642578125,-23.631011962890625,-29.109394073486328,-15.627925872802734
1739555420766406400,8.852406494140626,-23.7188720703125,-29.366180419921875,-15.635077476501465
1739555420776476400,8.862476318359375,-23.910675048828125,-29.307628631591797,-15.614156723022461
1739555420786546400,8.87254638671875,-24.063446044921875,-29.174785614013672,-15.595081329345703
1739555420796616200,8.8826162109375,-24.3236083984375,-29.319656372070312,-15.56697940826416
1739555420806686500,8.8926865234375,-24.330780029296875,-29.22693634033203,-15.773971557617188
1739555420816756200,8.902756103515625,-24.45208740234375,-28.94723129272461,-15.758698463439941
1739555420826825500,8.912825439453124,-24.592193603515625,-28.9119873046875,-15.745259284973145
1739555420836896500,8.922896484375,-24.625396728515625,-28.82433319091797,-16.07833480834961
1739555420846965200,8.93296533203125,-25.213104248046875,-28.572616577148438,-16.01790428161621
1739555420857035500,8.943035400390626,-25.323974609375,-28.294151306152344,-16.0822811126709
1739555420867105500,8.95310546875,-25.37664794921875,-28.309646606445312,-15.862383842468262
1739555420877175300,8.96317529296875,-25.14154052734375,-28.025188446044922,-16.12672233581543
1739555420887245300,8.973245361328125,-25.55438232421875,-27.590015411376953,-16.145618438720703
1739555420897315300,8.9833154296875,-25.76837158203125,-27.315040588378906,-15.96671199798584
1739555420907385300,8.99338525390625,-25.925201416015625,-27.472007751464844,-15.851727485656738
1739555420917455400,9.003455322265625,-26.052581787109375,-27.16852569580078,-16.017072677612305
1739555420927525400,9.013525390625,-26.33123779296875,-27.095718383789062,-16.120206832885742
1739555420937595400,9.023595458984374,-26.59710693359375,-26.737403869628906,-16.098909378051758
1739555420947665400,9.03366552734375,-26.6163330078125,-26.798934936523438,-16.160625457763672
1739555420957735400,9.0437353515625,-26.430877685546875,-26.53118896484375,-16.102771759033203
1739555420967805400,9.053805419921876,-26.37921142578125,-26.442848205566406,-16.242753982543945
1739555420977875500,9.06387548828125,-26.175262451171875,-26.466751098632812,-16.33841896057129
1739555420987945200,9.0739453125,-26.406951904296875,-26.273780822753906,-16.564983367919922
1739555420998015500,9.084015380859375,-26.393646240234375,-26.111923217773438,-16.661209106445312
1739555421008085200,9.094085205078125,-26.66241455078125,-26.16083526611328,-16.656055450439453
1739555421018155300,9.1041552734375,-26.42132568359375,-26.13451385498047,-16.65383529663086
1739555421028225500,9.1142255859375,-26.59869384765625,-25.933486938476562,-16.696582794189453
1739555421038295300,9.12429541015625,-26.592529296875,-25.743026733398438,-16.806949615478516
1739555421048365300,9.134365234375,-26.5977783203125,-25.947425842285156,-17.099504470825195
1739555421058435300,9.144435302734376,-26.29254150390625,-25.84276580810547,-17.020126342773438
1739555421068505300,9.15450537109375,-26.03704833984375,-25.83349609375,-16.74540138244629
1739555421078575400,9.164575439453126,-26.186126708984375,-25.833335876464844,-16.92832374572754
1739555421088645400,9.174645263671875,-26.1981201171875,-25.820884704589844,-17.121856689453125
1739555421098715400,9.18471533203125,-26.120361328125,-25.737510681152344,-17.129518508911133
1739555421108785400,9.194785400390625,-26.05389404296875,-25.56304931640625,-17.126623153686523
1739555421118855400,9.20485546875,-26.257598876953125,-25.299758911132812,-16.927684783935547
1739555421128925400,9.214925537109375,-26.32904052734375,-25.403594970703125,-17.0784912109375
1739555421138995500,9.224995361328125,-26.487701416015625,-25.208450317382812,-17.131105422973633
1739555421149065200,9.235065185546874,-26.334808349609375,-25.29798126220703,-16.995067596435547
1739555421159135200,9.24513525390625,-26.78643798828125,-25.015228271484375,-16.797849655151367
1739555421169205500,9.25520556640625,-26.809234619140625,-25.05267333984375,-16.99788475036621
1739555421179275300,9.265275146484376,-26.753875732421875,-24.67505645751953,-17.27989387512207
1739555421189345300,9.27534521484375,-26.93182373046875,-24.45568084716797,-17.56890296936035
1739555421199415600,9.28541552734375,-26.92449951171875,-24.39502716064453,-17.700868606567383
1739555421209485300,9.2954853515625,-26.998199462890625,-24.26055908203125,-17.753677368164062
1739555421219555300,9.305555419921875,-26.981109619140625,-24.141891479492188,-17.797863006591797
1739555421229625300,9.315625244140625,-26.836822509765625,-24.010353088378906,-17.94304656982422
1739555421239695400,9.3256953125,-26.578887939453125,-23.794296264648438,-18.084980010986328
1739555421249765400,9.335765380859375,-27.037628173828125,-23.870094299316406,-17.955402374267578
1739555421259835400,9.34583544921875,-26.85028076171875,-23.94342041015625,-18.068695068359375
1739555421269905400,9.355905517578124,-26.8824462890625,-23.8260498046875,-18.129844665527344
1739555421279975400,9.365975341796876,-26.814910888671875,-23.884178161621094,-18.201927185058594
1739555421290045200,9.376045166015626,-26.641510009765625,-24.143775939941406,-18.210325241088867
1739555421300115500,9.386115478515626,-26.7972412109375,-24.368911743164062,-18.072521209716797
1739555421310185500,9.396185546875,-26.9141845703125,-24.324356079101562,-18.071115493774414
1739555421320259300,9.40625927734375,-26.56036376953125,-24.577606201171875,-17.92371940612793
1739555421330329000,9.4163291015625,-26.51507568359375,-24.555908203125,-17.99403953552246
1739555421340399400,9.4263994140625,-26.72015380859375,-24.87146759033203,-17.95094871520996
1739555421350469400,9.436469482421876,-25.945465087890625,-25.11058807373047,-17.93412208557129
1739555421360539100,9.4465390625,-25.77398681640625,-25.301124572753906,-17.864709854125977
1739555421370609400,9.456609375,-25.9345703125,-25.743240356445312,-17.975116729736328
1739555421380679200,9.46667919921875,-25.823089599609375,-25.897430419921875,-17.890045166015625
1739555421390749200,9.476749267578125,-25.578582763671875,-25.99529266357422,-17.49625015258789
1739555421400819200,9.486819091796875,-25.728546142578125,-26.392257690429688,-17.322124481201172
1739555421410889200,9.49688916015625,-25.3280029296875,-26.921127319335938,-17.018508911132812
1739555421420958200,9.506958251953124,-24.753570556640625,-27.042625427246094,-16.8021297454834
1739555421431028200,9.5170283203125,-24.8828125,-27.11206817626953,-16.692363739013672
1739555421441098200,9.52709814453125,-24.967926025390625,-27.345096588134766,-16.647838592529297
1739555421451168300,9.537168212890625,-24.928253173828125,-27.530567169189453,-16.615442276000977
1739555421461238300,9.54723828125,-24.711212158203125,-27.62106704711914,-16.588144302368164
1739555421471308300,9.557308349609375,-24.68133544921875,-27.706253051757812,-16.468103408813477
1739555421481378300,9.56737841796875,-24.440826416015625,-27.675426483154297,-16.597537994384766
1739555421491448000,9.577447998046875,-24.829193115234375,-27.813907623291016,-16.583375930786133
1739555421501518300,9.587518310546875,-23.999176025390625,-27.86181640625,-16.81317710876465
1739555421511588400,9.59758837890625,-24.44366455078125,-28.024932861328125,-16.766582489013672
1739555421521658000,9.607658203125,-24.480987548828125,-27.977645874023438,-16.685335159301758
1739555421531728400,9.617728271484374,-24.5748291015625,-27.92148208618164,-16.642879486083984
1739555421541798400,9.62779833984375,-24.34765625,-28.20140838623047,-16.679122924804688
1739555421551868200,9.6378681640625,-24.15838623046875,-28.291393280029297,-16.70942497253418
1739555421561938200,9.647938232421875,-24.32916259765625,-28.583637237548828,-16.3874568939209
1739555421572008200,9.65800830078125,-24.10174560546875,-28.499187469482422,-16.21539306640625
1739555421582078200,9.668078125,-24.305389404296875,-28.41009521484375,-16.05314826965332
1739555421592148200,9.678148193359375,-24.647857666015625,-28.61933135986328,-15.986852645874023
1739555421602218200,9.68821826171875,-24.479736328125,-28.570453643798828,-16.007783889770508
1739555421612288300,9.698288330078125,-24.61260986328125,-28.441322326660156,-15.881072998046875
1739555421622358300,9.708358154296874,-25.16864013671875,-28.441326141357422,-16.00861358642578
1739555421632428300,9.71842822265625,-25.1727294921875,-28.465137481689453,-15.623664855957031
1739555421642498300,9.728498291015624,-24.749786376953125,-28.37044906616211,-15.681425094604492
1739555421652568300,9.738568359375,-24.700408935546875,-28.17038345336914,-15.379707336425781
1739555421662638000,9.74863818359375,-25.13897705078125,-28.026321411132812,-15.629294395446777
1739555421672708400,9.758708251953125,-25.339447021484375,-27.968585968017578,-15.705623626708984
1739555421682778400,9.7687783203125,-25.4183349609375,-27.869213104248047,-15.712414741516113
1739555421692848000,9.77884814453125,-25.25909423828125,-27.816143035888672,-15.488113403320312
1739555421702918400,9.78891845703125,-25.320037841796875,-27.720436096191406,-15.530640602111816
1739555421712988200,9.79898828125,-25.47943115234375,-27.237449645996094,-15.433257102966309
1739555421723058200,9.80905810546875,-25.4912109375,-27.315975189208984,-15.359879493713379
1739555421733128200,9.819128173828124,-24.98431396484375,-27.592601776123047,-15.598762512207031
1739555421743198200,9.8291982421875,-25.48126220703125,-27.28512191772461,-15.8695707321167
1739555421753268200,9.839268310546874,-25.59014892578125,-27.26131820678711,-15.693623542785645
1739555421763338200,9.849338134765626,-25.60565185546875,-27.424667358398438,-15.683128356933594
1739555421773408300,9.859408203125,-25.729736328125,-27.225234985351562,-15.55673599243164
1739555421783478300,9.869478271484375,-25.740814208984375,-27.075401306152344,-15.682931900024414
1739555421793548300,9.87954833984375,-25.63629150390625,-26.89935302734375,-15.520231246948242
1739555421803618300,9.889618408203125,-26.1624755859375,-26.853614807128906,-15.494415283203125
1739555421813688300,9.899688232421875,-25.77001953125,-26.623001098632812,-15.296430587768555
1739555421823758000,9.909758056640625,-26.33648681640625,-26.676109313964844,-15.524694442749023
1739555421833827300,9.919827392578124,-25.958770751953125,-26.735916137695312,-15.434708595275879
1739555421843897300,9.9298974609375,-26.11676025390625,-26.724380493164062,-15.623640060424805
1739555421853967000,9.939967041015626,-26.137298583984375,-26.438095092773438,-15.67985725402832
1739555421864037400,9.950037353515626,-26.18438720703125,-26.536819458007812,-15.565323829650879
1739555421874107400,9.960107421875,-26.533660888671875,-26.423423767089844,-15.83181381225586
1739555421884177200,9.97017724609375,-26.711883544921875,-26.656646728515625,-15.666296005249023
1739555421894247200,9.9802470703125,-26.31610107421875,-26.446807861328125,-15.867374420166016
1739555421904317200,9.990317138671875,-26.348419189453125,-26.50116729736328,-15.954971313476562
1739555421914387200,10.00038720703125,-26.241973876953125,-26.13184356689453,-15.840417861938477
1739555421924457200,10.010457275390625,-26.607330322265625,-26.229698181152344,-15.680599212646484
1739555421934527200,10.02052734375,-27.120941162109375,-26.046409606933594,-15.663549423217773
1739555421944597200,10.03059716796875,-27.07403564453125,-26.20348358154297,-15.737325668334961
1739555421954667300,10.040667236328124,-26.92034912109375,-25.983596801757812,-15.698404312133789
1739555421964737300,10.0507373046875,-27.484161376953125,-25.882598876953125,-15.613568305969238
1739555421974807300,10.060807373046876,-27.226226806640625,-25.75438690185547,-15.411230087280273
1739555421984877300,10.070877197265625,-27.600006103515625,-25.89379119873047,-15.214616775512695
1739555421994947000,10.080947021484375,-27.60833740234375,-25.7979736328125,-15.69344425201416
1739555422005017300,10.091017333984375,-27.252227783203125,-25.552993774414062,-15.800228118896484
1739555422015087000,10.101087158203125,-27.943939208984375,-25.46837615966797,-15.802521705627441
1739555422025157000,10.1111572265625,-27.62884521484375,-25.470191955566406,-16.010272979736328
1739555422035227400,10.121227294921875,-27.35498046875,-25.427093505859375,-16.3255672454834
1739555422045297200,10.131297119140624,-27.2667236328125,-25.149978637695312,-16.357589721679688
1739555422055367200,10.1413671875,-27.89776611328125,-25.0443115234375,-16.858938217163086
1739555422065437400,10.1514375,-27.751708984375,-24.766258239746094,-16.774944305419922
1739555422075507200,10.161507080078126,-27.39984130859375,-24.989181518554688,-16.796504974365234
1739555422085577200,10.1715771484375,-27.576568603515625,-25.11102294921875,-16.79903793334961
1739555422095647200,10.181647216796875,-27.893646240234375,-25.183067321777344,-16.958303451538086
1739555422105717200,10.19171728515625,-27.9449462890625,-25.315704345703125,-16.675846099853516
1739555422115787300,10.201787353515625,-28.14044189453125,-25.207443237304688,-16.63820457458496
1739555422125857300,10.211857177734375,-28.036956787109375,-25.296783447265625,-16.581893920898438
1739555422135927300,10.22192724609375,-28.064605712890625,-25.42499542236328,-16.461172103881836
1739555422145997300,10.231997314453125,-28.244842529296875,-25.542198181152344,-16.440153121948242
1739555422156066300,10.24206640625,-28.09027099609375,-25.75823974609375,-16.194499969482422
1739555422166136300,10.25213623046875,-27.93890380859375,-25.91686248779297,-16.299049377441406
1739555422176206300,10.262206298828126,-27.535858154296875,-25.854217529296875,-16.41083335876465
1739555422186276000,10.272276123046876,-27.586669921875,-25.85675811767578,-16.550607681274414
1739555422196346400,10.282346435546875,-27.6971435546875,-25.881240844726562,-17.170726776123047
1739555422206416100,10.292416015625,-27.468597412109375,-25.87779998779297,-17.39571762084961
1739555422216486100,10.302486083984375,-27.376708984375,-26.077537536621094,-17.99656867980957
1739555422226556400,10.312556396484375,-27.129669189453125,-26.064682006835938,-18.498472213745117
1739555422236626200,10.322626220703125,-26.45538330078125,-26.116378784179688,-18.68242835998535
1739555422246696200,10.3326962890625,-26.3402099609375,-26.03253173828125,-18.824121475219727
1739555422256766200,10.34276611328125,-26.70574951171875,-26.019691467285156,-19.1611328125
1739555422266836200,10.352836181640624,-26.661224365234375,-25.671920776367188,-19.415485382080078
1739555422276906200,10.36290625,-27.0015869140625,-25.61591339111328,-19.40097427368164
1739555422286976300,10.372976318359376,-26.92724609375,-25.60334014892578,-19.256912231445312
1739555422297046300,10.38304638671875,-27.014190673828125,-25.62810516357422,-19.235885620117188
1739555422307116300,10.3931162109375,-26.9439697265625,-25.54198455810547,-18.99591827392578
1739555422317183200,10.403183349609375,-26.97821044921875,-25.526138305664062,-18.947782516479492
1739555422327253200,10.413253173828124,-27.29742431640625,-25.628456115722656,-18.666542053222656
1739555422337323500,10.423323486328124,-27.402008056640625,-25.41252899169922,-18.4055118560791
1739555422347393300,10.433393310546874,-27.437042236328125,-25.20063018798828,-18.367855072021484
1739555422357463300,10.44346337890625,-27.416961669921875,-25.369583129882812,-18.032899856567383
1739555422367533300,10.453533203125,-27.993560791015625,-25.24889373779297,-17.93792724609375
1739555422377603300,10.463603271484375,-28.1768798828125,-25.39409637451172,-18.04677963256836
1739555422387673300,10.47367333984375,-28.204681396484375,-25.584075927734375,-17.9960880279541
1739555422397743000,10.4837431640625,-27.963104248046875,-25.628143310546875,-17.96696662902832
1739555422407813400,10.4938134765625,-28.30419921875,-25.493255615234375,-18.055831909179688
1739555422417883400,10.50388330078125,-27.88690185546875,-25.59820556640625,-17.504823684692383
1739555422427953200,10.513953125,-27.727691650390625,-25.462814331054688,-17.738182067871094
1739555422438023400,10.5240234375,-28.247802734375,-25.25000762939453,-17.818124771118164
1739555422448092200,10.534092041015626,-28.473846435546875,-25.158493041992188,-17.785018920898438
1739555422458162400,10.544162353515626,-28.3304443359375,-25.213455200195312,-17.810178756713867
1739555422468232400,10.554232421875,-28.019195556640625,-24.970932006835938,-17.763381958007812
1739555422478302200,10.56430224609375,-28.120269775390625,-25.056297302246094,-17.87971305847168
1739555422488372200,10.574372314453125,-28.256622314453125,-24.748756408691406,-18.01807403564453
1739555422498442500,10.5844423828125,-28.039520263671875,-24.426849365234375,-18.10385513305664
1739555422508512300,10.59451220703125,-28.367584228515625,-24.572242736816406,-18.091724395751953
1739555422518582300,10.604582275390625,-28.760528564453125,-24.294052124023438,-18.301504135131836
1739555422528652500,10.614652587890625,-28.99200439453125,-24.341758728027344,-17.911590576171875
1739555422538722300,10.624722412109374,-28.84820556640625,-24.328018188476562,-17.772159576416016
1739555422548792300,10.634792236328124,-29.4779052734375,-24.125831604003906,-17.752201080322266
1739555422558862300,10.6448623046875,-28.983551025390625,-24.154991149902344,-17.810434341430664
1739555422568932400,10.654932373046876,-29.140960693359375,-23.91234588623047,-17.52288818359375
1739555422579002400,10.66500244140625,-29.358123779296875,-23.821937561035156,-17.403039932250977
1739555422589072100,10.675072021484375,-29.56292724609375,-24.08074188232422,-17.280500411987305
1739555422599142400,10.685142333984375,-29.257293701171875,-24.032981872558594,-17.372106552124023
1739555422609212400,10.69521240234375,-29.621856689453125,-23.999160766601562,-17.321199417114258
1739555422619282200,10.7052822265625,-29.09466552734375,-23.82025146484375,-17.18248748779297
1739555422629352400,10.7153525390625,-29.674224853515625,-23.853668212890625,-17.345434188842773
1739555422639422500,10.72542236328125,-29.384918212890625,-24.23357391357422,-17.677570343017578
1739555422649492200,10.7354921875,-29.42791748046875,-24.15533447265625,-17.663223266601562
1739555422659562200,10.745562255859374,-29.6666259765625,-23.9798583984375,-17.89173698425293
1739555422669632500,10.755632568359376,-29.627685546875,-23.967384338378906,-17.784597396850586
1739555422679702300,10.765702392578126,-29.61883544921875,-23.90058135986328,-18.129898071289062
1739555422689772300,10.775772216796875,-29.754791259765625,-24.05126190185547,-18.096099853515625
1739555422699842300,10.78584228515625,-29.86651611328125,-23.929107666015625,-18.00674057006836
1739555422709911300,10.795911376953125,-29.8944091796875,-24.090927124023438,-18.11476707458496
1739555422719981300,10.805981201171875,-29.4453125,-24.239181518554688,-18.725900650024414
1739555422730051300,10.81605126953125,-29.044097900390625,-24.321434020996094,-18.586057662963867
1739555422740121300,10.826121337890624,-29.11590576171875,-24.32782745361328,-18.6457462310791
1739555422750191000,10.836191162109374,-29.3131103515625,-24.354904174804688,-18.67750358581543
1739555422760261400,10.846261474609374,-29.12139892578125,-24.54064178466797,-18.881086349487305
1739555422770331400,10.856331298828126,-29.008636474609375,-24.477455139160156,-19.104450225830078
1739555422780401200,10.866401123046876,-28.792572021484375,-24.788490295410156,-18.92434310913086
1739555422790471400,10.876471435546875,-28.902008056640625,-24.640541076660156,-19.009532928466797
1739555422800541400,10.88654150390625,-28.571136474609375,-24.98859405517578,-19.13131332397461
1739555422810611200,10.896611083984375,-28.78948974609375,-25.098526000976562,-19.45063018798828
1739555422820681200,10.90668115234375,-28.15692138671875,-25.116737365722656,-19.60330581665039
1739555422830751500,10.91675146484375,-27.84283447265625,-25.402870178222656,-19.771440505981445
1739555422840821200,10.9268212890625,-27.60260009765625,-25.28094482421875,-20.246829986572266
1739555422850891300,10.936891357421874,-27.927947998046875,-25.457443237304688,-20.28460693359375
1739555422860961500,10.94696142578125,-28.07421875,-25.221420288085938,-20.260557174682617
1739555422871031300,10.95703125,-27.815582275390625,-25.21379852294922,-20.108585357666016
1739555422881101300,10.967101318359376,-28.02880859375,-25.092124938964844,-19.653547286987305
1739555422891171300,10.97717138671875,-28.119293212890625,-25.42730712890625,-19.226852416992188
1739555422901241300,10.987241455078125,-28.566680908203125,-25.432228088378906,-18.696792602539062
1739555422911311400,10.997311279296875,-28.453033447265625,-25.276580810546875,-18.241037368774414
1739555422921381000,11.007381103515625,-29.042724609375,-25.468223571777344,-17.8817081451416
1739555422931451400,11.017451416015625,-29.407012939453125,-25.62189483642578,-17.45030975341797
1739555422941521400,11.027521484375,-29.522491455078125,-25.8687744140625,-17.05565643310547
1739555422951590400,11.03759033203125,-29.5516357421875,-25.852890014648438,-16.873876571655273
1739555422961660400,11.047660400390624,-29.199462890625,-26.269386291503906,-16.786455154418945
1739555422971730200,11.057730224609376,-28.57147216796875,-26.521080017089844,-16.72728729248047
1739555422981800200,11.06780029296875,-28.208526611328125,-27.106674194335938,-16.90959930419922
1739555422991870500,11.077870361328126,-28.09423828125,-27.350887298583984,-17.072416305541992
1739555423001940200,11.087940185546875,-27.958770751953125,-27.430465698242188,-17.449138641357422
1739555423012010200,11.09801025390625,-27.482757568359375,-27.981548309326172,-17.653573989868164
1739555423022080500,11.10808056640625,-26.716156005859375,-28.055889129638672,-17.99866485595703
1739555423032150300,11.118150390625,-26.469207763671875,-28.070880889892578,-18.31928253173828
1739555423042220300,11.12822021484375,-26.125457763671875,-28.374584197998047,-18.643327713012695
1739555423052290600,11.13829052734375,-25.935028076171875,-28.34967803955078,-18.844921112060547
1739555423062360300,11.1483603515625,-26.134765625,-28.41097640991211,-18.942195892333984
1739555423072430300,11.158430419921874,-26.19085693359375,-28.272388458251953,-18.5228271484375
1739555423082500000,11.1685,-26.6134033203125,-28.371623992919922,-17.94051170349121
1739555423092570400,11.1785703125,-26.77294921875,-28.639572143554688,-17.656166076660156
1739555423102640400,11.188640380859376,-27.105499267578125,-28.352294921875,-16.844697952270508
1739555423112710100,11.198710205078125,-27.50732421875,-28.362751007080078,-16.370243072509766
1739555423122780400,11.208780517578125,-27.705047607421875,-28.109725952148438,-15.868353843688965
1739555423132850400,11.218850341796875,-28.140777587890625,-28.318866729736328,-15.812654495239258
1739555423142920200,11.228920166015625,-28.1693115234375,-28.251609802246094,-15.486700057983398
1739555423152990500,11.238990478515625,-27.792022705078125,-28.27123260498047,-15.432671546936035
1739555423163060500,11.249060546875,-27.53289794921875,-28.24205780029297,-15.916679382324219
1739555423173129200,11.259129150390624,-27.615692138671875,-28.263023376464844,-16.26422691345215
1739555423183199500,11.269199462890626,-27.568572998046875,-28.09827423095703,-16.31645393371582
1739555423193269200,11.279269287109376,-27.646270751953125,-28.120941162109375,-16.639455795288086
1739555423203339300,11.28933935546875,-27.623626708984375,-28.295368194580078,-16.72492218017578
1739555423213409500,11.299409423828125,-27.651031494140625,-27.975746154785156,-17.008708953857422
1739555423223479300,11.309479248046875,-27.837066650390625,-27.70099639892578,-17.009737014770508
1739555423233549300,11.31954931640625,-27.55413818359375,-27.635135650634766,-17.13773536682129
1739555423243619300,11.329619384765625,-27.571441650390625,-27.40575408935547,-17.003482818603516
1739555423253689300,11.339689453125,-28.0277099609375,-27.386547088623047,-17.204408645629883
1739555423263759400,11.34975927734375,-28.00128173828125,-27.45494842529297,-17.224306106567383
1739555423273829000,11.3598291015625,-28.476348876953125,-27.03612518310547,-17.200368881225586
1739555423283899400,11.3698994140625,-28.5704345703125,-26.787391662597656,-16.886146545410156
1739555423293969400,11.379969482421876,-28.982025146484375,-26.760398864746094,-17.141672134399414
1739555423304039200,11.3900390625,-29.042205810546875,-26.191978454589844,-17.007495880126953
1739555423314109400,11.400109375,-28.861846923828125,-26.17901611328125,-16.788768768310547
1739555423324179200,11.41017919921875,-29.227325439453125,-26.171546936035156,-16.76857566833496
1739555423334249000,11.4202490234375,-29.35223388671875,-26.098281860351562,-16.938587188720703
1739555423344319200,11.4303193359375,-29.09393310546875,-26.049705505371094,-16.947425842285156
1739555423354389200,11.44038916015625,-29.452850341796875,-26.239013671875,-17.164777755737305
1739555423364459000,11.450458984375,-29.445526123046875,-25.927200317382812,-17.07423973083496
1739555423374529000,11.460529052734374,-29.349334716796875,-25.86693572998047,-17.2144832611084
1739555423384598000,11.470597900390626,-29.17340087890625,-25.794677734375,-16.932222366333008
1739555423394668000,11.48066796875,-29.522491455078125,-25.68499755859375,-16.947654724121094
1739555423404738300,11.49073828125,-29.51983642578125,-25.85992431640625,-16.97659683227539
1739555423414808000,11.50080810546875,-29.61468505859375,-25.816009521484375,-16.87238883972168
1739555423424878000,11.510878173828125,-29.70001220703125,-25.583595275878906,-17.20796775817871
1739555423434948000,11.520947998046875,-29.612762451171875,-25.523780822753906,-17.015972137451172
1739555423445018000,11.53101806640625,-29.555877685546875,-25.583274841308594,-16.948305130004883
1739555423455088000,11.541088134765625,-29.7640380859375,-25.617469787597656,-16.989171981811523
1739555423465158100,11.551158203125,-29.95623779296875,-25.761871337890625,-16.99947166442871
1739555423475228200,11.561228271484374,-29.842193603515625,-25.560928344726562,-16.842134475708008
1739555423485298200,11.571298095703124,-30.143310546875,-25.61687469482422,-16.8873348236084
1739555423495368000,11.581367919921876,-30.004150390625,-25.698333740234375,-16.934715270996094
1739555423505438200,11.591438232421876,-29.43682861328125,-25.83818817138672,-17.055482864379883
1739555423515508200,11.60150830078125,-29.506378173828125,-25.670547485351562,-17.076427459716797
1739555423525578000,11.611577880859375,-29.659820556640625,-25.983749389648438,-17.051769256591797
1739555423535648000,11.62164794921875,-29.50408935546875,-25.904884338378906,-17.175230026245117
1739555423545718300,11.63171826171875,-29.857818603515625,-25.563308715820312,-16.80255889892578
1739555423555788000,11.6417880859375,-29.9576416015625,-25.63555908203125,-16.733966827392578
1739555423565858000,11.651858154296875,-30.4599609375,-25.548873901367188,-16.84087371826172
1739555423575928300,11.66192822265625,-30.45263671875,-25.379600524902344,-16.807397842407227
1739555423585997000,11.6719970703125,-30.234832763671875,-25.274070739746094,-16.990516662597656
1739555423596067000,11.682067138671876,-30.097320556640625,-25.084518432617188,-16.968175888061523
1739555423606137000,11.69213720703125,-30.1431884765625,-24.724685668945312,-17.084938049316406
1739555423616207000,11.70220703125,-30.303466796875,-24.575942993164062,-17.168472290039062
1739555423626277000,11.712277099609375,-30.758544921875,-24.141998291015625,-17.35773277282715
1739555423636347100,11.72234716796875,-30.583892822265625,-24.154945373535156,-17.446582794189453
1739555423646417200,11.732417236328125,-30.49517822265625,-23.690147399902344,-17.50082015991211
1739555423656487200,11.742487060546875,-30.4931640625,-23.675926208496094,-17.584623336791992
1739555423666557200,11.75255712890625,-31.2069091796875,-23.54113006591797,-17.447616577148438
1739555423676627200,11.762627197265624,-31.113037109375,-23.728050231933594,-17.312496185302734
1739555423686697000,11.772697021484374,-31.044158935546875,-23.68133544921875,-17.128530502319336
1739555423696767000,11.78276708984375,-31.06683349609375,-23.85466766357422,-16.91630744934082
1739555423706837200,11.792837158203126,-31.511688232421875,-23.943008422851562,-16.67975425720215
1739555423716907000,11.802906982421876,-31.50872802734375,-23.84722137451172,-16.746171951293945
1739555423726977000,11.81297705078125,-31.79052734375,-24.054649353027344,-16.390111923217773
1739555423737047300,11.82304736328125,-31.47308349609375,-24.309532165527344,-16.143863677978516
1739555423747117000,11.833116943359375,-31.457000732421875,-24.506614685058594,-16.133554458618164
1739555423757187000,11.84318701171875,-31.244842529296875,-24.790260314941406,-15.923992156982422
1739555423767257000,11.853257080078125,-31.5289306640625,-25.027008056640625,-15.877272605895996
1739555423777327000,11.8633271484375,-31.32208251953125,-25.105491638183594,-15.731597900390625
1739555423787396000,11.87339599609375,-31.186431884765625,-25.133148193359375,-15.72544002532959
1739555423797466000,11.883466064453126,-31.10162353515625,-25.267379760742188,-15.918548583984375
1739555423807536000,11.8935361328125,-31.34246826171875,-25.151123046875,-16.201194763183594
1739555423817606100,11.903606201171876,-31.21221923828125,-25.068740844726562,-16.48200225830078
1739555423827676200,11.91367626953125,-30.709320068359375,-24.83648681640625,-17.475017547607422
1739555423837746200,11.92374609375,-30.514678955078125,-24.79668426513672,-17.76249122619629
1739555423847816200,11.933816162109375,-30.255889892578125,-24.49646759033203,-18.204776763916016
1739555423857886000,11.943885986328125,-29.8714599609375,-24.742233276367188,-18.440471649169922
1739555423867956200,11.953956298828125,-29.71453857421875,-24.74286651611328,-18.74114227294922
1739555423878026000,11.96402587890625,-29.717041015625,-24.632064819335938,-19.043922424316406
1739555423888096000,11.974095947265624,-29.897857666015625,-24.654380798339844,-19.29397964477539
1739555423898166300,11.984166259765624,-30.069488525390625,-24.71497344970703,-19.458053588867188
1739555423908236000,11.994236083984376,-29.697021484375,-24.715560913085938,-19.373857498168945
1739555423918306000,12.00430615234375,-29.624755859375,-24.516616821289062,-19.327953338623047
1739555423928376300,12.014376220703125,-29.881500244140625,-24.411102294921875,-19.29909324645996
1739555423938446000,12.024446044921875,-29.969085693359375,-24.3663330078125,-19.300703048706055
1739555423948516000,12.03451611328125,-30.1175537109375,-24.12884521484375,-19.220306396484375
1739555423958586000,12.044586181640625,-30.11749267578125,-24.12237548828125,-19.049972534179688
1739555423968655000,12.054655029296875,-30.015289306640625,-24.1689453125,-18.878971099853516
1739555423978725000,12.06472509765625,-30.03143310546875,-24.273910522460938,-18.980388641357422
1739555423988795100,12.074795166015624,-30.210174560546875,-24.285919189453125,-18.81416130065918
1739555423998865200,12.084865234375,-30.52056884765625,-24.39708709716797,-18.91468620300293
1739555424008935200,12.09493505859375,-30.410064697265625,-24.5841064453125,-18.936681747436523
1739555424019005200,12.105005126953126,-30.091033935546875,-24.42603302001953,-18.928226470947266
1739555424029075200,12.1150751953125,-30.447998046875,-24.439483642578125,-18.978042602539062
1739555424039145200,12.125145263671875,-29.899688720703125,-24.37645721435547,-18.750289916992188
1739555424049215000,12.135215087890625,-30.183624267578125,-24.525680541992188,-19.03750991821289
1739555424059285200,12.14528515625,-30.250030517578125,-24.770294189453125,-18.923324584960938
1739555424069355000,12.15535498046875,-30.23211669921875,-24.44139862060547,-19.017112731933594
1739555424079425000,12.165425048828125,-30.010223388671875,-24.645530700683594,-19.112512588500977
1739555424089495300,12.175495361328124,-30.107574462890625,-24.42420196533203,-19.195148468017578
1739555424099565000,12.18556494140625,-29.87823486328125,-24.59198760986328,-19.374418258666992
1739555424109635000,12.195635009765626,-29.79443359375,-24.640350341796875,-19.499427795410156
1739555424119705000,12.205705078125,-29.632110595703125,-24.701141357421875,-19.510337829589844
1739555424129775000,12.215775146484376,-30.05413818359375,-24.581939697265625,-19.53815460205078
1739555424139845000,12.22584521484375,-30.017822265625,-24.92076873779297,-19.59902572631836
1739555424149915100,12.2359150390625,-29.7276611328125,-24.83135986328125,-19.58043670654297
1739555424159984000,12.245984130859375,-30.133544921875,-24.984901428222656,-19.74688720703125
1739555424170054100,12.25605419921875,-29.958282470703125,-25.05389404296875,-19.721582412719727
1739555424180124200,12.266124267578125,-29.728973388671875,-25.2578125,-19.60335350036621
1739555424190194200,12.276194091796874,-29.87677001953125,-25.175209045410156,-19.442413330078125
1739555424200264200,12.28626416015625,-30.064666748046875,-24.93010711669922,-19.448863983154297
1739555424210334000,12.296333984375,-30.270904541015625,-24.77159881591797,-19.617145538330078
1739555424220404200,12.306404296875,-30.05548095703125,-24.82384490966797,-19.48798370361328
1739555424230474200,12.31647412109375,-29.841094970703125,-24.85285186767578,-19.329301834106445
1739555424240544000,12.3265439453125,-30.1700439453125,-25.0325927734375,-19.638811111450195
1739555424250614300,12.3366142578125,-30.16778564453125,-25.00909423828125,-19.627958297729492
1739555424260684000,12.34668408203125,-30.202484130859375,-25.179885864257812,-19.469785690307617
1739555424270754000,12.356754150390625,-29.90826416015625,-25.152297973632812,-19.491901397705078
1739555424280824000,12.366823974609375,-29.99713134765625,-25.23486328125,-19.298377990722656
1739555424290894000,12.37689404296875,-30.075958251953125,-25.265670776367188,-19.362720489501953
1739555424300964000,12.386964111328124,-30.1356201171875,-25.05298614501953,-19.401752471923828
1739555424311034000,12.3970341796875,-29.99951171875,-25.020530700683594,-19.289684295654297
1739555424321104000,12.407103759765626,-29.869171142578125,-24.860443115234375,-19.494972229003906
1739555424331172900,12.4171728515625,-29.799102783203125,-24.910850524902344,-19.544830322265625
1739555424341243000,12.427242919921875,-29.7774658203125,-24.77832794189453,-19.46829605102539
1739555424351313000,12.43731298828125,-29.625732421875,-24.751380920410156,-19.541954040527344
1739555424361383000,12.4473828125,-29.647308349609375,-24.90148162841797,-19.86931800842285
1739555424371453000,12.457452880859375,-29.95672607421875,-24.79499053955078,-19.882583618164062
1739555424381523000,12.46752294921875,-30.0740966796875,-24.722694396972656,-19.920087814331055
1739555424391593000,12.477593017578124,-29.99462890625,-24.780380249023438,-19.866207122802734
1739555424401662700,12.487662841796874,-30.014801025390625,-24.694419860839844,-19.861242294311523
1739555424411733000,12.49773291015625,-30.036163330078125,-24.55828857421875,-19.892751693725586
1739555424421802800,12.507802734375,-29.87567138671875,-24.758834838867188,-19.743284225463867
1739555424431872800,12.517872802734376,-29.935302734375,-24.763885498046875,-19.876514434814453
1739555424441943000,12.527943115234375,-29.826629638671875,-24.857521057128906,-19.927825927734375
1739555424452012800,12.5380126953125,-29.522613525390625,-24.82697296142578,-19.869861602783203
1739555424462082800,12.548082763671875,-29.723846435546875,-24.74951934814453,-20.26483154296875
1739555424472152800,12.55815283203125,-29.67938232421875,-24.825164794921875,-20.580095291137695
1739555424482222800,12.568222900390625,-29.7662353515625,-24.848838806152344,-20.70914077758789
1739555424492292900,12.57829296875,-30.041046142578125,-24.606597900390625,-20.792972564697266
1739555424502361900,12.58836181640625,-30.172088623046875,-24.727157592773438,-20.31536102294922
1739555424512431900,12.598431884765626,-30.0390625,-24.88105010986328,-20.24113655090332
1739555424522502000,12.608501953125,-29.826995849609375,-24.858306884765625,-20.149450302124023
1739555424532572000,12.618572021484376,-30.1048583984375,-24.81177520751953,-19.6920108795166
1739555424542642000,12.628641845703125,-30.016143798828125,-24.94055938720703,-19.63006591796875
1739555424552712000,12.6387119140625,-30.022003173828125,-25.12073516845703,-19.21785545349121
1739555424562781700,12.64878173828125,-30.148681640625,-25.321266174316406,-18.961193084716797
1739555424572852000,12.65885205078125,-30.553741455078125,-25.286544799804688,-18.78704071044922
1739555424582922000,12.668921875,-30.553375244140625,-25.345870971679688,-18.679075241088867
1739555424592991700,12.67899169921875,-30.4677734375,-25.520111083984375,-18.646207809448242
1739555424603062000,12.68906201171875,-30.601348876953125,-25.882217407226562,-18.34846305847168
1739555424613131800,12.6991318359375,-30.59814453125,-26.074378967285156,-18.614355087280273
