time,seconds_elapsed,z,y,x
1739817455399987500,0.021987548828125,-0.5134586409479379,-0.351440717434138,-0.6521987839225679
1739817455410059500,0.0320595703125,-0.453026676338911,-0.2694355111815035,-0.5883323148202151
1739817455420131300,0.04213134765625,-0.4191144698649645,-0.2861560520969331,-0.4430374895051121
1739817455430202400,0.052202392578125,-0.3661526950061321,-0.3203444451637566,-0.35614078488387163
1739817455440274400,0.0622744140625,-0.2260217552602291,-0.24261055955477057,-0.37360973301380873
1739817455450346500,0.072346435546875,-0.15683832891881466,-0.07255209905691444,-0.42300906615071
1739817455460417500,0.08241748046875,-0.13899988988935946,0.04756773379556834,-0.4338688252739608
1739817455470489600,0.092489501953125,-0.1566746627897024,0.14052388458624482,-0.42013336458392436
1739817455480561400,0.1025615234375,-0.18178338508307934,0.22267697487697005,-0.4255081164248287
1739817455490633500,0.112633544921875,-0.18716274003386496,0.2936316486746073,-0.4814759412318468
1739817455500704500,0.12270458984375,-0.17632921133041382,0.3860224937327206,-0.5442044923454523
1739817455510776600,0.132776611328125,-0.18694646693468092,0.4572735201284289,-0.5775322499949485
1739817455520848600,0.1428486328125,-0.09245441181361674,0.4981279469557106,-0.5795021618284285
1739817455530919400,0.15291943359375,0.09582827216088771,0.5412072102256119,-0.5882744471531361
1739817455540991500,0.162991455078125,0.2814695017158985,0.5636882143639028,-0.5834617861744016
1739817455551063600,0.1730634765625,0.4825947161287069,0.5440116001218557,-0.5340161296777427
1739817455561134600,0.183134521484375,0.6566355242609977,0.5199651002325117,-0.5018979670137167
1739817455571206700,0.19320654296875,0.8601689688593148,0.5113391645759344,-0.4987118112582713
1739817455581278500,0.203278564453125,1.0423486597836018,0.4992959678217768,-0.4550609586454928
1739817455591349500,0.213349609375,1.1039859085291623,0.44581586817726493,-0.36653314569108186
1739817455601421600,0.223421630859375,1.088158224800229,0.3415504609301686,-0.30108780989944933
1739817455611493600,0.23349365234375,1.0183370850771665,0.2635673498004675,-0.282051904713735
1739817455621565700,0.243565673828125,0.8876672166377305,0.23497443865314124,-0.30074674137681723
1739817455631636700,0.25363671875,0.7107102287977933,0.2039956552825868,-0.3129962012927979
1739817455641708500,0.26370849609375,0.5094190101683139,0.145653210298717,-0.29890944294705984
1739817455651780600,0.273780517578125,0.3564695053815842,0.0996802714139223,-0.3172355924282223
1739817455661851600,0.2838515625,0.2658674434363842,0.12131824885681271,-0.36558607409931715
1739817455671923700,0.293923828125,0.15016834963560102,0.14524565241113305,-0.37106918168552216
1739817455681995500,0.30399560546875,0.019659224715828896,0.10724982988536358,-0.32739882065467535
1739817455692066300,0.31406640625,-0.05996083996593952,0.0498749147593975,-0.26849472320005296
1739817455702138600,0.324138671875,-0.17849603397548197,0.016029197650402782,-0.23922946574911474
1739817455712210700,0.334210693359375,-0.2534358318865299,-0.009929857861995696,-0.21379121924042702
1739817455722281500,0.344281494140625,-0.22631576977074144,-0.04737622981145978,-0.1910541945144534
1739817455732353500,0.354353515625,-0.20324936695992946,-0.09654694182425737,-0.15327398750074206
1739817455742425300,0.36442529296875,-0.20804303097724913,-0.12992372624725101,-0.14122479939721524
1739817455752496400,0.374496337890625,-0.22496026350855827,-0.16554302890002726,-0.12627707684058695
1739817455762568400,0.384568359375,-0.21729951962232588,-0.19234116558507083,-0.12547332270964978
1739817455772640500,0.394640625,-0.18737725956737994,-0.20370383272916076,-0.16999577052518725
1739817455782711600,0.404711669921875,-0.1494558174520731,-0.1883417206853628,-0.1988777277469635
1739817455792783600,0.41478369140625,-0.1318704764008522,-0.1570978566378355,-0.20067652079723775
1739817455802855400,0.42485546875,-0.17484101859927176,-0.13928820531144737,-0.17000479408185928
1739817455812927500,0.434927490234375,-0.1332335814476013,-0.1322520230643451,-0.1570722107399255
1739817455822998500,0.44499853515625,-0.09970131420195102,-0.11197890423387288,-0.16137220948878675
1739817455833070600,0.455070556640625,-0.09521277061104774,-0.06304477745592593,-0.12217059136983006
1739817455843142400,0.465142333984375,-0.09028992725610732,-0.07114858893454075,-0.07729209665823727
1739817455853213400,0.47521337890625,-0.0651683454811573,-0.07951134361028671,-0.037980551891401405
1739817455863285500,0.485285400390625,-0.007668927192687988,-0.044745589046925306,-0.0051551177408546206
1739817455873357600,0.495357666015625,0.05496317780911922,-0.02489566406458616,0.030012130295485256
1739817455883428600,0.5054287109375,0.07681435961127281,0.0008953414045274257,0.07855663670133799
1739817455893500700,0.515500732421875,0.10617314056456088,-0.001934182932972908,0.12422463782280682
1739817455903572500,0.525572509765625,0.1596376042485237,-0.018496172285825015,0.15777816705219447
1739817455913643500,0.5356435546875,0.20569325298070906,0.00039192192703485485,0.18105770115703343
1739817455923715600,0.545715576171875,0.20803893932402132,0.009837941794842481,0.17937278027739376
1739817455933787600,0.55578759765625,0.20613456700742244,0.012932254548370837,0.17812599508669227
1739817455943858700,0.565858642578125,0.18001754445433615,0.01921250386163592,0.18228775440864264
1739817455953930500,0.575930419921875,0.11701485257446766,0.042893093048036096,0.18507957708425818
1739817455964002600,0.58600244140625,0.08280570898056029,0.040828123342245816,0.204693026429601
1739817455974073600,0.596073486328125,0.07130640984475613,0.03732333009168506,0.2413557006554678
1739817455984145700,0.606145751953125,0.04085048130452633,0.04061009667739272,0.27993666612543167
1739817455994217700,0.6162177734375,-0.002080313405394554,0.05581541072428226,0.33072372729368504
1739817456004288500,0.62628857421875,0.024064181676506993,0.043398412221670145,0.34690570435300466
1739817456014360600,0.636360595703125,0.04725099599659443,0.056926294575631614,0.32545853677447883
1739817456024432600,0.6464326171875,0.0019815292060375213,0.08879208991378545,0.30431681841593233
1739817456034503400,0.65650341796875,-0.017234627917408943,0.09266177095398306,0.29192477169148623
1739817456044575500,0.666575439453125,-0.03654956924021244,0.08499766606688498,0.2959645851342007
1739817456054647600,0.6766474609375,-0.09296703751087187,0.07494388956427574,0.3118424281477928
1739817456064718600,0.686718505859375,-0.124332482111454,0.08515271049812435,0.3239145587354898
1739817456074790400,0.696790283203125,-0.12670622550547123,0.08212576389238238,0.3022061464048922
1739817456084862500,0.706862548828125,-0.13103051844537258,0.07963292416334151,0.24963790090829133
1739817456094933800,0.716933837890625,-0.11930150220692157,0.06620251083448529,0.22447284531779585
1739817456105005800,0.727005859375,-0.0889320829063654,0.030788521495461463,0.23236199113242326
1739817456115077600,0.73707763671875,-0.046232758864760394,0.00043079263269901275,0.20721564024239778
1739817456125148400,0.7471484375,0.0004752162963151931,-0.022241350163519382,0.18867533655390142
1739817456135220500,0.757220458984375,0.010053191980719566,-0.05400514643192291,0.1903008919291198
1739817456145292500,0.76729248046875,0.03761281455755233,-0.08286211534291506,0.16576960419751702
1739817456155363600,0.777363525390625,0.0407207174450159,-0.0955439022615552,0.10481873028092085
1739817456165435600,0.787435546875,0.032577742999792096,-0.0740983786508441,0.06358509487770497
1739817456175507500,0.797507568359375,-0.02156125894486904,-0.08834609971195459,0.06390636272132397
1739817456185578500,0.80757861328125,-0.0739303286075592,-0.11464417792037129,0.048525838238000864
1739817456195650600,0.817650634765625,-0.08042261323630809,-0.13760697422623633,0.00951382440701127
1739817456205722600,0.82772265625,-0.06551438243985176,-0.1345790047071874,-0.03486147002279758
1739817456215793700,0.837793701171875,-0.028871289697289464,-0.12847381969988345,-0.044748000199720264
1739817456225865700,0.84786572265625,-0.0071615621924400324,-0.11355287555232643,-0.02688515738137066
1739817456235936800,0.857936767578125,0.03192132491767406,-0.12829875539392233,0.02878748387135565
1739817456246008600,0.868008544921875,0.09852700972557067,-0.15487038984671234,0.06239478911459446
1739817456256080600,0.87808056640625,0.16630173831284045,-0.13969722450375557,0.08987542817108332
1739817456266151700,0.888151611328125,0.19288111768066882,-0.1054435111157596,0.13179397709853946
1739817456276223700,0.8982236328125,0.14090543124973773,-0.07753492897078394,0.17029482653699815
1739817456286295600,0.908295654296875,0.09792495217919349,-0.04693491578474641,0.22996793560273943
1739817456296366600,0.91836669921875,0.012376666492223739,-0.042917935228347776,0.2691854088779539
1739817456306438700,0.928438720703125,-0.04577157109379768,-0.0015595044016838073,0.2883436983343214
1739817456316510700,0.9385107421875,-0.10404898801743984,0.04246639206856489,0.27545623277574777
1739817456326581800,0.948581787109375,-0.1475777486205101,0.07391366973370313,0.2796731198184192
1739817456336653800,0.95865380859375,-0.14754969156980513,0.09517799155861138,0.28460568084977567
1739817456346725600,0.9687255859375,-0.11065700798034667,0.10884104459956288,0.3021202947523445
1739817456356796700,0.978796630859375,-0.05798223336935043,0.10095292169824242,0.3143166362415999
1739817456366868700,0.98886865234375,0.027978140249848363,0.0721251788817346,0.31838242437578734
1739817456376940800,0.99894091796875,0.11731646586954593,0.06255363293811679,0.27215068842433393
1739817456387011600,1.009011474609375,0.1539952144473791,0.061826779968291515,0.2172618179604411
1739817456397083600,1.019083740234375,0.14977613544762133,0.036975393436849115,0.1989467743951827
1739817456407155500,1.029155517578125,0.13553659769296644,-0.003138590286672115,0.17205737923011183
1739817456417226500,1.0392265625,0.1225678105264902,-0.025361966402083633,0.1380968766350299
1739817456427298600,1.049298583984375,0.06726268741190433,-0.02517974170297384,0.10743424654155968
1739817456437369600,1.05936962890625,0.009393266767263412,-0.02109860986918211,0.07893368985280394
1739817456447441700,1.069441650390625,-0.0193190329760313,-0.043505671988427634,0.0483674328058958
1739817456457513500,1.079513427734375,-0.05793488709628582,-0.04787380407005548,0.041247956189513206
1739817456467584500,1.08958447265625,-0.09005202684700489,-0.017164631421118973,0.035549452286958695
1739817456477656600,1.099656494140625,-0.12492168017625808,-0.004237783700227737,0.04787153904773295
1739817456487728600,1.109728759765625,-0.1409498549133539,0.005854278986155987,0.04700041876900941
1739817456497799700,1.119799560546875,-0.1035883847683668,-0.0023898177459836007,0.01015036874487996
1739817456507871700,1.129871826171875,-0.09435995317399501,-0.007785539309680461,-0.024341902639344333
1739817456517943600,1.139943603515625,-0.06593582272231578,-0.008370645721256733,-0.02307020220309496
1739817456528014600,1.1500146484375,-0.028612346500158307,-0.01582008494436741,-0.008576653154753148
1739817456538086700,1.160086669921875,-0.03167524120211601,-0.03728431325554848,-0.001104965567216277
1739817456548158700,1.17015869140625,-0.049289223825931545,-0.06377411464378237,0.019322613172605634
1739817456558229800,1.180229736328125,-0.04703998359441757,-0.06861921658739448,0.051944597172923386
1739817456568301600,1.190301513671875,-0.045216275298595426,-0.07739464371725917,0.0219721047680825
1739817456578372600,1.20037255859375,-0.04919745388925075,-0.09089914519563316,-0.0036882235260680316
1739817456588444700,1.210444580078125,-0.060980830663442606,-0.10268792879730462,-0.003479914537630975
1739817456598516700,1.220516845703125,-0.05756839187145233,-0.1017082701101899,-0.015993687945604323
1739817456608587800,1.230587890625,-0.06750584851801394,-0.05503580465391278,-0.016819252049550412
1739817456618659800,1.240659912109375,-0.10634791260957717,-0.015785890413820742,0.011657412306964397
1739817456628731600,1.250731689453125,-0.09601415012180804,-0.03126768331453204,0.04730535653233528
1739817456638802400,1.260802490234375,-0.07367606158554553,-0.04029299355223775,0.06787895614672451
1739817456648874500,1.27087451171875,-0.06906827552914618,-0.019762246698886154,0.07298281862437725
1739817456658945500,1.280945556640625,-0.05101531696617603,-0.012919395066797732,0.07247190996017307
1739817456669017600,1.291017578125,-0.025147300738096234,-0.006426964307576418,0.047457295691035684
1739817456679089700,1.301089599609375,-0.0036357261538505553,-0.0035819501399993892,-0.0025270707922056316
1739817456689160700,1.31116064453125,-0.007792845833301544,-0.003996522290259599,-0.0392577687529847
1739817456699232500,1.321232421875,-0.024252982246875762,0.004028670994192362,-0.04302826373502612
1739817456709304600,1.3313046875,-0.047024201503396035,0.006072013390064239,-0.01640288980100304
1739817456719375600,1.341375732421875,-0.0468383235424757,-0.01164616026058793,0.004139803218469023
1739817456729447700,1.35144775390625,-0.05596680189371109,0.014511486563831567,-0.012422003471292554
1739817456739518700,1.361518798828125,-0.01556114174723625,0.040998365342617034,-0.038762167255766686
1739817456749590500,1.371590576171875,0.046593993392586706,0.014977350509911775,-0.06795527278594672
1739817456759662600,1.38166259765625,0.07778291238248347,0.00013736264407634735,-0.09640351476557553
1739817456769733600,1.391733642578125,0.08541326113045215,-0.0026467151165008545,-0.13258169341012835
1739817456779805700,1.4018056640625,0.09319149391651153,-0.008642448399960994,-0.16261636433098464
1739817456789877800,1.411877685546875,0.08268295938372612,-0.018467822974175215,-0.13220522478055208
1739817456799948800,1.42194873046875,0.028501871863007545,-0.017634440889954566,-0.06565419276934116
1739817456810020600,1.4320205078125,0.031791561058163643,0.021729747379571198,-0.0022413857186213133
1739817456820091600,1.442091552734375,0.005537760382890701,-0.032934301352500917,0.006270641234703361
1739817456830163700,1.452163818359375,-0.01571194839477539,-0.05531535224765539,0.021523703413456677
1739817456840235800,1.46223583984375,0.0030178865164518353,-0.050255146248638624,-0.011777823816239832
1739817456850306800,1.472306884765625,0.020872692158818245,-0.047710868593305346,-0.0551418953768909
1739817456860378600,1.482378662109375,0.024821722045540808,-0.06889087313562631,-0.09685166039187461
1739817456870449700,1.49244970703125,0.01516600494980812,-0.09650675594434141,-0.09923073754813522
1739817456880521500,1.502521484375,-0.020940496698021886,-0.11398922114297746,-0.08336995526719838
1739817456890593500,1.512593505859375,-0.05013093534708023,-0.12199760942310094,-0.08608031020443886
1739817456900664600,1.52266455078125,-0.08268412842750548,-0.08714227688014507,-0.05163480057138949
1739817456910736600,1.532736572265625,-0.0975672247827053,-0.0531679649554193,0.01643997040838003
1739817456920808400,1.542808349609375,-0.10720306813418864,-0.048208150590956206,0.07213712504785508
1739817456930879500,1.55287939453125,-0.10210136108100414,-0.032493571847677226,0.1039548799932003
1739817456940951600,1.56295166015625,-0.07926233728528022,-0.01731514580771327,0.1215969196677208
1739817456951022600,1.573022705078125,-0.069874331215024,-0.014084493323415517,0.12513663810119033
1739817456961094700,1.5830947265625,-0.06463584603965282,-0.021564619945734737,0.11645944718141107
1739817456971166700,1.593166748046875,-0.08309563183784484,-0.010757248596847057,0.08860222989749163
1739817456981237800,1.60323779296875,-0.10959376266300677,0.018317893109470604,0.07500011326353996
1739817456991309600,1.6133095703125,-0.15799159060716628,0.04293678605929017,0.08228332907427102
1739817457001380600,1.623380615234375,-0.2087625774234533,0.050740591678023333,0.07901048141606151
1739817457011452700,1.63345263671875,-0.24813480286896228,0.06861687849983572,0.06090389296971261
1739817457021524700,1.643524658203125,-0.2445475920319557,0.060267567827552555,0.027291765420883893
1739817457031595800,1.653595703125,-0.20694062269330024,0.02854322678670287,-0.004616371221654117
1739817457041667600,1.66366748046875,-0.12252280234098434,0.02021802764236927,-0.03417557011786848
1739817457051738600,1.673738525390625,-0.02820493474304676,0.024631167909502982,-0.0698953374704346
1739817457061810700,1.683810791015625,0.03697042500078678,0.025088556288182733,-0.11946264758538454
1739817457071882800,1.6938828125,0.08310790679752826,-0.003135813807696104,-0.1278666110543534
1739817457081953500,1.70395361328125,0.12672785281538962,-0.02789367683678865,-0.13917378515154122
1739817457092025300,1.714025390625,0.13474457053244113,-0.026035774010419843,-0.19643731232490388
1739817457102096400,1.724096435546875,0.1477303088337183,-0.04221840865686535,-0.25889818894565103
1739817457112168200,1.734168212890625,0.1579728859066963,-0.06918795638605951,-0.29280791120156646
1739817457122240300,1.744240234375,0.15618541796803473,-0.060147010187804696,-0.30348186542913314
1739817457132311300,1.754311279296875,0.1487801101475954,-0.033116672182083126,-0.27795327375587076
1739817457142383400,1.76438330078125,0.1548760889351368,-0.025007746136933563,-0.24344883700981734
1739817457152455400,1.774455322265625,0.14842472083866595,-0.021142010619491336,-0.19608320165760815
1739817457162526500,1.7845263671875,0.13094108659625053,-0.029678514426946637,-0.1299479473730549
1739817457172598300,1.794598388671875,0.09004793519377707,-0.06920826852172612,-0.06659735537096857
1739817457182669000,1.8046689453125,0.051391164541244504,-0.07889028910249471,-0.063423255379498
1739817457192741000,1.8147412109375,0.02446224108338356,-0.06263707343786955,-0.07511997678354382
1739817457202812200,1.824812255859375,0.039025019443035124,-0.05689736074209213,-0.06884268661234527
1739817457212884200,1.83488427734375,0.06540741493403911,-0.07106310260817408,-0.059847150458395476
1739817457222956300,1.844956298828125,0.03625380116403103,-0.0955338192589581,-0.056668776150606566
1739817457233027300,1.85502734375,0.01813011545240879,-0.11082491189315914,-0.01983918439261615
1739817457243099100,1.86509912109375,0.01879530136287212,-0.10534867243915795,-0.0073349459979683155
1739817457253170200,1.875170166015625,-0.0015180033475160597,-0.03748348908945918,0.021493600536137816
1739817457263242200,1.8852421875,-0.010793781214952468,0.003921849618852139,0.10313852210901676
1739817457273314300,1.895314208984375,-0.027875264397263524,-0.006601590222120285,0.17441603465285152
1739817457283385300,1.90538525390625,-0.03447510105371475,0.011884791322052479,0.19919786307942122
1739817457293457200,1.91545703125,-0.07221300329566001,0.03743701959922909,0.2039659542640671
1739817457303528200,1.925528076171875,-0.09838321734070778,0.04525631504803896,0.18527455166708676
1739817457313600300,1.935600341796875,-0.1424187584221363,0.05410086189135909,0.1316578565634787
1739817457323672300,1.94567236328125,-0.17037994753718375,0.07351385676115751,0.10434157775584607
1739817457333743400,1.955743408203125,-0.1709182921975851,0.08113032311424613,0.12255243029426782
1739817457343815400,1.9658154296875,-0.13835925389826298,0.05165332260876894,0.1568021250942722
1739817457353886500,1.975886474609375,-0.07879062812030314,0.0502792577765882,0.1667476554494351
1739817457363958300,1.985958251953125,-0.030634207716584205,0.02611366155222058,0.15299454950485378
1739817457374029000,1.996029052734375,0.03223404412865639,0.004814560674875974,0.12603523090872912
1739817457384101000,2.00610107421875,0.03174655287265778,-0.013755845890939235,0.058648515258356924
1739817457394173200,2.016173095703125,-0.01262450377345085,-0.01233852643892169,-0.026180881569534537
1739817457404244200,2.026244140625,-0.02559504450559616,-0.019497896674275397,-0.08374481646157801
1739817457414316300,2.03631640625,-0.036164953836798665,-0.03974339684545994,-0.10483327026292681
1739817457424387300,2.04638720703125,-0.03937222544550895,-0.05472586192190647,-0.08702935455758123
1739817457434459100,2.056459228515625,-0.012719780841469764,-0.06627221506983041,-0.06520827563274652
1739817457444531200,2.06653125,0.07219488311707974,-0.07286576811596751,-0.0683568758567795
1739817457454602200,2.076602294921875,0.1267331135123968,-0.09751768655255437,-0.08440057695657015
1739817457464674300,2.08667431640625,0.18167700209915638,-0.13202055239602922,-0.12718093034513295
1739817457474745300,2.096745361328125,0.2204185284256935,-0.15303732920065521,-0.1751538839407265
1739817457484817200,2.106817138671875,0.21673428695499897,-0.14572875975295901,-0.22282274002321062
1739817457494888200,2.11688818359375,0.19686697244644163,-0.13081409921571613,-0.22803590809423474
1739817457504960300,2.126960205078125,0.17043255450725556,-0.12311740723326801,-0.18736151400897652
1739817457515032300,2.1370322265625,0.16502163537442682,-0.1098822242155671,-0.1348630823455751
1739817457525103400,2.147103271484375,0.13793839813768863,-0.10816080725044011,-0.07558105495665222
1739817457535175400,2.157175537109375,0.12489537669122218,-0.07241115621626376,-0.0037603023815900084
1739817457545246500,2.16724658203125,0.11785481052994727,-0.025006284832209347,0.05118055399786681
1739817457555318300,2.177318359375,0.10122983894348143,0.008532412154227495,0.08268697797171772
1739817457565389000,2.18738916015625,0.060683309021592136,0.028137860856205222,0.11553732736781239
1739817457575461000,2.197461181640625,0.014788988330960273,0.028043752831965682,0.12368165351990609
1739817457585533200,2.207533203125,-0.03740297119915485,-0.005703326208144426,0.1042735540209338
1739817457595604200,2.217604248046875,-0.10641279453933239,-0.03362155296429992,0.06328589273542165
1739817457605676300,2.22767626953125,-0.16718319732248782,-0.06618336774259806,0.0018628347298130393
1739817457615747300,2.237747314453125,-0.19543664738237856,-0.07493322203978896,-0.08120320568736641
1739817457625819100,2.247819091796875,-0.2015875712275505,-0.05372808305621147,-0.18406802542153744
1739817457635890200,2.25789013671875,-0.2088286283969879,-0.06443053272590041,-0.23601897927001117
1739817457645962200,2.267962158203125,-0.19073533782362936,-0.0841539087191224,-0.262242238676548
1739817457656034300,2.278034423828125,-0.11492284873127936,-0.08088204744160175,-0.29592290141694244
1739817457666105300,2.288105224609375,-0.010477554872632026,-0.04802797171846032,-0.3117384928492829
1739817457676177200,2.29817724609375,0.06208206990361213,-0.03917027313262224,-0.3268212764950469
1739817457686248200,2.308248291015625,0.12395546549260615,-0.03971110201105475,-0.3499176360527053
1739817457696320300,2.3183203125,0.14987608869075775,-0.033644349317997695,-0.38258112110719084
1739817457706391300,2.328391357421875,0.18212649943232534,-0.07252484572380781,-0.4391125346137211
1739817457716463400,2.33846337890625,0.24835867475271223,-0.13967501267194746,-0.49377585269343105
1739817457726535400,2.348535400390625,0.2591746677994728,-0.191421420391649,-0.5304601176965982
1739817457736606500,2.3586064453125,0.2293161206305027,-0.24264161228016018,-0.5672327185703441
1739817457746678300,2.36867822265625,0.18136545193195341,-0.24751447901353238,-0.607287300256826
1739817457756749000,2.3787490234375,0.05982347732186317,-0.21060732850730418,-0.641849166278541
1739817457766821000,2.388821044921875,-0.09973989264667034,-0.1319144616730511,-0.6809537537638097
1739817457776892200,2.39889208984375,-0.2377034252256155,-0.025336978091299533,-0.713582496298477
1739817457786964200,2.408964111328125,-0.3377484382987022,0.09851400411352515,-0.7337015205457806
1739817457797035300,2.41903515625,-0.40011809297204015,0.12187120656445621,-0.6767769795358181
1739817457807107300,2.429107421875,-0.4037877213954925,0.059043286729604,-0.5501183560317382
1739817457817179100,2.43917919921875,-0.34961949335634707,-0.026476941906660792,-0.4037746427182108
1739817457827250200,2.449250244140625,-0.22463936099112033,-0.09775953248441219,-0.2990178717575967
1739817457837322200,2.459322265625,-0.02725859380364418,-0.1808819061987102,-0.2150777884522453
1739817457847393300,2.469393310546875,0.20721184085011482,-0.28368293998166916,-0.13828951313029975
1739817457857465300,2.47946533203125,0.36120413268804547,-0.4219169600650668,-0.06322535818722098
1739817457867536400,2.489536376953125,0.48576165572702884,-0.5598346076756715,-0.022203100512363017
1739817457877608200,2.499608154296875,0.5766530560076236,-0.6586245061211288,-0.03409234881382436
1739817457887679200,2.50967919921875,0.5838157872438431,-0.707380938244611,-0.04421239548567682
1739817457897751300,2.519751220703125,0.49535482898056504,-0.7707961564481258,-0.0020465572662651537
1739817457907823400,2.5298232421875,0.3781564365327358,-0.7817736236669123,0.06568429564666002
1739817457917894400,2.539894287109375,0.3227215495586395,-0.7571135219238698,0.11700995720364153
1739817457927966500,2.549966552734375,0.25974983733892437,-0.6831738409660756,0.17359138386435805
1739817457938037200,2.560037353515625,0.19985154121518134,-0.6139908530160785,0.27684754100367426
1739817457948109000,2.570109130859375,0.16654840655028819,-0.5953074875950813,0.40711682928558435
1739817457958180000,2.58018017578125,0.119822895732522,-0.5694717662014067,0.5064283404523506
1739817457968252200,2.590252197265625,0.07686345945000649,-0.5573674869097769,0.5563301432186737
1739817457978323200,2.6003232421875,0.03664367726445198,-0.5150025093890727,0.5583117820225656
1739817457988395300,2.610395263671875,-0.04700549680292606,-0.4670404425136745,0.5448279945386574
1739817457998467300,2.62046728515625,-0.1399655200511217,-0.4224376229383051,0.5309856759406626
1739817458008538400,2.630538330078125,-0.21846914792358874,-0.3750556940384209,0.5093014482032507
1739817458018610200,2.640610107421875,-0.2991770078420639,-0.31230522335395217,0.4674621019918471
1739817458028681200,2.65068115234375,-0.4011094420969486,-0.23595789673253892,0.4038179338706657
1739817458038753300,2.660753173828125,-0.502962381374836,-0.1900529085174203,0.3404906862115487
1739817458048824300,2.67082421875,-0.5538888510137796,-0.16694105912968515,0.3089275270817801
1739817458058896400,2.680896484375,-0.5513239689618349,-0.1339976976878941,0.28525917632244524
1739817458068967400,2.690967529296875,-0.5189315194010734,-0.09636457099467516,0.2927235208537429
1739817458079039200,2.701039306640625,-0.47561318667829033,-0.07208630817607045,0.31267997495047745
1739817458089110300,2.7111103515625,-0.42144437411725516,-0.0781070297703147,0.3327648777324706
1739817458099182300,2.721182373046875,-0.31863749511539935,-0.08455766721442341,0.32637050052024424
1739817458109253400,2.73125341796875,-0.2030167272478342,-0.09485036703944205,0.26368114890586586
1739817458119325400,2.741325439453125,-0.08119944282770157,-0.1103662083402276,0.19778006870336828
1739817458129397500,2.7513974609375,0.03210895644426345,-0.16087854422032832,0.16471114465314893
1739817458139468300,2.76146826171875,0.12399170584976672,-0.22946093592867253,0.1527752807309851
1739817458149540000,2.7715400390625,0.20483985102176666,-0.2971345422290265,0.12196703162174671
1739817458159611100,2.781611083984375,0.28579496369957924,-0.37683161766976114,0.08519921652097255
1739817458169683200,2.79168310546875,0.35869185760617256,-0.46775458213239907,0.05067001065984368
1739817458179754200,2.801754150390625,0.4044856405317783,-0.5374824906140565,0.02372311315387487
1739817458189826300,2.811826416015625,0.45290334222018713,-0.605568330977112,0.01031279276497662
1739817458199897300,2.8218974609375,0.49587154633104796,-0.6546775220610201,-0.005544043993204832
1739817458209969400,2.831969482421875,0.4944973353683948,-0.7056476847112179,-0.03989084249213338
1739817458220040400,2.84204052734375,0.479994762763381,-0.75971493659392,-0.06520926201343535
1739817458230112300,2.8521123046875,0.4532423649162054,-0.7904298083312808,-0.06958930372856557
1739817458240183300,2.862183349609375,0.3963467577397823,-0.7978574741140008,-0.0887789381712675
1739817458250255400,2.87225537109375,0.33174306040406226,-0.8048175223849713,-0.07619250138588249
1739817458260326400,2.882326416015625,0.28682722935676574,-0.7752863074742257,-0.06427198116332292
1739817458270398500,2.8923984375,0.2642968331187963,-0.7564535967104137,-0.03713182610757649
1739817458280470300,2.90247021484375,0.2520382400482893,-0.7379238144159317,0.0010370148975402116
1739817458290541300,2.912541259765625,0.25164193420708175,-0.7584165673464536,0.04996690389178693
1739817458300613400,2.92261328125,0.2553922266513109,-0.7593716761142015,0.07869768913984299
1739817458310684200,2.93268408203125,0.2642541630208492,-0.7460780409075319,0.08092274477817117
1739817458320756200,2.942756103515625,0.28366262784600255,-0.7321002228289842,0.05213431105874478
1739817458330827300,2.9528271484375,0.28938100549280643,-0.7039015716962516,0.000812631557136774
1739817458340899300,2.9628994140625,0.323470322099328,-0.7238323068298399,-0.0729440209839493
1739817458350970400,2.972970458984375,0.32848785800039765,-0.7449382232226431,-0.14981668665371833
1739817458361042200,2.983042236328125,0.31796295685470105,-0.7945902890115976,-0.22065175265967846
1739817458371113200,2.99311328125,0.28258593852519986,-0.8446440674692391,-0.31264687639847394
1739817458381185300,3.003185302734375,0.2510135731756687,-0.8759392233125864,-0.3896845964368433
1739817458391256300,3.01325634765625,0.25084230826199055,-0.8650301451548933,-0.4541560456950217
1739817458401328400,3.023328369140625,0.2675666485697031,-0.8996648206844925,-0.4719140398994088
1739817458411399400,3.0333994140625,0.2910691047102213,-0.9396237599767744,-0.43091925475336607
1739817458421471200,3.04347119140625,0.32926293402612206,-0.9582879823058843,-0.4074184791132808
1739817458431542300,3.053542236328125,0.363058820644021,-0.9713326111875474,-0.37072022211737926
1739817458441614300,3.0636142578125,0.3777338272064924,-0.9690960843071341,-0.3461168920628726
1739817458451686400,3.073686279296875,0.3867155905634165,-0.9467049504093825,-0.3112141401816159
1739817458461757200,3.083757080078125,0.4180342734128237,-0.9481957734890282,-0.2091433203693479
1739817458471829500,3.09382958984375,0.46200551708638665,-1.0158728869207203,-0.03978387498632073
1739817458481900300,3.103900390625,0.3812105634063482,-1.0783699673660099,0.11134228683076798
1739817458491972000,3.11397216796875,0.22509704163074493,-1.1111292044125496,0.20879326482266186
1739817458502043100,3.124043212890625,0.02181961762011051,-1.0967574185803532,0.20261289568729698
1739817458512115200,3.134115234375,-0.25105916588306426,-0.9739553609065711,0.11624328368008136
1739817458522186200,3.144186279296875,-0.6174789873927832,-0.7900421241879463,-0.03951141472049057
1739817458532258300,3.15425830078125,-0.9810375742524862,-0.6066209087699651,-0.2611896608836949
1739817458542329300,3.164329345703125,-1.3384779704928398,-0.3843487153016031,-0.4696824814550578
1739817458552401400,3.1744013671875,-1.5978426079064607,-0.1863069999873638,-0.6214177150811999
1739817458562472400,3.184472412109375,-1.754140838599205,-0.02608048993498087,-0.64524311956577
1739817458572544300,3.194544189453125,-1.8047481592863797,0.10645970242097973,-0.6060117638956755
1739817458582615300,3.204615234375,-1.7062872005343437,0.1956577427871525,-0.5678609700039029
1739817458592687400,3.214687255859375,-1.3783634061574934,0.2614537186473608,-0.533406619477272
1739817458602758400,3.22475830078125,-0.9076929365783929,0.29416765524744987,-0.5354449203718453
1739817458612830500,3.23483056640625,-0.4369973325580358,0.30617563455775376,-0.5611288852699101
1739817458622901200,3.2449013671875,0.014520108261704445,0.2527618781477213,-0.5916851323794573
1739817458632973300,3.254973388671875,0.377507032713294,0.16376213683262467,-0.6383434962451457
1739817458643044400,3.26504443359375,0.6618389381229877,0.0776601627856493,-0.6309115926787257
1739817458653116200,3.2751162109375,0.9007569998353719,-0.0031413667656481265,-0.580206583770737
1739817458663187200,3.285187255859375,1.085819552719593,-0.09551058451384305,-0.5546849698275327
1739817458673259300,3.29525927734375,1.2313842079520225,-0.1697903110809624,-0.557901959112659
1739817458683330300,3.305330322265625,1.3106360238432884,-0.25312340493649244,-0.53262686727643
1739817458693402400,3.31540234375,1.3453811740100383,-0.30193463598713277,-0.5173239380739629
1739817458703473400,3.325473388671875,1.3226742521613835,-0.3494805232770741,-0.5429140141434967
1739817458713545200,3.335545166015625,1.2509271128118038,-0.3828377262167632,-0.5742953139003366
1739817458723616300,3.3456162109375,1.124898932698369,-0.40904476514086124,-0.5888780390694737
1739817458733688300,3.355688232421875,0.9338660732328892,-0.41648587492704386,-0.5892938533287495
1739817458743759400,3.36575927734375,0.6714519851207733,-0.36465032761916516,-0.5501809364065527
1739817458753831400,3.37583154296875,0.3986252240657806,-0.26428558107241984,-0.47727600532397624
1739817458763902200,3.385902099609375,0.1082119529157877,-0.14981690584942697,-0.3563268820405006
1739817458773974300,3.395974365234375,-0.20886662231981754,-0.03865545547828078,-0.22215857702605424
1739817458784045300,3.40604541015625,-0.49650516805946826,0.08622209329530596,-0.10677125258818268
1739817458794117000,3.4161171875,-0.7718015340983867,0.21384499525427816,0.008458470135182142
1739817458804188200,3.426188232421875,-1.030941715106368,0.3574972409941256,0.1665923187572509
1739817458814260200,3.43626025390625,-1.334012807777524,0.47741687509939074,0.30717034468352794
1739817458824331300,3.446331298828125,-1.5874357801824808,0.589212239459902,0.4262186027817428
1739817458834403300,3.4564033203125,-1.7996756783276795,0.7249442135944962,0.5160650971192866
1739817458844474400,3.466474365234375,-1.9639719220370053,0.8344085046589375,0.5662766234219074
1739817458854546400,3.47654638671875,-2.02222654260695,0.914295841974765,0.575055849944055
1739817458864617500,3.486617431640625,-1.9739988105326889,0.9716615508809685,0.5489483989369124
1739817458874689300,3.496689208984375,-1.8403256686240435,1.0064299357928335,0.49373431510664517
1739817458884760300,3.50676025390625,-1.619919999679923,1.011452586260438,0.4487591550875455
1739817458894832400,3.516832275390625,-1.31471715567708,0.9959855525374411,0.43214675072170794
1739817458904903400,3.5269033203125,-0.9518483046472072,0.9523609303444623,0.449290631615743
1739817458914975500,3.5369755859375,-0.5886813474535941,0.9085277799673378,0.5168466759510338
1739817458925046300,3.54704638671875,-0.21242109993100164,0.8788673857189715,0.5658690655343234
1739817458935118000,3.5571181640625,0.10746844107210636,0.8463523326918482,0.5897986610457301
1739817458945189000,3.567189208984375,0.4087438824981451,0.7896686147004366,0.5971621024858206
1739817458955261200,3.57726123046875,0.6027513738602399,0.7434330793567001,0.579653772193566
1739817458965332200,3.587332275390625,0.7364934893518685,0.6974214158967137,0.5310396711502224
1739817458975404300,3.597404296875,0.8012719587326049,0.6646870210304856,0.46753180622719226
1739817458985475300,3.607475341796875,0.7921960873514413,0.6921081119194626,0.40793431968092914
1739817458995547400,3.61754736328125,0.7500777780681848,0.7435957225725054,0.370043272703886
1739817459005618400,3.627618408203125,0.6406342375308275,0.764674750958383,0.37142530164681375
1739817459015690200,3.637690185546875,0.49085517947375773,0.803601278463006,0.42319414039403197
1739817459025761300,3.64776123046875,0.3379752327919006,0.8703262057363986,0.4806970658138394
1739817459035833300,3.657833251953125,0.184443544203043,0.9485060084819793,0.5489993254065513
1739817459045904400,3.667904296875,0.035412674164772034,1.0060359680391848,0.6370468805633485
1739817459055976400,3.6779765625,-0.10566343747675418,1.0462124956049024,0.6827779735162853
1739817459066047200,3.688047119140625,-0.1846609863460064,1.1037377789869904,0.6542945871580391
1739817459076119300,3.698119384765625,-0.24649463444650171,1.1885320314362644,0.6006393501423299
1739817459086190300,3.7081904296875,-0.2781447412073612,1.2301375688917935,0.537398100266233
1739817459096259000,3.718259033203125,-0.3082096246033907,1.1853364502653478,0.5098660232834518
1739817459106330000,3.728330078125,-0.3102969522714615,1.1163828871570527,0.5178825218047947
1739817459116402200,3.738402099609375,-0.2151642611593008,1.0391163998641073,0.5440251171905547
1739817459126473000,3.748472900390625,-0.042891047221422195,0.9650421327412128,0.567049361360073
1739817459136544000,3.7585439453125,0.20188158573806284,0.8293919916711747,0.5797648313526064
1739817459146616000,3.768615966796875,0.4100771769285202,0.665953533834964,0.5471764938935637
1739817459156687000,3.77868701171875,0.6292179405033588,0.4966879772804677,0.45731969735771416
1739817459166759000,3.788759033203125,0.8167331472367048,0.32730010952055455,0.36415348401293157
1739817459176830000,3.798829833984375,0.952380219566822,0.1601642584711313,0.25343049812428653
1739817459186902000,3.808902099609375,1.0000088167041539,0.027572628188878297,0.16925518129095435
1739817459196973000,3.81897314453125,0.9671814828574656,-0.11376812573820352,0.1370715521752834
1739817459207045000,3.829045166015625,0.8953536794871091,-0.2439467035293579,0.08275324814096092
1739817459217116200,3.8391162109375,0.7560480846494436,-0.2942934735842049,0.020365034897625447
1739817459227188200,3.849188232421875,0.5593851103425026,-0.30517171821221706,0.0004454787451773882
1739817459237259300,3.85925927734375,0.34752865855693815,-0.30386867278963325,-0.04412468066960573
1739817459247331000,3.8693310546875,0.1804863310098648,-0.28477497300207616,-0.09514810787700116
1739817459257401900,3.87940185546875,0.033577859953045845,-0.2738176717884838,-0.13863887455724178
1739817459267474000,3.889473876953125,-0.07034720942378044,-0.26149419678822156,-0.15725487383045256
1739817459277545000,3.899544921875,-0.13374620714485644,-0.25197598846703767,-0.13924122436456382
1739817459287617000,3.909616943359375,-0.12649696666896343,-0.22760873219072816,-0.10011340213418006
1739817459297688000,3.91968798828125,-0.0968266355484724,-0.20766089979186653,-0.04753310087360441
1739817459307760000,3.929760009765625,-0.05325345128178596,-0.2249571947686374,0.023045579218491912
1739817459317831000,3.939830810546875,0.0009527706801891326,-0.24122180861011147,0.06596672931723296
1739817459327903000,3.949903076171875,0.027669512692093848,-0.2373066809929907,0.07720328586362302
1739817459337974000,3.95997412109375,0.02782674908041954,-0.2252028400927782,0.07427249310873449
1739817459348045000,3.970045166015625,0.017583587485551833,-0.21771233820691704,0.04909881582036614
1739817459358117000,3.9801171875,0.0014864391654729843,-0.2185384137675166,0.03231025117002427
1739817459368188200,3.990188232421875,-0.03604980302453041,-0.20212664654031395,0.053054859969764945
1739817459378260200,4.00026025390625,-0.05537585026323795,-0.17271379731222986,0.09641264792010187
1739817459388331000,4.0103310546875,-0.06835282073616981,-0.15442352286204694,0.1481218654345721
1739817459398402800,4.02040283203125,-0.09213701642751693,-0.11665230287238955,0.16613777992278336
1739817459408473900,4.030473876953125,-0.10282324561476706,-0.10202405806109309,0.18484028843566774
1739817459418546000,4.0405458984375,-0.09105389736592769,-0.09065116178393363,0.19994506471753118
1739817459428617000,4.050616943359375,-0.07302490420043468,-0.11218129493817687,0.21158742558583615
1739817459438689000,4.06068896484375,-0.024163550397753714,-0.159531659656018,0.2311444320362061
1739817459448760000,4.070760009765625,0.03310439722239971,-0.2183580887645483,0.23027773220427333
1739817459458832100,4.08083203125,0.049235447812080384,-0.2674680105008185,0.18992972052916884
1739817459468903200,4.090903076171875,0.07480418883264064,-0.33168928439021106,0.13354754276759923
1739817459478975000,4.10097509765625,0.09691431383192539,-0.38566023629158735,0.04183971153758466
1739817459489046000,4.1110458984375,0.06774316440522671,-0.4309720809191465,-0.04827653965204954
1739817459499117000,4.121116943359375,0.06935995195209979,-0.4682524486519396,-0.13902750854864715
1739817459509189000,4.131189208984375,0.06899930194616317,-0.5142173503607511,-0.17737828199192882
1739817459519260000,4.141260009765625,0.07218377720117569,-0.5710141733378171,-0.16555011622793972
1739817459529332200,4.151332275390625,0.06313070217370986,-0.5713299612887204,-0.14498663614876567
1739817459539403000,4.161403076171875,0.10953647951781749,-0.5666219297282398,-0.08393500527143478
1739817459549475000,4.17147509765625,0.16639000111818314,-0.5534926913030446,-0.011174378030374646
1739817459559546000,4.181546142578125,0.22210779668688774,-0.556296935068816,0.03639496320039034
1739817459569618000,4.191617919921875,0.27745091372430325,-0.5804018871471286,0.04322890087366104
1739817459579689000,4.20168896484375,0.3295481807082891,-0.6155616094641387,0.06868095671199262
1739817459589761000,4.211760986328125,0.39266426983475683,-0.6727006700076162,0.11950783843398094
1739817459599832000,4.22183203125,0.43270109666883944,-0.7118333876088261,0.17786467726938426
1739817459609904000,4.231904052734375,0.4366191468954086,-0.7698976001732051,0.24147958276346324
1739817459619975200,4.24197509765625,0.41091947297155856,-0.8387656769551336,0.26966683571934696
1739817459630046200,4.252046142578125,0.3607861995369196,-0.8826138787709176,0.27512049801535904
1739817459640118000,4.262117919921875,0.3411521092623472,-0.9668338384635746,0.31007592993192373
1739817459650189000,4.27218896484375,0.29536767868697644,-1.047117627751082,0.3935867915071547
1739817459660261000,4.28226123046875,0.22086276506185532,-1.1270395979888737,0.46749541973955927
1739817459670332000,4.292331787109375,0.12307283743917942,-1.1622079420037568,0.4799929361324757
1739817459680404000,4.302404052734375,-0.0075169515013694755,-1.1279128736920654,0.4086831652868539
1739817459690475000,4.31247509765625,-0.14993746348917483,-1.0531282663427293,0.34267997641675174
1739817459700547000,4.322547119140625,-0.30425767210721966,-0.9735359664507209,0.34106472323983905
1739817459710618000,4.3326181640625,-0.4386842627316713,-0.8832961619466543,0.401619400913082
1739817459720690000,4.34268994140625,-0.6110515846937894,-0.7357436938978731,0.5055541149010881
1739817459730761000,4.352760986328125,-0.7169803951084613,-0.5496757633633911,0.6190249016605317
1739817459740832000,4.36283203125,-0.7913193045169115,-0.3904540464393794,0.7108753562316298
1739817459750904000,4.372904052734375,-0.8797510366857051,-0.24810616129636764,0.7591328989222645
1739817459760975000,4.38297509765625,-0.9390952060580253,-0.12311331558004021,0.7414987502932548
1739817459771047200,4.393047119140625,-0.9738163908272981,-0.038061727368831635,0.6827193021316081
1739817459781118200,4.4031181640625,-0.9678203652828932,0.07978197724521159,0.5976708191929385
1739817459791190300,4.413190185546875,-0.9292308146476745,0.23740137353911994,0.5470252123219892
1739817459801261000,4.423260986328125,-0.8606845171660185,0.32258769404590126,0.5137134559592231
1739817459811332900,4.433332763671875,-0.7508990313231945,0.2889867454782128,0.487956206629239
1739817459821404000,4.44340380859375,-0.6357827058464288,0.21339549792110918,0.40617114593330766
1739817459831475000,4.453474853515625,-0.4804436755746603,0.1484242824472487,0.23482454532105473
1739817459841547000,4.463547119140625,-0.3250041075378656,0.10171353080719708,0.01622278399374336
1739817459851618000,4.4736181640625,-0.19904256291985511,0.08143018284365534,-0.20821590332612394
1739817459861690000,4.483690185546875,-0.12520984946787356,0.08032645938545464,-0.39474914981741455
1739817459871761200,4.49376123046875,-0.13467501242756844,0.10006532520875334,-0.5630237591058016
1739817459881833000,4.5038330078125,-0.21069149965941905,0.18361147729307412,-0.7031092522747814
1739817459891904000,4.513904052734375,-0.32182606202363967,0.2977202331624925,-0.8137147492635994
1739817459901976000,4.52397607421875,-0.4511544527262449,0.4702196570716798,-0.9035533525556325
1739817459912047000,4.534047119140625,-0.5350228225022554,0.6885463277846574,-0.9210169669233262
1739817459922118000,4.544117919921875,-0.5489040483385325,0.8764208693496882,-0.8412064211707562
1739817459932190000,4.55418994140625,-0.5304845945507287,1.0350688780389725,-0.6574450140129774
1739817459942261000,4.564260986328125,-0.46007717937231063,1.1442087594546377,-0.4306378439961001
1739817459952333000,4.5743330078125,-0.31833997347354887,1.2276866686083376,-0.20241940067550165
1739817459962404000,4.584404052734375,-0.12340952204763889,1.2787614606767892,-0.018741379218548536
1739817459972476000,4.594475830078125,0.06987666930258274,1.2478481437578797,0.0645053515277803
1739817459982547000,4.604546875,0.286503988751769,1.2356100089535116,0.06575845686141402
1739817459992619000,4.614618896484375,0.4749269579797983,1.2070435474216938,0.03493888264056295
1739817460002690000,4.62468994140625,0.62263213237226,1.1250215361647307,0.007497223887592554
1739817460012761000,4.634760986328125,0.743590754136443,1.017368240045011,-0.04554346142634749
1739817460022833200,4.644833251953125,0.8032862211644649,0.9201552355274557,-0.12628105889596045
1739817460032904200,4.654904296875,0.8442255497962236,0.8513887194238603,-0.2284184046057984
1739817460042976300,4.664976318359375,0.8553244514375925,0.7976207427486777,-0.3299800693195313
1739817460053047000,4.675047119140625,0.8038917858421802,0.7467179462462663,-0.40963885857649146
1739817460063118800,4.685118896484375,0.730713152384758,0.713036625918746,-0.4774890270201489
1739817460073190000,4.69518994140625,0.5919119999378919,0.6837006413191556,-0.5150074412925169
1739817460083261000,4.705260986328125,0.3360229296803474,0.6826885416671633,-0.5352134862361475
1739817460093332700,4.715332763671875,0.09401333169341086,0.6916581761948764,-0.52407001480069
1739817460103403800,4.72540380859375,-0.06415595356822014,0.6822568722516298,-0.473413375079073
1739817460113475800,4.735475830078125,-0.24664134944081306,0.676834847202897,-0.404111583054997
1739817460123547000,4.745546875,-0.4168126226633787,0.6340213952623307,-0.3103871147729456
1739817460133619000,4.755618896484375,-0.48884500869512554,0.5563083332456648,-0.24116171245332807
1739817460143690000,4.76568994140625,-0.5012462251067161,0.4466529035232961,-0.23275332853756844
1739817460153761800,4.77576171875,-0.3902998787909746,0.3093560181595385,-0.2904134538130835
1739817460163832800,4.785832763671875,-0.20793723251521587,0.17264774633869528,-0.3868474367821589
1739817460173904000,4.79590380859375,0.021238602861762046,0.000978635773807764,-0.5269747597988694
1739817460183976000,4.805975830078125,0.25285832425951954,-0.15612009764686227,-0.6003464316103607
1739817460194047000,4.816046875,0.44081776762902736,-0.27309344916716216,-0.6467109270960092
1739817460204119000,4.826119140625,0.600179477545619,-0.386234382917732,-0.6462694669388235
1739817460214189800,4.83618994140625,0.6891770269036293,-0.46325171775519847,-0.6100528559800237
1739817460224262000,4.846261962890625,0.7258095982521772,-0.5106922449745237,-0.5966807487096637
1739817460234332700,4.856332763671875,0.7472890241324901,-0.5028611129574477,-0.6029009749313816
1739817460244403700,4.86640380859375,0.6967255425870418,-0.45010918145701284,-0.5665672403989359
1739817460254475800,4.876475830078125,0.559729393735528,-0.3706752869971096,-0.47163175235930827
1739817460264546800,4.886546875,0.41558220408558844,-0.30833646585345265,-0.3944980611331761
1739817460274619000,4.896618896484375,0.30318741252720355,-0.2470297642365098,-0.30670937610827387
1739817460284690000,4.90668994140625,0.21128420485556124,-0.19732626052126287,-0.21541092939674852
1739817460294762000,4.916761962890625,0.17617022137641905,-0.17764906175732612,-0.13977335847988723
1739817460304833000,4.9268330078125,0.14342355155050754,-0.19440496624708176,-0.0598817468477413
1739817460314904000,4.936904052734375,0.11240472843050955,-0.21655951490998268,0.016761165186762808
1739817460324975900,4.946975830078125,0.0581271947979927,-0.21821415024921298,0.08020944540966302
1739817460335046700,4.957046630859375,-0.03871405379772186,-0.1896202161885798,0.1264867375358939
1739817460345119000,4.967118896484375,-0.13609481609761714,-0.19624737924337385,0.18245525646265595
1739817460355189800,4.977189697265625,-0.1889426091879606,-0.22633330542743205,0.258764406498149
1739817460365260800,4.9872607421875,-0.2161480114996433,-0.26809754057601093,0.2849838299797848
1739817460375332900,4.997332763671875,-0.21005904697477817,-0.3230941822633147,0.26914346943236883
1739817460385404000,5.00740380859375,-0.17417933982014655,-0.3763433957614004,0.22873415602408348
1739817460395476000,5.01747607421875,-0.12785948719382284,-0.41257761544212695,0.17622059985678643
1739817460405547000,5.027547119140625,-0.06088029289841652,-0.4714024371154606,0.11901793602518737
1739817460415618800,5.037618896484375,0.0031172552376985546,-0.5326179533176124,0.07351352796759456
1739817460425689900,5.04768994140625,0.0707493604838848,-0.6180870362885296,0.03730637895688414
1739817460435761000,5.057760986328125,0.11434884823560713,-0.6810052647553384,0.029232378094643352
1739817460445833000,5.0678330078125,0.15026362670361995,-0.7065175994135439,0.041050972312688824
1739817460455903700,5.07790380859375,0.19357611420750617,-0.7188334756292403,0.026223734330572186
1739817460465976000,5.08797607421875,0.2584802557945251,-0.723069213502854,0.045191688846610484
1739817460476046800,5.098046875,0.3175795104950666,-0.735671943835914,0.041169228397496045
1739817460486118000,5.108117919921875,0.36400866871476173,-0.720262631649524,0.030756774650327858
1739817460496190000,5.11818994140625,0.40060324614048004,-0.6817556447312235,0.03436181340496987
1739817460506261000,5.128260986328125,0.41301849107742306,-0.640843057975918,0.005542911482043564
1739817460516332800,5.138332763671875,0.38699557654857636,-0.5717191067367792,-0.02176865461785346
1739817460526403800,5.14840380859375,0.32989129505753517,-0.4861268357776105,-0.02410045856628567
1739817460536476000,5.158475830078125,0.258349907413125,-0.40204482325091956,-0.004255684683099389
1739817460546547000,5.168546875,0.19244681791663168,-0.3107042178981006,0.0317419862953946
1739817460556618000,5.178617919921875,0.14518354696035385,-0.2424472587518394,0.07007146122232079
1739817460566690000,5.18868994140625,0.10864859076738356,-0.191086635479331,0.07773450666349381
1739817460576760800,5.1987607421875,0.11729250047206878,-0.14195596321597695,0.07660619675330817
1739817460586833000,5.2088330078125,0.13839198712408543,-0.13639979039356112,0.07477503580339252
1739817460596903700,5.218903564453125,0.15647767891287803,-0.1888183982864022,0.06821238935217261
1739817460606974700,5.228974609375,0.1638467463761568,-0.28125293635576964,0.018217063083499668
1739817460617046800,5.239046875,0.18510230037271974,-0.3845759481862187,-0.08708981604054569
1739817460627117800,5.249117919921875,0.22654607139527796,-0.4918121879376471,-0.17693433761671185
1739817460637190000,5.25918994140625,0.281142169457674,-0.605570084542781,-0.22955197521299123
1739817460647261000,5.269260986328125,0.34383038856089115,-0.7338875446371733,-0.26373006608150895
1739817460657332000,5.27933203125,0.40218846950531,-0.8274706682197749,-0.27035335667878385
1739817460667404000,5.289404052734375,0.4621510630369186,-0.9277383841328323,-0.2962484801094979
1739817460677475000,5.29947509765625,0.5863239706724882,-1.0116412407003343,-0.33328824401944873
1739817460687547000,5.309546875,0.6827572229892015,-1.0763330547109247,-0.3307637670431286
1739817460697617700,5.31961767578125,0.7245259881824254,-1.1635146406881511,-0.30160233529284597
1739817460707688700,5.329688720703125,0.7939438078016042,-1.3181876082666217,-0.22778606151901185
1739817460717760800,5.3397607421875,0.826755359557271,-1.5069465314507484,-0.06953969243317842
1739817460727831800,5.349831787109375,0.7515344066172838,-1.6340215902686117,0.026120091293007134
1739817460737903900,5.35990380859375,0.6493962206572294,-1.7030013107314705,0.08143332464881241
1739817460747975000,5.369974853515625,0.49887131266891954,-1.745994357022643,0.048526641955599185
1739817460758046000,5.3800458984375,0.2174292834818363,-1.625570865048468,-0.11702142844572663
1739817460768118000,5.390117919921875,-0.27787586113810536,-1.3594406790226696,-0.3073355451826006
1739817460778189000,5.40018896484375,-0.7447995454043149,-1.0796586920022964,-0.46377501097694035
1739817460788260900,5.4102607421875,-1.305916594105959,-0.7901428080834448,-0.5902756309077143
1739817460798332000,5.420331787109375,-1.8093378251641987,-0.484700163975358,-0.6217568108424544
1739817460808402700,5.430402587890625,-2.207186219638586,-0.25697102027535434,-0.5526948189236224
1739817460818474800,5.440474853515625,-2.4678631086945533,-0.12029518941938877,-0.4441304358409717
1739817460828545800,5.4505458984375,-2.5372785902261734,0.04525923765748739,-0.3265647079180926
1739817460838617900,5.460617919921875,-2.39270937577188,0.22410028567835688,-0.26154936104156074
1739817460848689000,5.47068896484375,-2.0589567291110753,0.37462811627611514,-0.25301888511609283
1739817460858760000,5.480760009765625,-1.6020032347172497,0.4335810943737626,-0.24694369338825345
1739817460868832000,5.49083203125,-1.148418339973688,0.4417531487829983,-0.23443653238415715
1739817460878903000,5.500903076171875,-0.7001216147661209,0.4640111578203737,-0.2559879275221377
1739817460888974800,5.510974853515625,-0.3268260622680187,0.48387554971948266,-0.2344165855746716
1739817460899046000,5.5210458984375,-0.009255319601297378,0.4701696804501116,-0.1503239785887301
1739817460909118000,5.531117919921875,0.2756470791727304,0.47322746058553455,-0.058548050558567044
1739817460919189000,5.54118896484375,0.5368342558383942,0.4693091180980205,0.01746595245525241
1739817460929259800,5.551259765625,0.7351870829284191,0.5041843243852258,0.06977364731952547
1739817460939331800,5.561331787109375,0.8174778281241655,0.5364760900504887,0.08026903010979294
1739817460949403000,5.57140283203125,0.809345375072956,0.5805566393174231,0.05613660550266504
1739817460959474000,5.581473876953125,0.741035808956623,0.6380858682222664,0.07262757544592023
1739817460969545700,5.591545654296875,0.5876502508401871,0.7164847205460071,0.053236573212221264
1739817460979616800,5.60161669921875,0.389773224568367,0.7720218988507985,0.025511384810134766
1739817460989688800,5.611688720703125,0.2608282802253961,0.819975051767379,-0.00921907924413681
1739817460999760000,5.621759765625,0.10045827004909515,0.8629173907846212,-0.014234569318592547
1739817461009831000,5.631830810546875,-0.058198506468534465,0.8835375694870948,-0.013706380726024509
1739817461019903000,5.641903076171875,-0.1673632300645113,0.8828454955697059,-0.010175064794719219
1739817461029974000,5.65197412109375,-0.2549105806142092,0.9043176149263977,0.005464549016207456
1739817461040046000,5.662046142578125,-0.34965514919161794,0.9256979643464088,-0.00049180210493505
1739817461050116900,5.672116943359375,-0.45594928578734395,0.9285396175131201,-0.007754924975708127
1739817461060188000,5.68218798828125,-0.5918126312166452,0.9422375957369804,0.004312383306398987
1739817461070259700,5.692259765625,-0.7095131279677153,0.9901476401641964,0.04855776774622499
1739817461080330800,5.702330810546875,-0.8072656461894512,1.0441598008587956,0.12530505347065626
1739817461090402800,5.71240283203125,-0.8532651808202266,1.0939270174600184,0.23242438884414732
1739817461100477400,5.7224775390625,-0.8562871589899063,1.1158723072864114,0.3475412988428026
1739817461110548500,5.732548583984375,-0.8036492092579602,1.1119899128951132,0.44987508044019336
1739817461120620500,5.74262060546875,-0.6886462810277938,1.1246147089295089,0.5278653519630432
1739817461130691600,5.752691650390625,-0.534893058642745,1.1072720905929803,0.5822851436104625
1739817461140762600,5.7627626953125,-0.3473082938045263,1.0468998933471738,0.5646447844363749
1739817461150834700,5.772834716796875,-0.1525847631275654,0.9752177820578217,0.5035811708603054
1739817461160905500,5.782905517578125,0.02570435009896755,0.8790440574601293,0.42883273080289364
1739817461170977500,5.7929775390625,0.21188567788004875,0.8038058611243962,0.36462643528692423
1739817461181048300,5.80304833984375,0.32122108186781406,0.7144742575064301,0.3213831405617297
1739817461191119400,5.813119384765625,0.3673994801968336,0.6261132524862885,0.2825581737354398
1739817461201191400,5.82319140625,0.4153782059460878,0.5193938762158156,0.2733152752242982
1739817461211262500,5.833262451171875,0.41169396447539325,0.41500235837101934,0.2806302013475448
1739817461221334500,5.84333447265625,0.3233358820647001,0.3583718318715691,0.2768547013968229
1739817461231405600,5.853405517578125,0.20708792220950126,0.3288447086140513,0.2238891271457076
1739817461241476600,5.8634765625,0.05991232464909553,0.32643764747232196,0.13229147829189897
1739817461251548400,5.87354833984375,-0.0602969400525093,0.3505822009086609,0.048007513452321286
1739817461261619500,5.883619384765625,-0.11456979750990867,0.4006026616185903,-0.01680010895766318
1739817461271690500,5.8936904296875,-0.09529577271938323,0.44205666177421804,-0.01809182926863432
1739817461281762600,5.903762451171875,-0.03023614830970764,0.43914837311208244,0.038793037318065764
1739817461291833300,5.913833251953125,0.07076105092167854,0.4124988511174917,0.0947703606057912
1739817461301905400,5.923905517578125,0.19901976656615733,0.37806349755227564,0.0970459773875773
1739817461311976400,5.9339765625,0.2875286556243896,0.3165428609237075,0.08546798699237405
1739817461322047500,5.944047607421875,0.37781916740238664,0.247676537707448,0.09251790550388395
1739817461332119600,5.95411962890625,0.44215398466885086,0.19810411302596329,0.06309132001139223
1739817461342190600,5.964190673828125,0.49804187610745426,0.15467998184114692,-0.004625833169743418
1739817461352262400,5.974262451171875,0.5589771140635014,0.13828414283543825,-0.1095878443788737
1739817461362333400,5.98433349609375,0.5933867486655712,0.13704203381985425,-0.2503601507682353
1739817461372404500,5.994404541015625,0.5912912376910447,0.14403320788145063,-0.32931269145198167
1739817461382476500,6.0044765625,0.5569324564933776,0.14901684151291847,-0.3372241952288896
1739817461392547600,6.014547607421875,0.4506009104967117,0.1914613140106201,-0.26584282045178115
1739817461402618400,6.024618408203125,0.3567038986593485,0.263758488458395,-0.12830313930809498
1739817461412690400,6.0346904296875,0.3491290794909,0.2938005755007267,0.07990392312444745
1739817461422761500,6.044761474609375,0.3776858964115381,0.2643371651291847,0.33541341947987674
1739817461432832500,6.05483251953125,0.41755496546328064,0.2040840642184019,0.569436183431372
1739817461442904600,6.064904541015625,0.47525604380369185,0.16374591635018587,0.6955776877261698
1739817461452975600,6.0749755859375,0.47039749785661694,0.17552666277587411,0.7385670076902955
1739817461463047400,6.08504736328125,0.40233284641206263,0.20876813038140535,0.7295457891058177
1739817461473118500,6.095118408203125,0.2460813774704933,0.22778686523661015,0.6714587071225047
1739817461483189500,6.105189453125,0.0716080231398344,0.19170725159570573,0.593316679104045
1739817461493261600,6.115261474609375,-0.03737374510467052,0.1464228794969618,0.5462077949918807
1739817461503332600,6.12533251953125,-0.07575929760038852,0.08961524286493658,0.5268240262165665
1739817461513403400,6.1354033203125,0.006723170775175094,0.020216566337645053,0.49335181859508154
1739817461523475500,6.145475341796875,0.14830781646072863,-0.031195056469738483,0.43010289686918257
1739817461533546500,6.15554638671875,0.27019524350762364,-0.07268485859110951,0.3250338450890034
1739817461543618600,6.16561865234375,0.29957097559571266,-0.1424343943826854,0.17021401638574898
1739817461553689600,6.175689697265625,0.26729718397855756,-0.2089757817827165,-0.010769596621766686
1739817461563760600,6.1857607421875,0.18807517870366572,-0.2605051857508719,-0.165635821750015
1739817461573832400,6.19583251953125,0.06801145995259285,-0.27233868527710436,-0.271161604321748
1739817461583903500,6.205903564453125,0.01085866314470768,-0.27574995502531524,-0.3228895996019244
1739817461593974500,6.215974609375,-0.008535773155093192,-0.2606618376173079,-0.32024894890002903
1739817461604046600,6.226046630859375,0.02992985883951187,-0.2587096806362271,-0.2926984594777226
1739817461614117600,6.23611767578125,0.11763444577753543,-0.27789339679479597,-0.2538273154221475
1739817461624189700,6.246189697265625,0.24140637139678,-0.3306779153905809,-0.21143881089538336
1739817461634260500,6.256260498046875,0.349186947157979,-0.3925602249383926,-0.19397746155001222
1739817461644331500,6.26633154296875,0.440025740468502,-0.4556371510982513,-0.18650193803757428
1739817461654403300,6.2764033203125,0.5301274516761303,-0.5010872351527214,-0.20152641562484203
1739817461664474400,6.286474365234375,0.6153448979735374,-0.5772637352518737,-0.1946653707489371
1739817461674545400,6.29654541015625,0.6672229692488908,-0.6734615713775157,-0.1717101001624018
1739817461684617500,6.306617431640625,0.6764695210218429,-0.7865636344224214,-0.1458212603420019
1739817461694688500,6.3166884765625,0.6692875005632638,-0.8936384000018238,-0.1240543227571994
1739817461704759600,6.326759521484375,0.5729618002742528,-0.9755052206970751,-0.08712196474447846
1739817461714831600,6.33683154296875,0.44736207470595835,-1.0264679306931792,-0.020831264169886708
1739817461724902400,6.34690234375,0.315458280557394,-1.0567729064553975,-0.02105148279182613
1739817461734974700,6.356974609375,0.14056523950994013,-1.0304024936631322,-0.07874225893393158
1739817461745045500,6.36704541015625,-0.03953004635572433,-1.021392965516448,-0.11622962048090994
1739817461755116500,6.377116455078125,-0.17485504712462424,-1.0866618487626314,-0.040580651387199754
1739817461765188400,6.387188232421875,-0.37208559218645093,-1.1323343433961273,0.06700389034524559
1739817461775259400,6.39725927734375,-0.6152174722015857,-1.1044506034314632,0.17196641301102936
1739817461785330400,6.407330322265625,-0.7816361148923635,-1.030272145281732,0.17786168159469962
1739817461795402500,6.417402587890625,-0.9339052361994982,-0.9046903937615454,0.09263554053418338
1739817461805473500,6.4274736328125,-1.0586731871187687,-0.7922071932673453,0.017840411790832875
1739817461815544600,6.437544677734375,-1.1774053650051355,-0.6788901722975075,-0.012543985883146523
1739817461825616600,6.44761669921875,-1.252664896389842,-0.5809668275535106,0.03806041219457984
1739817461835687400,6.4576875,-1.338885966771841,-0.4279987641967833,0.10300503192245959
1739817461845758500,6.467758544921875,-1.4120166694343088,-0.25763050709739327,0.21810320068802683
1739817461855830500,6.47783056640625,-1.4270570021778344,-0.07919687083363533,0.34379739960674194
1739817461865901600,6.487901611328125,-1.4156155707091092,0.06531739856302737,0.44718635281287133
1739817461875973400,6.497973388671875,-1.3797224195510147,0.15894991424530744,0.5365466345360502
1739817461886044400,6.50804443359375,-1.2950912487089634,0.21734905785247682,0.5785509255181998
1739817461896115500,6.518115478515625,-1.1606675806939601,0.2572534904785454,0.538699136394821
1739817461906187500,6.5281875,-0.9736737674862146,0.279288358284533,0.44191360004171726
1739817461916258600,6.538258544921875,-0.7415098562091589,0.24640359516218302,0.36046383571475743
1739817461926329600,6.54832958984375,-0.5175222371250391,0.17268866287097334,0.31289394649472085
1739817461936401700,6.558401611328125,-0.3192617644935846,0.09109612907245755,0.2402479951418936
1739817461946472400,6.568472412109375,-0.13916530958414078,0.0781051300741732,0.14323478751275687
1739817461956543500,6.57854345703125,0.0032417584002017974,0.09135244192108512,0.0464697459584102
1739817461966615600,6.588615478515625,0.11555062524080276,0.1357711371012032,0.0032831498565152285
1739817461976686600,6.5986865234375,0.21989596585631369,0.19971447083204982,-0.02656352421157062
1739817461986757600,6.608757568359375,0.2500362525761127,0.2708732888996601,-0.052147353203408416
1739817461996829400,6.618829345703125,0.22882921389639377,0.3529647121310234,-0.085130754394643
1739817462006900500,6.628900390625,0.15910276671946047,0.46040421936959025,-0.12274426307193934
1739817462016971500,6.638971435546875,0.009905892464518546,0.5828776296108961,-0.18427940314989535
1739817462027043600,6.649043701171875,-0.13324877901673315,0.7107236728012561,-0.2400642360728234
1739817462037114600,6.659114501953125,-0.2947720508813858,0.8619391934022307,-0.25828763756556433
1739817462047185400,6.669185302734375,-0.4744862284749746,1.0246329703509807,-0.26701798344468697
1739817462057257500,6.679257568359375,-0.6625795273572206,1.1875038574323058,-0.26036990546602756
1739817462067328500,6.68932861328125,-0.8225584923893213,1.3653957880347967,-0.23840035798121242
1739817462077399600,6.699399658203125,-0.9526397472858429,1.5090528560802339,-0.18956804760992527
1739817462087471400,6.709471435546875,-1.0053934323519467,1.6034320984765886,-0.13486578575931488
1739817462097542100,6.719542236328125,-0.9443962350755929,1.6655507009983062,-0.08773553006555884
1739817462107614000,6.729614013671875,-0.7770961333751678,1.6848682726696134,-0.09840042420383542
1739817462117685000,6.73968505859375,-0.5253308650493621,1.611936015188694,-0.13736735678408293
1739817462127756000,6.749756103515625,-0.19628537316620348,1.525489027096331,-0.18946403924617916
1739817462137828000,6.759828125,0.07385550980567931,1.4014128578335046,-0.28783512775767595
1739817462147899000,6.76989892578125,0.35443829181492326,1.272655545017123,-0.4306986708052456
1739817462157970000,6.779969970703125,0.555072507840395,1.1735603800147771,-0.5710902707813307
1739817462168042000,6.7900419921875,0.6508230385899544,1.0892933663100004,-0.6712075088404119
1739817462178113000,6.800113037109375,0.7180839724361896,0.967029799427092,-0.7534915320344269
1739817462188184000,6.81018408203125,0.7463420986711978,0.8319394841969012,-0.7737044451102614
1739817462198256000,6.820256103515625,0.7462626036942005,0.7290539870008825,-0.7491071794703602
1739817462208327200,6.8303271484375,0.7408703892618417,0.656161477008462,-0.7068798568546771
1739817462218398200,6.840398193359375,0.7430921569645405,0.5869950018018484,-0.6304780966322868
1739817462228470000,6.850469970703125,0.7606079399108886,0.5200070396780967,-0.5443747708784415
1739817462238540800,6.860540771484375,0.7644120083689689,0.4338780314937234,-0.4794499883621931
1739817462248611800,6.87061181640625,0.7900666741073131,0.3477037228628993,-0.39938448146786537
1739817462258684000,6.880683837890625,0.7915741560608148,0.2328793660700321,-0.344759851430729
1739817462268755000,6.8907548828125,0.7313339146316051,0.09994652113467455,-0.3411404918897897
1739817462278826000,6.900825927734375,0.7189800444930792,-0.008093874606490135,-0.3547475769598037
1739817462288898000,6.91089794921875,0.683004475748539,-0.05199614469707012,-0.37859351277574893
1739817462298969000,6.920968994140625,0.5823515599101782,-0.11091653569936752,-0.3988660470843315
1739817462309040000,6.9310400390625,0.505047370955348,-0.16870032388716935,-0.40090127923898394
1739817462319112000,6.94111181640625,0.3934738326519727,-0.20987199997007847,-0.3703133583495393
1739817462329183000,6.951182861328125,0.29716917515099045,-0.25251404086649415,-0.3157969744598493
1739817462339254000,6.96125390625,0.2032160492122173,-0.28155425738990303,-0.2384567643435672
1739817462349325800,6.971325927734375,0.15111176796555517,-0.2962073443815112,-0.14222104389294982
1739817462359396900,6.98139697265625,0.1423310801386833,-0.3093757457733154,-0.04090056752394885
1739817462369468000,6.991468017578125,0.1672586006462574,-0.3468956213504076,0.04012315341066569
1739817462379540000,7.0015400390625,0.20494564948379992,-0.39345220534205433,0.07981131293755024
1739817462389611000,7.011611083984375,0.24457097290754318,-0.4180857113391161,0.08449760759025812
1739817462399682000,7.02168212890625,0.23801906704604625,-0.43681057781428095,0.06874722688123583
1739817462409754000,7.031754150390625,0.18949732046127318,-0.44782004760652777,0.04787420592885464
1739817462419825200,7.0418251953125,0.10747019463777542,-0.4426145879179239,0.04652056283019483
1739817462429896200,7.051896240234375,0.03459843517243862,-0.43527913046330213,0.06107150462158024
1739817462439968000,7.061968017578125,-0.04965104287564754,-0.41681729883849616,0.08870638439171016
1739817462450038800,7.072038818359375,-0.08359247544407844,-0.41482554049938913,0.13780370237473397
1739817462460109800,7.08210986328125,-0.09409867188930511,-0.4498544760435819,0.16143570317905395
1739817462470182000,7.092181884765625,-0.10056114590167999,-0.49455491077452896,0.1380273550627753
1739817462480253000,7.1022529296875,-0.06636953796446322,-0.5225771824270486,0.10726115499697625
1739817462490324000,7.112323974609375,-0.02482522917687893,-0.5662181712329387,0.067051163553074
1739817462500395000,7.12239501953125,-0.017125906845927238,-0.6131456343635916,0.034785591774992644
1739817462510467000,7.132467041015625,0.007436287480592727,-0.644327831351757,0.019226167060807348
1739817462520538000,7.1425380859375,0.03620996202230453,-0.6697407972887158,0.035738727781362827
1739817462530609000,7.15260888671875,0.059338908675312996,-0.689964670149982,0.06263911926448344
1739817462540681200,7.16268115234375,0.06442541815936564,-0.675727178221941,0.05370298514757305
1739817462550752000,7.172751953125,0.04338087656497955,-0.6793412770658731,0.022713132393732665
1739817462560823000,7.182822998046875,0.00547287845313549,-0.6617158962652087,-0.02813424412701279
1739817462570894800,7.192894775390625,-0.08438625617027282,-0.6469067419290542,-0.09756057584621011
1739817462580966000,7.2029658203125,-0.14741115988194942,-0.6122296885624527,-0.1871358154943213
1739817462591037000,7.213036865234375,-0.18736907626092433,-0.5929635548174381,-0.27123342744894324
1739817462601109000,7.22310888671875,-0.18437807775139808,-0.5626575561419129,-0.35520576905608175
1739817462611180000,7.233179931640625,-0.17634440889954567,-0.5416302579432726,-0.38666623499635605
1739817462621251000,7.2432509765625,-0.13391688753664494,-0.5722641733989119,-0.4342099668618291
1739817462631323100,7.2533232421875,-0.01414250712096691,-0.5618222743615507,-0.5017945066392422
1739817462641394000,7.263393798828125,0.085702599465847,-0.5012675601556897,-0.5603924972867593
1739817462651465000,7.27346484375,0.14070435571968554,-0.4871291446879506,-0.6005037045313045
1739817462661537000,7.283537109375,0.16862345925867556,-0.47129356991350646,-0.6023678179027512
1739817462671608000,7.293608154296875,0.17458850514292715,-0.46674598961174485,-0.6451078758135438
1739817462681679000,7.30367919921875,0.20126666871011256,-0.4547451706945896,-0.6565376899097114
1739817462691750100,7.313750244140625,0.21093641433119772,-0.4424310480445623,-0.6428881539374589
1739817462701822000,7.323822021484375,0.20386311494410037,-0.4713324406191706,-0.613574819561094
1739817462711893000,7.33389306640625,0.20332301671802996,-0.5275754291057586,-0.5941502438513562
1739817462721964000,7.343964111328125,0.20293197157382964,-0.5664858822584152,-0.6009772037945688
1739817462732036000,7.3540361328125,0.22774375674724578,-0.6128706168144941,-0.6096287122838199
1739817462742107000,7.36410693359375,0.25573884813189507,-0.6632014586478472,-0.6282317059449851
1739817462752178000,7.374177978515625,0.26774317418038845,-0.7198577041104436,-0.6334668301194906
1739817462762250000,7.38425,0.37693887743651866,-0.847003782337904,-0.5015349423876032
1739817462772321000,7.394321044921875,0.4468307443082332,-1.0529331821620465,-0.2718513036189601
1739817462782392000,7.40439208984375,0.36447862431406974,-1.1838637473642826,-0.15673128834776578
1739817462792464100,7.414464111328125,0.2776484821230173,-1.2583055326253174,-0.14298669450320303
1739817462802535200,7.42453515625,0.14661328750252722,-1.2984195163488388,-0.22161964784376323
1739817462812606200,7.434606201171875,-0.07101297985613346,-1.2567390139609576,-0.3418109750298783
1739817462822677000,7.444677001953125,-0.3781459151387214,-1.1693190891832113,-0.36460155657399446
1739817462832748800,7.454748779296875,-0.7671300351560115,-1.0658470242708922,-0.3189680422440171
1739817462842819800,7.46481982421875,-1.1150210972845553,-0.9714943776205182,-0.32888832856006917
1739817462852891000,7.474890869140625,-1.4219582177340984,-0.7784469634622335,-0.3937382922744378
1739817462862963000,7.484962890625,-1.6463818901479244,-0.4948725984215736,-0.5384137435821816
1739817462873034000,7.495033935546875,-1.808587299057841,-0.2237809905961156,-0.6544402061738074
1739817462883105000,7.50510498046875,-1.9162106384307145,-0.031206746907532213,-0.7005743269696831
1739817462893177000,7.515177001953125,-1.8833008869975805,0.0940533714428544,-0.7186097498759627
1739817462903248100,7.525248046875,-1.7386287966907024,0.31754063978940245,-0.6711134008161723
1739817462913319200,7.535319091796875,-1.3941922589302063,0.5201622302398086,-0.6021526407821104
1739817462923390000,7.545389892578125,-0.9007049773871898,0.7075231231942772,-0.4787805281354114
1739817462933462000,7.5554619140625,-0.40980069807469843,0.843641027906537,-0.3475696116218343
1739817462943533000,7.565532958984375,0.08998246874213219,0.9019237055271864,-0.21977299706377088
1739817462953604000,7.57560400390625,0.5120926132917404,0.9523241054654121,-0.11877711300663649
1739817462963676000,7.585676025390625,0.8505945003062486,0.9842296482920646,-0.038692864879220724
1739817462973747000,7.595746826171875,1.1067553732424973,1.0080182278975844,0.006791413705796003
1739817462983818000,7.60581787109375,1.2640344316661356,1.042014021001756,0.05244542283453047
1739817462993890000,7.61589013671875,1.288422438469529,1.0556024013713001,0.12555405979566275
1739817463003961000,7.625961181640625,1.2713339410245417,1.0196265403658151,0.21162658855244515
1739817463014032000,7.636031982421875,1.1713947264134883,0.9868003755629062,0.24573460985943674
1739817463024103000,7.64610302734375,1.0111287611335515,1.025833286051452,0.2276015717975795
1739817463034175000,7.656175048828125,0.7700608279109,1.083076099230349,0.15613237260654567
1739817463044246000,7.66624609375,0.5144757090359926,1.1154425375670194,0.018109218794852493
1739817463054317000,7.676317138671875,0.2697884162724018,1.1391127514898776,-0.12523622601814569
1739817463064388900,7.686388916015625,0.07730828060805797,1.1661015884414314,-0.2596510531395674
1739817463074460000,7.6964599609375,-0.07843523881137371,1.1949094575136898,-0.35901268705837425
1739817463084531000,7.706531005859375,-0.17428747636973857,1.218091303397715,-0.3974336761936545
1739817463094602000,7.71660205078125,-0.19754910949170587,1.2026356678515673,-0.33718568984940644
1739817463104671200,7.726671142578125,-0.10936521460413932,1.1567884011730551,-0.18950974155142902
1739817463114742000,7.736741943359375,0.07022621339261531,1.0829486734583973,0.0017498393420130012
1739817463124813000,7.74681298828125,0.2909510312885046,0.996966964790225,0.20488361709825692
1739817463134885000,7.756885009765625,0.44722588110566136,0.8629872411504388,0.3774634858325124
1739817463144956200,7.7669560546875,0.5174976872056722,0.7147863921955228,0.49045383213125165
1739817463155027200,7.777027099609375,0.46142976302504535,0.6161079913005233,0.5219656994652003
1739817463165098200,7.78709814453125,0.198158765822649,0.5543246120825409,0.4879909491490572
1739817463175170300,7.79717041015625,-0.16500643780529498,0.5557517222762107,0.4465631794132292
1739817463185241300,7.807241455078125,-0.5204869321495295,0.6089838385090232,0.4218398762408644
1739817463195312000,7.81731201171875,-0.9059282649934292,0.6942673357799649,0.44828620381355283
1739817463205384000,7.827384033203125,-1.238050680103898,0.7393132229477166,0.487063093714416
1739817463215455000,7.837455078125,-1.4490075527012347,0.7562769249692559,0.5561897483672946
1739817463225526000,7.847526123046875,-1.5367390276461839,0.7860764354273676,0.6605185762394219
1739817463235597000,7.85759716796875,-1.4847551579087972,0.7967655872240662,0.7375410987086594
1739817463245669000,7.867669189453125,-1.3219564592808484,0.799167972190678,0.811450457593426
1739817463255740200,7.877740234375,-1.0679290912419557,0.7952753486663102,0.8435756345201283
1739817463265811200,7.887811279296875,-0.7209972295343875,0.7695408956900238,0.8309060494959354
1739817463275882200,7.89788232421875,-0.3903063085317611,0.7069564292222261,0.7857357322309165
1739817463285954300,7.907954345703125,-0.114686701887846,0.5937453528448939,0.7259859777323902
1739817463296025000,7.918025146484375,0.09902560689747333,0.4658525479033589,0.6537214634452014
1739817463306096000,7.92809619140625,0.2598024443089962,0.3738818279534578,0.5905136774472892
1739817463316168200,7.938168212890625,0.37241584705412384,0.3182806445017457,0.555803452463448
1739817463326239200,7.9482392578125,0.45005438252985475,0.2620382405370474,0.5177203900456429
1739817463336310300,7.958310302734375,0.5335790534347296,0.22688772443979977,0.460808562386781
1739817463346381300,7.96838134765625,0.5994429799646139,0.20674422333836553,0.40484862862527365
1739817463356453000,7.978453125,0.6451005692899227,0.19377251356244085,0.35158304851427674
1739817463366524200,7.988524169921875,0.6799106013864279,0.15758885502517223,0.2632211667113006
1739817463376595000,7.998594970703125,0.7034405300557613,0.12455313912481068,0.15645057171024382
1739817463386666000,8.008666015625,0.7318868723392487,0.08632891467064618,0.035996173141151666
1739817463396738000,8.018738037109374,0.716412239831686,0.034216450117528434,-0.09162629042640327
1739817463406809000,8.02880908203125,0.6421954954981803,-0.026856735004484652,-0.1684367045149207
1739817463416880000,8.038880126953124,0.5578513249039649,-0.07064765367507934,-0.19006430669426916
1739817463426952200,8.0489521484375,0.4684294126540422,-0.09988777668476104,-0.1696031910110265
1739817463437023200,8.059023193359375,0.34843116035461424,-0.09613923780620097,-0.12907112800590692
1739817463447094300,8.06909423828125,0.23403321228027343,-0.07471388020068406,-0.04722359653301537
1739817463457165300,8.079165283203125,0.13472703487575052,-0.06177782626003027,0.06635974722281097
1739817463467237000,8.089237060546875,0.08541384565234184,-0.04757248303592205,0.18491189236715436
1739817463477308200,8.09930810546875,0.059687868243455885,-0.04649725501984357,0.2786926574137062
1739817463487379200,8.109379150390625,0.05811375079452991,-0.029381869567930697,0.3280328077092767
1739817463497450200,8.1194501953125,0.07844166855216025,-0.02357026067972183,0.316415508216992
1739817463507522000,8.12952197265625,0.11579378634691238,-0.024315526089072226,0.30958792721927164
1739817463517593000,8.139593017578125,0.12889818259179592,-0.021244155819714068,0.3136269004117697
1739817463527664000,8.1496640625,0.11453121906518936,-0.022865911802649498,0.31727453619912266
1739817463537735200,8.159735107421875,0.10370528914630413,0.0008978256225585938,0.30903087785840033
1739817463547807200,8.16980712890625,0.0582581277012825,0.0720636579528451,0.28761436114646494
1739817463557878000,8.1798779296875,-0.008107318609952925,0.12898761444091797,0.3146628193307668
1739817463567949000,8.189948974609376,-0.04981880065798759,0.16495353857427836,0.3825330441817641
1739817463578021000,8.200021240234374,-0.12253449277877806,0.1770259614229202,0.45813912398181855
1739817463588092200,8.210092041015624,-0.09760229609608649,0.16686404837071894,0.5163601345431059
1739817463598163200,8.2201630859375,-0.016966916891932485,0.15072159960418938,0.5417850831788033
1739817463608234200,8.230234130859374,0.10429565625488757,0.12018880643546581,0.5079687382947653
1739817463618306000,8.24030615234375,0.24040800800919532,0.05448591568619013,0.45500601358786225
1739817463628377000,8.250377197265625,0.335687998637557,-0.030322073027491566,0.36497174159325657
1739817463638448000,8.2604482421875,0.40757717680633065,-0.1204939268618822,0.2706702406082302
1739817463648519000,8.270518798828125,0.45073242792189117,-0.18745383193492887,0.16816840896755456
1739817463658591000,8.280591064453125,0.4583955098956823,-0.27708880241364237,0.08701265915110706
1739817463668662000,8.290662109375,0.4761819264769554,-0.3791577225297689,0.03096395112760365
1739817463678733000,8.300733154296875,0.4807143092095852,-0.45873102546036243,0.009574249357357621
1739817463688804000,8.31080419921875,0.5096498963147401,-0.5539145699769258,0.024091727270558475
1739817463698876200,8.320876220703125,0.5691173998057842,-0.6562485707700252,0.07495821035057305
1739817463708947200,8.330947265625,0.6116150637954473,-0.73709700820297,0.11658647109456359
1739817463719018200,8.341018310546875,0.614355302414298,-0.7843228697583079,0.13528225760571658
1739817463729089000,8.351089111328125,0.589448240172863,-0.8086641148105264,0.12015943421050905
1739817463739161000,8.3611611328125,0.5255167430102825,-0.8303782262295484,0.04591309845633804
1739817463749232000,8.371232177734376,0.4525806861370802,-0.8202516767516732,-0.0069588061619549986
1739817463759303200,8.38130322265625,0.294562792044878,-0.8352151448667049,-0.02388341828212142
1739817463769374200,8.391374267578126,0.1405102944523096,-0.9008931934356689,-0.03845722949244082
1739817463779446000,8.401446044921874,0.07955868988335132,-0.9669909287214279,-0.026418343587219714
1739817463789517000,8.41151708984375,0.016480010157823563,-1.0082862311840057,-0.010356485776230693
1739817463799588000,8.421588134765624,0.014136077380180358,-1.0393579535350204,0.018424422223865984
1739817463809659100,8.4316591796875,0.05187631770968437,-1.0529328899011015,0.06404109501689673
1739817463819731200,8.441731201171875,0.07464344531297683,-1.0760834638640284,0.1269734981395304
1739817463829802000,8.451802001953125,0.07518237449526786,-1.1197960566014051,0.16544029917791483
1739817463839873000,8.461873046875,0.06908464214205741,-1.1486764063879846,0.2541610774211585
1739817463849944000,8.471944091796875,0.05521978291869163,-1.1559241855591535,0.39246012556478377
1739817463860015000,8.48201513671875,-0.02505260819196701,-1.1552478937327861,0.5159578373525291
1739817463870087200,8.492087158203125,-0.1485837107926607,-1.1046636616602539,0.5516815502278506
1739817463880158200,8.502158203125,-0.2707774273097515,-0.9959525270506739,0.5140753480741754
1739817463890229200,8.512229248046875,-0.4650841938793659,-0.8368579436376691,0.4314390043111518
1739817463900300000,8.522300048828125,-0.6906681422442197,-0.6724244834147394,0.34273883046451953
1739817463910372000,8.5323720703125,-0.8905909951299429,-0.5375711918108165,0.31572789127901196
1739817463920443100,8.542443115234375,-1.0441893192142249,-0.4626384081624448,0.34724275428764523
1739817463930514200,8.55251416015625,-1.1083832667052744,-0.390204017201066,0.45786717517264186
1739817463940585200,8.562585205078125,-1.007161026546359,-0.30996611288189885,0.5974904941899701
1739817463950657000,8.572656982421876,-0.7781377513825893,-0.2688845993004739,0.7504093481101095
1739817463960728000,8.58272802734375,-0.541525044003129,-0.29665245780050753,0.8641783506311476
1739817463970799000,8.592799072265626,-0.3243728238970041,-0.3428101056024432,0.8512985569223761
1739817463980870100,8.6028701171875,-0.19121113864183426,-0.31575507154688237,0.7358565066225826
1739817463990942200,8.612942138671874,-0.16225976944565773,-0.22421485196873545,0.5242821231814101
1739817464001013000,8.623012939453124,-0.26490532040596004,-0.09362973920330404,0.30548085722662505
1739817464011084000,8.633083984375,-0.4716822769701481,0.059627077966928475,0.14597900818698106
1739817464021155000,8.643155029296874,-0.7281371644169091,0.18625746175721286,0.03418824693635106
1739817464031227100,8.65322705078125,-0.9664894089400767,0.3027292934961617,-0.07253175038862973
1739817464041298200,8.663298095703125,-1.13067868514359,0.4274420070968568,-0.18956322530433534
1739817464051369200,8.673369140625,-1.196841302359104,0.5425087943434715,-0.30321791726332153
1739817464061440300,8.683440185546875,-1.2478051813989877,0.6461790121763944,-0.43843423349335786
1739817464071511000,8.693510986328125,-1.2774854493916035,0.7451506969295442,-0.6007383900700136
1739817464081583000,8.7035830078125,-1.2425889080554247,0.8092034823842347,-0.7466868204556405
1739817464091654100,8.713654052734375,-1.214232582142949,0.8534560272172093,-0.8660729322060942
1739817464101728300,8.723728271484376,-1.1931494621038436,0.9037114657267927,-0.9574821458157151
1739817464111799300,8.73379931640625,-1.099064818739891,0.9764001237101853,-1.018894938155636
1739817464121871400,8.743871337890624,-0.9184674285709857,1.0512541430339217,-1.036106623588875
1739817464131942100,8.753942138671874,-0.6355506506562233,1.0810431320980192,-0.997409886252135
1739817464142013200,8.76401318359375,-0.31546880195140836,1.062495960277319,-0.9271399067830294
1739817464152084200,8.774084228515624,0.006453706184029579,1.0288482499584555,-0.8316906970676035
1739817464162156000,8.784156005859375,0.324505510365963,0.9910139016047119,-0.7802733021065592
1739817464172227000,8.79422705078125,0.6195037712186574,0.9927239203929901,-0.7895989104650915
1739817464182298000,8.804298095703125,0.8225520626485348,1.0093418777167797,-0.8029970289595425
1739817464192369200,8.814369140625,0.9863374342262744,0.9998486577063799,-0.784461547576636
1739817464202440000,8.82443994140625,1.0329214907467366,0.9894801161661744,-0.749827602699399
1739817464212512000,8.834511962890625,0.9671388127595185,1.0035121486499905,-0.7043673625770955
1739817464222583000,8.8445830078125,0.7935925101459026,1.0577899745434522,-0.6577199584968387
1739817464232654000,8.854654052734375,0.5910071600526571,1.1356778086051345,-0.6321469796925783
1739817464242725000,8.86472509765625,0.3681313016027212,1.2240692087635396,-0.5838308021498844
1739817464252797200,8.874797119140625,0.13667290824651718,1.2655310999646783,-0.5234263100696728
1739817464262868200,8.8848681640625,-0.07452128023803234,1.2696890964269638,-0.41883477614074943
1739817464272939300,8.894939208984376,-0.23732582408487796,1.2751415166139601,-0.300256272712443
1739817464283010300,8.90501025390625,-0.35602059257030483,1.2691355541974305,-0.19084473474854602
1739817464293081000,8.9150810546875,-0.40883623695671556,1.2137506438449024,-0.09041024743383749
1739817464303153200,8.925153076171876,-0.4238385757774114,1.1168638025417923,0.02689973389599472
1739817464313224200,8.93522412109375,-0.4025514575988054,0.9588953005492686,0.0953634128618054
1739817464323295200,8.945295166015624,-0.28782793083190916,0.8171171781182288,0.08246685068132355
1739817464333366300,8.9553662109375,-0.08113865255117415,0.7149246316224336,0.04960608948906883
1739817464343438000,8.96543798828125,0.14782792398929595,0.5481257574424148,0.013970511554926634
1739817464353509000,8.975509033203124,0.3376034768700599,0.3550993860721588,-0.0028843049983493982
1739817464363580200,8.985580078125,0.48708092163205147,0.1776543224543333,-0.04682411235403269
1739817464373651000,8.99565087890625,0.6032382805943489,0.019031740467250344,-0.1553043790834956
1739817464383722000,9.005721923828125,0.6541133123070001,-0.11767010161280632,-0.2811467360349372
1739817464393794000,9.0157939453125,0.6725918028056621,-0.21785481541752813,-0.4076464426502585
1739817464403865000,9.025864990234375,0.6350479618310928,-0.2956415271922946,-0.48537367932274933
1739817464413936000,9.03593603515625,0.5475409432917833,-0.3312351108819246,-0.5022553290840238
1739817464424007200,9.046007080078125,0.3951484878659248,-0.3661152856051922,-0.47457240892108526
1739817464434078200,9.056078125,0.2651473124682903,-0.38924043286591764,-0.3915595965284854
1739817464444150300,9.066150390625,0.14688041400611399,-0.38200726674199104,-0.29159214220363644
1739817464454221300,9.07622119140625,0.05267769722044468,-0.3974851141199469,-0.20129434216832742
1739817464464292000,9.0862919921875,0.01149520748257637,-0.3962546955421567,-0.12610676177497954
1739817464474363100,9.096363037109375,0.009542319849133491,-0.4050207703217864,-0.07058533816174603
1739817464484435200,9.106435302734376,0.04254267217516899,-0.4218327889129519,-0.03433182925865985
1739817464494506200,9.11650634765625,0.07362403913736343,-0.4390656632646918,-0.04075708566633984
1739817464504577300,9.126577392578126,0.09515607198774814,-0.44603111836314197,-0.07230933980960398
1739817464514648300,9.1366484375,0.11345452974438666,-0.4490925517603755,-0.09784417856056242
1739817464524719400,9.14671923828125,0.09098433926105498,-0.4358960933178663,-0.1313237657709047
1739817464534791200,9.156791259765624,0.08753858272135258,-0.4049538425654173,-0.11996118995836004
1739817464544862000,9.166862060546874,0.11446633713543414,-0.3672746847733855,-0.062409584824927145
1739817464554933000,9.17693310546875,0.15627075816392896,-0.36111616214364767,0.025572175086662173
1739817464565004000,9.187004150390624,0.1946855367541313,-0.3854156138807535,0.1098133236978203
1739817464575075000,9.197074951171874,0.1944113959878683,-0.42102234931290144,0.14639043853208422
1739817464585147100,9.207147216796875,0.20134616368710995,-0.45370501399189234,0.09359150781845674
1739817464595218200,9.21721826171875,0.18136895906329153,-0.47659430667012925,-0.012056238898821174
1739817464605289200,9.227289306640625,0.17445055797696113,-0.5077116217285395,-0.14358279723282902
1739817464615360000,9.237360107421875,0.19667875639796256,-0.5538946962326765,-0.25394758080095053
1739817464625431000,9.24743115234375,0.24963293247222898,-0.6000023674130439,-0.30718985310159624
1739817464635503000,9.257503173828125,0.36243572030961513,-0.6626444092869758,-0.32733181983307
1739817464645574100,9.26757421875,0.4767652793228626,-0.727760732319951,-0.3174793745888397
1739817464655645200,9.277645263671875,0.5549222857147454,-0.7623363711386919,-0.2854965652748942
1739817464665716200,9.28771630859375,0.607624532854557,-0.7989321176081895,-0.24108300292761994
1739817464675787300,9.297787353515625,0.6073883860111237,-0.795182701946795,-0.1886600111206062
1739817464685859300,9.307859375,0.5458318012863397,-0.7536158890664577,-0.15186291512642056
1739817464695930400,9.317930419921876,0.4561515303611755,-0.6989525709867477,-0.11211100618094205
1739817464706001200,9.328001220703126,0.345087695145607,-0.6155179164528847,-0.06020012861452997
1739817464716072200,9.338072265625,0.20293021800816058,-0.5586801769435406,-0.03965986501416191
1739817464726143200,9.348143310546876,0.11021627847552298,-0.5175958868831396,-0.0361729362138547
1739817464736215000,9.358215087890626,0.019055413603782653,-0.4654486432775855,-0.014502627403941004
1739817464746286000,9.3682861328125,-0.06071604224741459,-0.45361558214277026,0.019492836906667796
1739817464756357000,9.378357177734374,-0.10806114626824855,-0.46587388295233245,0.035297395488340405
1739817464766428200,9.38842822265625,-0.14185644836425781,-0.42300650886744257,0.020323460778221485
1739817464776499000,9.3984990234375,-0.19312544783055782,-0.37074411444962024,0.02579535285066813
1739817464786571000,9.408571044921874,-0.22607903840541838,-0.36663580234795806,0.05370682107247412
1739817464796642000,9.41864208984375,-0.2339998945325613,-0.37791561351418496,0.07690015646489337
1739817464806713000,9.428713134765625,-0.2168985376060009,-0.40393297508507964,0.08079937412682921
1739817464816784100,9.4387841796875,-0.14443652798533438,-0.4674933008477091,0.03860533272624016
1739817464826855200,9.448855224609375,-0.030040333476662635,-0.551318123742938,-0.06912358591295778
1739817464836927200,9.45892724609375,0.10587094274759291,-0.656756228031218,-0.1892171518130228
1739817464846998300,9.468998291015625,0.22114684270024298,-0.7564286083996296,-0.26776969686113294
1739817464857069000,9.479069091796875,0.33987434441149234,-0.8165083985701203,-0.28601025041807443
1739817464867140000,9.48914013671875,0.499657494610548,-0.8845844481915235,-0.18876608357727526
1739817464877211100,9.499211181640625,0.6749024178355932,-1.045706738039851,0.04767024432197213
1739817464887283200,9.509283203125,0.6841098066419362,-1.1683058204874395,0.20892821631394326
1739817464897354200,9.519354248046875,0.5790495957553387,-1.1841317506507039,0.24833912980202583
1739817464907425300,9.52942529296875,0.3350514542996883,-1.2251353766903281,0.17820768202077597
1739817464917496300,9.539496337890625,-0.08103402313292025,-1.1983663199692964,0.0996688001718372
1739817464927567400,9.5495673828125,-0.48270109911262987,-1.0601832994207738,0.007957936734519899
1739817464937639200,9.55963916015625,-0.8878834897369146,-0.9256576323360204,-0.03947082698177546
1739817464947710000,9.5697099609375,-1.2755208713203667,-0.7899556149482727,-0.028475056921318173
1739817464957781000,9.579781005859376,-1.5254828896164894,-0.5844485321894288,-0.006175583362393081
1739817464967852000,9.58985205078125,-1.7325947772234678,-0.34913989314585925,-0.016415018630214034
1739817464977923000,9.599923095703126,-1.8459177895426748,-0.19280366853028535,-0.08294332735296338
1739817464987995100,9.6099951171875,-1.927675450775027,-0.05667495016306638,-0.1611842491686344
1739817464998066200,9.620066162109374,-1.9631804793983696,0.09973433968871831,-0.25350948164463044
1739817465008137200,9.63013720703125,-1.9332979668319223,0.25409224996864793,-0.29337665100023147
1739817465018208000,9.6402080078125,-1.8264269071310757,0.3991539241150021,-0.28648261717017737
1739817465028279000,9.650279052734374,-1.6017308475166558,0.5360191400632262,-0.23651235227752476
1739817465038350000,9.66035009765625,-1.1950479892015455,0.6820309545412659,-0.16520583283491433
1739817465048422100,9.670422119140625,-0.7004840183377266,0.7955921595305204,-0.05859554296210408
1739817465058493200,9.6804931640625,-0.2136123555421829,0.8230258176401257,0.07452321646679193
1739817465068564200,9.690564208984375,0.2796346875041723,0.8214099068760872,0.16611838110256938
1739817465078635300,9.70063525390625,0.6923299379765987,0.8003177267476916,0.22372812789771704
1739817465088706000,9.7107060546875,1.019845151552558,0.7888157972633838,0.2081898921020329
1739817465098778400,9.7207783203125,1.226519232264161,0.7610428241968155,0.1922523913230747
1739817465108849400,9.730849365234375,1.3588123179912566,0.7230871875509619,0.22515958547294138
1739817465118920200,9.740920166015625,1.3642477870434522,0.6908487595081328,0.27873525444641706
1739817465128991200,9.7509912109375,1.2505091796606778,0.6466437070786952,0.28857356156744063
1739817465139062300,9.761062255859375,0.9983967053323983,0.7036188092321157,0.31199148122966286
1739817465149134000,9.771134033203126,0.6870283244371413,0.7201864976733923,0.3021712212219834
1739817465159205000,9.781205078125,0.36642449768483637,0.8105734555631876,0.2608866593491286
1739817465169276200,9.791276123046876,0.05128361251354217,0.9391752855569123,0.13875197954289614
1739817465179347200,9.80134716796875,-0.22754969547986983,1.0483215967133641,-0.015021262716874479
1739817465189418000,9.81141796875,-0.5086451031863689,1.079702531144023,-0.15276570918504148
1739817465199489000,9.821489013671876,-0.70963470852077,1.1141557126268744,-0.2685497413229197
1739817465209561000,9.83156103515625,-0.8472820147573947,1.193855564546585,-0.3337340880908072
1739817465219632000,9.841632080078124,-0.8910422460287809,1.26173258446455,-0.3188991417262703
1739817465229703200,9.851703125,-0.8562719614207744,1.2815969763636588,-0.21628267072997986
1739817465239774200,9.861774169921874,-0.7372340785861015,1.2680617874860762,-0.044238077916204925
1739817465249845200,9.87184521484375,-0.5266933855742216,1.2503873068466782,0.12338964830338954
1739817465259916000,9.881916015625,-0.30138007084429264,1.237082711854577,0.20590664000306277
1739817465269988000,9.891988037109375,-0.12598609453737736,1.2207742588713764,0.25062234536837785
1739817465280059100,9.90205908203125,-0.0009779051214456557,1.1801751219794154,0.30234095176570114
1739817465290130200,9.912130126953125,0.08848024748563765,1.1109908188551663,0.3147060008853674
1739817465300201200,9.922201171875,0.15911270359158514,1.0727885139718651,0.23610307735688982
1739817465310272300,9.932272216796875,0.23196166670322416,1.061928974044323,0.14900343404207378
1739817465320343300,9.94234326171875,0.31024843695461746,1.0400219704017042,0.08943411414436996
1739817465330415400,9.952415283203125,0.3453127360731363,0.9995026207476854,0.09829060715381055
1739817465340486400,9.962486328125,0.3510357898950577,0.9495642853632569,0.15597678018603472
1739817465350557200,9.97255712890625,0.3580442073523998,0.9291939897686242,0.21685436967071145
1739817465360628200,9.982628173828125,0.3489548919677734,0.8998191344633698,0.2763014879608527
1739817465370699300,9.99269921875,0.309863237029314,0.8471668639451265,0.3667391531245783
1739817465380771000,10.00277099609375,0.2335854685127735,0.784292766880989,0.4399689687799662
1739817465390842000,10.012842041015626,0.16000760660469532,0.725317430821061,0.477555954776518
1739817465400913200,10.0229130859375,0.05861994675099849,0.6964423417314887,0.4772792932596057
1739817465410984200,10.032984130859376,-0.041588147929310794,0.6786538793236017,0.4459338320011273
1739817465421055000,10.043054931640626,-0.18820903421640395,0.6764023010045289,0.3994116252031177
1739817465431126000,10.0531259765625,-0.3492909920543432,0.6577566372454166,0.3438827032700181
1739817465441198000,10.063197998046874,-0.48089901812672614,0.6216819920405745,0.2847920337347314
1739817465451269000,10.07326904296875,-0.5611661485403776,0.5442115066081286,0.23690387234576046
1739817465461340200,10.083340087890624,-0.5914256777256727,0.44987902596294876,0.21357633438073098
1739817465471411200,10.0934111328125,-0.535814265140891,0.3207689541861415,0.19172756373137234
1739817465481482200,10.103482177734374,-0.3594517360627651,0.21023586484640835,0.16421287627480924
1739817465491553000,10.113552978515624,-0.1002729766100645,0.10724573823213576,0.1587106986619532
1739817465501624000,10.1236240234375,0.14838731143772602,-0.01806552578359842,0.16941311179902405
1739817465511696100,10.133696044921875,0.38765667080581184,-0.16059329753816126,0.15720606625266373
1739817465521767200,10.14376708984375,0.6102759241461754,-0.23464169956743716,0.14481621148530394
1739817465531838200,10.153838134765625,0.7402659936279058,-0.3289575213387608,0.11040909763388335
1739817465541909200,10.1639091796875,0.7762520837664604,-0.4671981172934174,0.054348041585460305
1739817465551980300,10.173980224609375,0.7800783640563488,-0.552457649166882,-0.018560981150344012
1739817465562051000,10.184051025390625,0.7819792292416096,-0.598974777930975,-0.1015184831591323
1739817465572123400,10.194123291015625,0.7369874103486538,-0.6145537475958466,-0.1537575332339853
1739817465582194200,10.204194091796875,0.6772475196570158,-0.6540580749884247,-0.1710075048509985
1739817465592265200,10.21426513671875,0.5890484272003174,-0.6678744188949466,-0.14781049793045967
1739817465602336300,10.224336181640625,0.4543617243349552,-0.6678171357497572,-0.11170947617534548
1739817465612407300,10.2344072265625,0.31481998265385625,-0.6412985466584563,-0.08430909928083419
1739817465622478300,10.244478271484375,0.18176468038260934,-0.58210547619462,-0.09043784782681613
1739817465632550100,10.254550048828126,0.08512216922938823,-0.5291837410852313,-0.1207396452512592
1739817465642621200,10.26462109375,0.047725043249130246,-0.48949908868968484,-0.13954923086781054
1739817465652692000,10.27469189453125,0.02367664366364479,-0.45493777065724134,-0.1422028141165152
1739817465662763000,10.284762939453126,0.06206219615936279,-0.41973347854614257,-0.09383209337498992
1739817465672834000,10.294833984375,0.13243161741495132,-0.40224925978183745,-0.01651489880811423
1739817465682905000,10.304905029296876,0.1859276452809572,-0.38282150573432444,0.08206205100640654
1739817465692976000,10.31497607421875,0.23623627528250216,-0.35879064180552955,0.15760704826898872
1739817465703048200,10.325048095703124,0.2940004819869995,-0.33462241523265834,0.21528821633253245
1739817465713119200,10.335119140625,0.31086043137311936,-0.2993368745788932,0.2547141081940383
1739817465723190000,10.34518994140625,0.311691036978364,-0.2892258149310946,0.26523590406719594
1739817465733261000,10.355260986328124,0.33551673372387886,-0.29280513472259045,0.2655183377377689
1739817465743332000,10.36533203125,0.3213496766835451,-0.28803046766668555,0.27139950473085045
1739817465753403100,10.375403076171875,0.31785482030510903,-0.2922454550132155,0.2581298714542761
1739817465763475200,10.38547509765625,0.2891343372553587,-0.3605103052049875,0.2470453271318227
1739817465773546200,10.395546142578125,0.24991642558872698,-0.44139849012643095,0.2011670442605391
1739817465783617300,10.4056171875,0.232495335188508,-0.5023872118353844,0.09215732856318354
1739817465793688000,10.41568798828125,0.23957331075072288,-0.5438260144218802,-0.005758855787664652
1739817465803759000,10.425759033203125,0.2570095987200737,-0.6036331251308321,-0.05779679379984736
1739817465813830100,10.435830078125,0.2630377729684114,-0.6742457074925303,-0.06509922576770186
1739817465823901200,10.445901123046875,0.28311317726969715,-0.733952572697401,-0.04432926333099604
1739817465833973200,10.45597314453125,0.3042652708917856,-0.7985653301224112,-0.004347673815488815
1739817465844044300,10.466044189453125,0.32651626566648484,-0.8323872279644012,-0.005874664187058806
1739817465854115300,10.476115234375,0.29693185926377774,-0.8469552670210599,-0.005015124748274684
1739817465864186400,10.486186279296875,0.27101883485019207,-0.9390554585695267,0.02815181631632149
1739817465874257200,10.496257080078125,0.29971476798057556,-1.0155234889611602,0.06233304898999631
1739817465884328200,10.506328125,0.29883038636147974,-1.124454696062207,0.2061693095272407
1739817465894399200,10.516399169921876,0.30916181076169014,-1.2769263542041183,0.39267574107684194
1739817465904471000,10.526470947265626,0.28342414291501045,-1.35770581805408,0.4987853148858994
1739817465914542000,10.5365419921875,0.21995383352339268,-1.3549503818660973,0.5326618655245751
1739817465924613000,10.546613037109376,0.08949497748613357,-1.2806968126535414,0.4660426271153614
1739817465934684200,10.55668408203125,-0.19171616555452345,-1.1381301701933144,0.300979216692131
1739817465944755200,10.566755126953124,-0.5716396117597818,-0.9262529678806662,0.11101847997019067
1739817465954826200,10.576826171875,-1.0194599516272544,-0.6578247340455651,-0.03194220330892131
1739817465964897300,10.586897216796874,-1.4769102896273136,-0.3734697400212288,-0.10515589894657022
1739817465974969000,10.596968994140624,-1.912100865024328,-0.09313450303226709,-0.09224847744535654
1739817465985040100,10.6070400390625,-2.2841320966750382,0.14851590625345706,0.0017866459547542035
1739817465995111200,10.617111083984375,-2.5695897912442685,0.34028643234372136,0.1884875223642215
1739817466005182200,10.62718212890625,-2.7252181598514316,0.5268620201393962,0.3599060191689059
1739817466015253000,10.6372529296875,-2.7067197956085205,0.7165612929135561,0.4693382345946505
1739817466025324000,10.647323974609375,-2.5862194390058515,0.8570105048283934,0.5103193200089037
1739817466035395000,10.65739501953125,-2.381606966999173,0.931762671212852,0.46843028943687676
1739817466045467100,10.667467041015625,-2.0943062749117614,0.9626420858621597,0.28944417038951065
1739817466055538200,10.6775380859375,-1.824917671611905,0.9326546516165136,0.009462697007972747
1739817466065609200,10.687609130859375,-1.5091969407260417,0.8368973988652229,-0.3238800354113802
1739817466075680300,10.69768017578125,-1.1813093867063522,0.742100807839632,-0.6731099814608693
1739817466085751000,10.7077509765625,-0.8321814762592316,0.7115010869145393,-0.9960451737701892
1739817466095822000,10.717822021484375,-0.4424257873475551,0.6861869051769376,-1.2419861198566853
1739817466105894400,10.727894287109375,-0.06614917321205138,0.6678454850614071,-1.348340754467994
1739817466115965400,10.73796533203125,0.3331003202319145,0.6215276782616973,-1.422535140839219
1739817466126037200,10.748037353515626,0.7288380061626434,0.6271373348370194,-1.3940896753385663
1739817466136108300,10.7581083984375,1.0822077919632196,0.6859419905051589,-1.3263099783152341
1739817466146179000,10.768178955078126,1.4071651377499104,0.757880560773611,-1.2295331732578574
1739817466156250000,10.77825,1.5914391706049442,0.8486199853628873,-1.0764999357104301
1739817466166321200,10.788321044921876,1.698912287852168,0.9512085454389453,-0.9009434623181819
1739817466176392200,10.79839208984375,1.7251619968742131,1.0544430022031068,-0.7452610254362225
1739817466186463200,10.808463134765624,1.653230733129382,1.1717051075369118,-0.6062043273257092
1739817466196535300,10.818535400390624,1.415375332212448,1.2862281432956457,-0.4572823975546285
1739817466206606300,10.8286064453125,1.0981243230193853,1.3742714606687425,-0.3537740922851488
1739817466216677000,10.838677001953124,0.7427589794874191,1.4782161115288734,-0.3429921476384625
1739817466226748200,10.848748046875,0.36217326998114585,1.5979174267083405,-0.349027190019004
1739817466236819200,10.858819091796875,-0.023806992045044897,1.6790248073384164,-0.3230314922906458
1739817466246890200,10.86889013671875,-0.40404841815829273,1.7039561272382735,-0.263723819003813
1739817466256961300,10.878961181640625,-0.7583440866321325,1.6754367197185753,-0.16970716284215448
1739817466267032300,10.8890322265625,-1.0171452449440956,1.6169617343962193,-0.0449204341571778
1739817466277104400,10.8991044921875,-1.180071369343996,1.5481445110186933,0.08571377844698727
1739817466287175400,10.909175537109375,-1.1733920377105473,1.4596335761338473,0.19390775731466708
1739817466297246200,10.91924609375,-0.9616852235287427,1.3351882812976836,0.22019549679215997
1739817466307317200,10.929317138671875,-0.5895476088941097,1.1842238128483296,0.14985709172934292
1739817466317388300,10.93938818359375,-0.2075999633848667,0.9739701200842856,0.06792009187471121
1739817466327459300,10.949459228515625,0.1172393089801073,0.7043862864732742,0.011124218745715916
1739817466337530400,10.9595302734375,0.4217793051600456,0.4903074824631214,-0.05724569925572723
1739817466347601400,10.969601318359375,0.6251806478112936,0.36916999700069425,-0.15564805968832224
1739817466357672200,10.979672119140625,0.7398211724698543,0.310987857145071,-0.25361860457491125
1739817466367744300,10.989744140625,0.7914163351505994,0.2579758134037256,-0.29228615234978494
1739817466377815300,10.999815185546876,0.8156868530541658,0.2050833043888211,-0.28971754397079347
1739817466387886300,11.00988623046875,0.8192413306653499,0.167408530510962,-0.23097444576416162
1739817466397957400,11.019957275390626,0.8163286580890416,0.15833879660964012,-0.19821192078199237
1739817466408028400,11.0300283203125,0.7592693847835064,0.14945552519112826,-0.19451441797092556
1739817466418099500,11.040099365234376,0.6631541123747825,0.12227730314731597,-0.209458377667889
1739817466428170200,11.050170166015626,0.5197001656860113,0.1037766008168459,-0.2460382689811289
1739817466438241300,11.0602412109375,0.3342459831357002,0.11590250741839409,-0.292238331152685
1739817466448313300,11.070313232421874,0.16523147873282432,0.15750643743872642,-0.2980138458142057
1739817466458384400,11.08038427734375,0.021323358535766602,0.20098843629062174,-0.28502752299103884
1739817466468455400,11.090455322265624,-0.09477087206244468,0.23774141914844513,-0.23534528125952928
1739817466478526500,11.1005263671875,-0.1829530133843422,0.2476739073589444,-0.13464154854938387
1739817466488597500,11.110597412109374,-0.24759178203344342,0.25655250260233875,-0.05612802033741027
1739817466498668300,11.120668212890624,-0.2968091096669435,0.28120237521231173,0.008415361645817757
1739817466508739300,11.1307392578125,-0.31780572046637534,0.2879720154777169,0.04751465190146118
1739817466518810400,11.140810302734375,-0.30077333712279797,0.2655462486580014,0.0724970444014296
1739817466528881400,11.15088134765625,-0.21920915263593196,0.23501550131589172,0.1022286772551015
1739817466538953200,11.160953125,-0.0964256535321474,0.17405834378898144,0.12105685797426849
1739817466549024300,11.171024169921875,0.04472118525803089,0.07770955488532781,0.12168025056961923
1739817466559095300,11.18109521484375,0.17111936772763728,-0.05772592052072286,0.1262565455092117
1739817466569166000,11.191166015625,0.2617676069021225,-0.1622036553442478,0.07289528647139668
1739817466579237000,11.201237060546875,0.2804717228502035,-0.24447949523180723,-0.009580423369817435
1739817466589308200,11.21130810546875,0.2918295676887035,-0.3319944048166275,-0.07849876903425902
1739817466599379200,11.221379150390625,0.29680852514505385,-0.4165966418251395,-0.09367211704030633
1739817466609450200,11.2314501953125,0.2443786652058363,-0.4763695580035448,-0.10230864715613425
1739817466619521300,11.241521240234375,0.19152619594037532,-0.5190802802219987,-0.10705467263944446
1739817466629592000,11.251592041015625,0.1673100385725498,-0.5426446956828236,-0.12727390585821122
1739817466639664400,11.261664306640625,0.17832710714936256,-0.593512128610909,-0.133609502087906
1739817466649735200,11.271735107421875,0.2101093158572912,-0.6506178714066744,-0.13734459696300327
1739817466659806200,11.28180615234375,0.21255553996562956,-0.7108075516924262,-0.10742463846299796
1739817466669877200,11.291877197265626,0.2266091997593641,-0.7497811332091688,-0.10155096065662801
1739817466679948300,11.3019482421875,0.24330022231936455,-0.7175956043973565,-0.12251732244826853
1739817466690019300,11.312019287109376,0.1961801592260599,-0.6750307203903794,-0.12092490215767174
1739817466700090400,11.32209033203125,0.12988134841024876,-0.6655673109963536,-0.07984894153419882
1739817466710161200,11.3321611328125,0.024303835651278496,-0.6467550584986805,-0.044998139035888014
1739817466720232200,11.342232177734376,-0.07568564784228801,-0.5705290201693773,0.011283427895419298
1739817466730304300,11.35230419921875,-0.16465397110581398,-0.5024392342835664,0.07388996006455271
1739817466740375300,11.362375244140624,-0.19339958859682083,-0.43890258165746926,0.123176663139835
1739817466750446300,11.3724462890625,-0.17691607130765913,-0.40213264766484497,0.1776820507114753
1739817466760517400,11.382517333984374,-0.13601941277384758,-0.37144612523913384,0.21435805934295057
1739817466770588400,11.39258837890625,-0.06537643527388572,-0.35517595843970773,0.18945538101568818
1739817466780659200,11.4026591796875,0.02760579980611801,-0.341482656390965,0.11773359530307352
1739817466790730200,11.412730224609374,0.09340425988435745,-0.34957799230217934,0.030104850080236792
1739817466800801300,11.42280126953125,0.1616162108451128,-0.37752836776226756,-0.05160429583527147
1739817466810872300,11.432872314453125,0.2183832232058048,-0.4055778196826577,-0.11584668557792901
1739817466820943400,11.442943359375,0.24476795678436755,-0.4318853963717818,-0.15365173477195201
1739817466831014400,11.453014404296875,0.33108547327816484,-0.4972960261762142,-0.14031279911883174
1739817466841086500,11.46308642578125,0.40622985385060306,-0.5639373668193817,-0.10356076610907912
1739817466851157200,11.4731572265625,0.4882458737581968,-0.6113613812953234,-0.04564962521456182
1739817466861228300,11.483228271484375,0.47251112900972364,-0.6820163414940238,0.024586817311123013
1739817466871299300,11.49329931640625,0.5042290403097868,-0.6882496829256415,0.02947429709173739
1739817466881370400,11.503370361328125,0.571833088505268,-0.7055471469461917,0.08784209571257233
1739817466891441400,11.51344140625,0.6277309168159961,-0.8804442796468734,0.2747333983939141
1739817466901512400,11.523512451171875,0.5539028795391321,-1.0043810404390097,0.4274763477578759
1739817466911583200,11.533583251953125,0.41557694338858125,-1.0168009615510702,0.44560507497079666
1739817466921654300,11.543654296875,0.18170915080308914,-0.9968933150321244,0.4091309090543538
1739817466931725300,11.553725341796875,-0.23678221872746943,-0.9900240137845278,0.336703093964234
1739817466941796400,11.56379638671875,-0.7435702958703041,-0.9073568364918232,0.1927593909971416
1739817466951868400,11.573868408203126,-1.2696148621469736,-0.7955877756163477,-0.03758950674720108
1739817466961939500,11.583939453125,-1.8026912267565727,-0.6655906918719411,-0.2654199919298291
1739817466972010500,11.594010498046876,-2.32461842084229,-0.5215475471183657,-0.48700047680698333
1739817466982081500,11.60408154296875,-2.771008435645699,-0.4119000084415078,-0.6808411602348089
1739817466992152300,11.61415234375,-3.0320126569598913,-0.27794980315715073,-0.8147006184957921
1739817467002223400,11.624223388671876,-3.0764515181452032,-0.09879296718537807,-0.8877291759580374
1739817467012294400,11.63429443359375,-2.8968016379594803,0.0853279209345579,-0.9027056496851146
1739817467022365400,11.644365478515626,-2.3719266999840736,0.21447394080758095,-0.8923945374205708
1739817467032436500,11.6544365234375,-1.7331594253689049,0.2852309000760317,-0.8188871834654361
1739817467042507500,11.664507568359374,-1.1181804380983114,0.29557021552175283,-0.7396278418548404
1739817467052578300,11.674578369140624,-0.5264537315994501,0.34365678555965423,-0.6672606709107757
1739817467062649300,11.6846494140625,-0.07813304099440574,0.39618747552484274,-0.6192200589064508
1739817467072721200,11.69472119140625,0.34464988825023174,0.44987230396121736,-0.5924360968772322
1739817467082792200,11.704792236328124,0.664361734598875,0.49960810251086946,-0.5182974592812359
1739817467092863200,11.71486328125,0.88942136682868,0.5281850854367017,-0.4122634349264204
1739817467102933800,11.724933837890624,1.0533259808719158,0.5378948708072304,-0.3157208770163357
1739817467113004800,11.7350048828125,1.190315699982643,0.5707920550197363,-0.2095840498741716
1739817467123075800,11.745075927734375,1.300714933809638,0.627177082325518,-0.14520035196468234
1739817467133147000,11.75514697265625,1.375327983984351,0.635730098876357,-0.17349902940578757
1739817467143218000,11.765218017578125,1.4118407283455132,0.6625175680369139,-0.23851313417330383
1739817467153289000,11.7752890625,1.4040069659799337,0.6755217187777162,-0.34883046187050637
1739817467163360000,11.785360107421875,1.3074965567737817,0.6999769455984235,-0.4377311267253011
1739817467173430800,11.7954306640625,1.0407768804222344,0.7115981175482272,-0.4649897935941815
1739817467183501800,11.805501708984375,0.6427063676297664,0.7326648709744215,-0.5029669844847172
1739817467193572900,11.81557275390625,0.28804245036542414,0.8402855799987912,-0.580271757961437
1739817467203644700,11.825644775390625,-0.04420329886376857,0.9708356214508413,-0.6633199704609811
1739817467213715700,11.8357158203125,-0.37334348329305644,1.063788045914471,-0.6694634416520595
1739817467223786800,11.845786865234375,-0.6397095239013433,1.11242903496474,-0.608556114616245
1739817467233857800,11.85585791015625,-0.8606658124655485,1.1947151039853692,-0.5199958606969565
1739817467243928800,11.8659287109375,-1.0080407319903373,1.3010650624215603,-0.35700996893383563
1739817467253999600,11.87599951171875,-1.0783177987873553,1.3964242557659745,-0.1316214700758457
1739817467264070700,11.886070556640625,-1.0841273618489504,1.4867951393038032,0.11428469695821404
1739817467274141700,11.8961416015625,-0.963307271772623,1.5705255619138478,0.3033904608186334
1739817467284212700,11.906212646484375,-0.7198322774082422,1.6146461509302257,0.413302641781047
1739817467294283800,11.91628369140625,-0.34567981581985946,1.6439447261288762,0.49823959063664075
1739817467304354800,11.926354736328125,-0.003479658809304237,1.543721433879435,0.4917408032018691
1739817467314425600,11.936425537109375,0.3074848174601793,1.4120751216232776,0.5046106600385158
1739817467324496600,11.94649658203125,0.511699814581871,1.2854063055187464,0.5199451534230262
1739817467334567700,11.956567626953126,0.5653361277014016,1.190479950633645,0.5033570797808468
1739817467344638700,11.966638671875,0.6137924078345298,1.140626370923221,0.5015240922000259
1739817467354710800,11.976710693359376,0.706540834158659,1.150542784781754,0.4592343718726188
1739817467364781800,11.98678173828125,0.6109001935243606,1.149194585043192,0.3770565855320543
1739817467374852900,11.996852783203124,0.5150590618818998,1.1061308116033672,0.3457635485805571
1739817467384923600,12.006923583984374,0.44449441031515596,1.0732499940037727,0.35305260961018503
1739817467394994700,12.01699462890625,0.2684814253270626,1.0739745088860393,0.3622477965220809
1739817467405065700,12.027065673828124,0.08017185334563255,1.0794307284653186,0.359957347497344
1739817467415136800,12.03713671875,-0.052477206212282176,1.0754001577749848,0.3683183486074209
1739817467425207800,12.047207763671874,-0.17970424072146415,1.0360936910420655,0.3559630171641707
1739817467435278800,12.05727880859375,-0.2996025397777557,0.9590203882336616,0.330349414088577
1739817467445349600,12.067349609375,-0.4186795855790376,0.885864843390882,0.27125110923610624
1739817467455420700,12.077420654296875,-0.5435936669707297,0.8788584717601537,0.17801606843881307
1739817467465491700,12.08749169921875,-0.7116963172256946,0.8541805420994758,0.10340206841602921
1739817467475562800,12.097562744140625,-0.856190712878108,0.8235928038731217,0.04166705838441848
1739817467485633800,12.1076337890625,-0.9186644124478102,0.8105214331150055,0.036899990113079546
1739817467495704800,12.117704833984375,-0.929418446174264,0.8016188724741339,0.10179076076187193
1739817467505777000,12.12777685546875,-0.8299766596913337,0.759437727087736,0.18139416656978427
1739817467515847700,12.13784765625,-0.628480858400464,0.691680241896212,0.24371830160096286
1739817467525918700,12.147918701171875,-0.4006289651036262,0.5833244965955615,0.2889187217433005
1739817467535989800,12.15798974609375,-0.19007833521962164,0.42400282642841336,0.3033396804794669
1739817467546060800,12.168060791015625,-0.013621698117256163,0.25726386574208737,0.2590480457451194
1739817467556131800,12.1781318359375,0.12447685901820658,0.13048428273946047,0.1598266240146011
1739817467566203000,12.188202880859375,0.18074936586022375,0.024757424637675284,0.074269205173105
1739817467576273700,12.198273681640625,0.19141455225944518,-0.06766045455783605,-0.0447516534615308
1739817467586344700,12.2083447265625,0.1754272940546274,-0.14546762459874152,-0.18200455355308948
1739817467596415700,12.218415771484375,0.11459960812628268,-0.17794979826956986,-0.302281622793898
1739817467606486800,12.22848681640625,0.046803252229094504,-0.19433277779370545,-0.4060234445583075
1739817467616557800,12.238557861328125,-0.038222470888495445,-0.2033610106408596,-0.49095126025937497
1739817467626628900,12.24862890625,-0.11528934395611286,-0.18862229119241236,-0.5384058160040527
1739817467636700000,12.258699951171875,-0.17175357397794722,-0.13843874887526034,-0.5456687927443534
1739817467646770700,12.268770751953125,-0.23514146578311917,-0.0942538624510169,-0.5050088655758649
1739817467656841700,12.278841796875,-0.29569325737953184,-0.05689443813264369,-0.4499184081252664
1739817467666912800,12.288912841796876,-0.308902867564559,-0.01668050116598606,-0.37011801844052966
1739817467676983800,12.29898388671875,-0.33249709364175795,0.05108049115687609,-0.2225969684433192
1739817467687054800,12.309054931640626,-0.3595587035685777,0.13191957623958586,-0.1005848190382123
1739817467697126000,12.3191259765625,-0.33710371065437794,0.20049919146895406,0.009556932896375655
1739817467707198000,12.329197998046874,-0.29220716882944103,0.26244097611904144,0.08031528040431439
1739817467717268700,12.339268798828124,-0.26061960591077804,0.29173049122840167,0.1480281227365136
1739817467727339800,12.34933984375,-0.2245183649599552,0.3218073573231697,0.17745631566420197
1739817467737410800,12.359410888671874,-0.16949673496186732,0.3517565053850412,0.17991583764553068
1739817467747481900,12.36948193359375,-0.14788754522204398,0.36525370033979415,0.1473515386492014
1739817467757553000,12.379552978515624,-0.1409410870850086,0.37039457035958767,0.1304845750004053
1739817467767624000,12.3896240234375,-0.11235855120122432,0.3419263085052371,0.07853994129486382
1739817467777694700,12.39969482421875,-0.09017126931250095,0.33059827428311106,0.006453998444974422
1739817467787765800,12.409765869140625,-0.0876022956073284,0.3414572296887636,-0.014504983757808804
1739817467797836800,12.4198369140625,-0.07404489489793777,0.28380349762141704,-0.0053194414570927615
1739817467807907800,12.429907958984375,-0.08823767090141772,0.21574381461292505,0.0016132073502987622
