time,seconds_elapsed,z,y,x
1739817455399987500,0.021987548828125,0.3542194366455078,0.011069552972912788,0.25588181614875793
1739817455410059500,0.0320595703125,0.3097074031829834,-0.0195139292627573,0.2904112935066223
1739817455420131300,0.04213134765625,0.2697101831436157,-0.10147696733474731,0.3147941529750824
1739817455430202400,0.052202392578125,0.24324172735214233,-0.13314025104045868,0.32268214225769043
1739817455440274400,0.0622744140625,0.21679545938968658,-0.1391078531742096,0.3213396370410919
1739817455450346500,0.072346435546875,0.1940624713897705,-0.13502033054828644,0.31144434213638306
1739817455460417500,0.08241748046875,0.16911904513835907,-0.139274463057518,0.3024172782897949
1739817455470489600,0.092489501953125,0.15547683835029602,-0.15785476565361023,0.2928294241428375
1739817455480561400,0.1025615234375,0.14813929796218872,-0.1599871665239334,0.29142487049102783
1739817455490633500,0.112633544921875,0.1366479992866516,-0.13580097258090973,0.28820598125457764
1739817455500704500,0.12270458984375,0.11594218760728836,-0.09696488827466965,0.2982354462146759
1739817455510776600,0.132776611328125,0.0929645374417305,-0.03736544027924538,0.32069632411003113
1739817455520848600,0.1428486328125,0.08164183795452118,0.0462769940495491,0.3339884281158447
1739817455530919400,0.15291943359375,0.076774463057518,0.12503771483898163,0.3358832895755768
1739817455540991500,0.162991455078125,0.07290861755609512,0.1870446354150772,0.32287296652793884
1739817455551063600,0.1730634765625,0.07100490480661392,0.2137882262468338,0.3057136535644531
1739817455561134600,0.183134521484375,0.06351982802152634,0.22057849168777466,0.2877216041088104
1739817455571206700,0.19320654296875,0.05212521180510521,0.20853999257087708,0.2535472512245178
1739817455581278500,0.203278564453125,0.041629426181316376,0.16470515727996826,0.19994527101516724
1739817455591349500,0.213349609375,0.03300223499536514,0.07659301161766052,0.14946851134300232
1739817455601421600,0.223421630859375,0.022949067875742912,-0.0203109011054039,0.10010869055986404
1739817455611493600,0.23349365234375,0.011150061152875423,-0.1023915708065033,0.06614023447036743
1739817455621565700,0.243565673828125,-0.0004400154575705528,-0.15995685756206512,0.045704737305641174
1739817455631636700,0.25363671875,-0.010076867416501045,-0.2298065423965454,0.020166322588920593
1739817455641708500,0.26370849609375,-0.017061538994312286,-0.26633524894714355,-0.006651974283158779
1739817455651780600,0.273780517578125,-0.019620025530457497,-0.24436412751674652,-0.019184179604053497
1739817455661851600,0.2838515625,-0.020703665912151337,-0.19304874539375305,-0.04363039880990982
1739817455671923700,0.293923828125,-0.021169161424040794,-0.14980435371398926,-0.06314126402139664
1739817455681995500,0.30399560546875,-0.010485623963177204,-0.09878377616405487,-0.07049611210823059
1739817455692066300,0.31406640625,-0.003646627301350236,-0.06429341435432434,-0.06742484867572784
1739817455702138600,0.324138671875,-0.009409974329173565,-0.061978332698345184,-0.04691184684634209
1739817455712210700,0.334210693359375,-0.020667046308517456,-0.05927647650241852,-0.020289761945605278
1739817455722281500,0.344281494140625,-0.0325990691781044,-0.056376297026872635,0.003055507317185402
1739817455732353500,0.354353515625,-0.029886364936828613,-0.0691160261631012,0.02520645037293434
1739817455742425300,0.36442529296875,-0.030810214579105377,-0.09247567504644394,0.04172550514340401
1739817455752496400,0.374496337890625,-0.04138597100973129,-0.11554177105426788,0.059214621782302856
1739817455762568400,0.384568359375,-0.05653855949640274,-0.12735103070735931,0.06758785992860794
1739817455772640500,0.394640625,-0.07398826628923416,-0.12259764969348907,0.06480976939201355
1739817455782711600,0.404711669921875,-0.08906441926956177,-0.11693789809942245,0.05175628513097763
1739817455792783600,0.41478369140625,-0.10876887291669846,-0.11207709461450577,0.04040878266096115
1739817455802855400,0.42485546875,-0.12808877229690552,-0.0879773497581482,0.0343458317220211
1739817455812927500,0.434927490234375,-0.14038336277008057,-0.039885349571704865,0.027058647945523262
1739817455822998500,0.44499853515625,-0.14329925179481506,0.0011065583676099777,0.020051337778568268
1739817455833070600,0.455070556640625,-0.1473211944103241,0.033249594271183014,0.025155827403068542
1739817455843142400,0.465142333984375,-0.15660950541496277,0.052577219903469086,0.03607718273997307
1739817455853213400,0.47521337890625,-0.15523700416088104,0.05768367275595665,0.05347587168216705
1739817455863285500,0.485285400390625,-0.15927675366401672,0.04422831907868385,0.06725266575813293
1739817455873357600,0.495357666015625,-0.16675768792629242,0.018185660243034363,0.08276398479938507
1739817455883428600,0.5054287109375,-0.16783680021762848,-0.015786420553922653,0.09729472547769547
1739817455893500700,0.515500732421875,-0.16607308387756348,-0.03879311680793762,0.09630949795246124
1739817455903572500,0.525572509765625,-0.16185437142848969,-0.04712561517953873,0.09182658791542053
1739817455913643500,0.5356435546875,-0.15602779388427734,-0.04963308572769165,0.07339710742235184
1739817455923715600,0.545715576171875,-0.14588302373886108,-0.03607892617583275,0.053891848772764206
1739817455933787600,0.55578759765625,-0.13582313060760498,-0.01098164077848196,0.028197161853313446
1739817455943858700,0.565858642578125,-0.13026085495948792,0.015792183578014374,0.02068997733294964
1739817455953930500,0.575930419921875,-0.13104389607906342,0.028001541271805763,0.01979844830930233
1739817455964002600,0.58600244140625,-0.12608349323272705,0.027052389457821846,0.025847554206848145
1739817455974073600,0.596073486328125,-0.1242535337805748,0.014378831721842289,0.0442526638507843
1739817455984145700,0.606145751953125,-0.1249970868229866,-0.023958168923854828,0.05288822948932648
1739817455994217700,0.6162177734375,-0.12705211341381073,-0.059393033385276794,0.043936409056186676
1739817456004288500,0.62628857421875,-0.1255519539117813,-0.0542488731443882,0.03287336975336075
1739817456014360600,0.636360595703125,-0.12270954251289368,-0.045346975326538086,0.017294811084866524
1739817456024432600,0.6464326171875,-0.1143815740942955,-0.01841416209936142,-0.005038990639150143
1739817456034503400,0.65650341796875,-0.10544140636920929,0.0164786446839571,-0.022512655705213547
1739817456044575500,0.666575439453125,-0.08962196111679077,0.04247722402215004,-0.033809516578912735
1739817456054647600,0.6766474609375,-0.0759134292602539,0.05744188278913498,-0.03565654903650284
1739817456064718600,0.686718505859375,-0.06425118446350098,0.071787528693676,-0.035396091639995575
1739817456074790400,0.696790283203125,-0.050621017813682556,0.09244386851787567,-0.02873046323657036
1739817456084862500,0.706862548828125,-0.04079821705818176,0.10006344318389893,-0.013359494507312775
1739817456094933800,0.716933837890625,-0.039472371339797974,0.10502801835536957,-0.0026860833168029785
1739817456105005800,0.727005859375,-0.03161711245775223,0.09874136000871658,0.012840410694479942
1739817456115077600,0.73707763671875,-0.029082393273711205,0.06812096387147903,0.022445498034358025
1739817456125148400,0.7471484375,-0.02977534756064415,0.031836189329624176,0.02367215044796467
1739817456135220500,0.757220458984375,-0.03308042138814926,0.000812876969575882,0.013362384401261806
1739817456145292500,0.76729248046875,-0.030346952378749847,-0.008265838958323002,0.004010162316262722
1739817456155363600,0.777363525390625,-0.02690311148762703,-0.014561453834176064,-0.006098788231611252
1739817456165435600,0.787435546875,-0.023985352367162704,-0.014577964320778847,-0.009778212755918503
1739817456175507500,0.797507568359375,-0.020280834287405014,-0.012466657906770706,0.0016338294371962547
1739817456185578500,0.80757861328125,-0.01989014819264412,-0.0006547402590513229,0.018209343776106834
1739817456195650600,0.817650634765625,-0.029005205258727074,0.010550337843596935,0.03595026582479477
1739817456205722600,0.82772265625,-0.03874305263161659,0.0182492695748806,0.06186841428279877
1739817456215793700,0.837793701171875,-0.05026987940073013,0.014422694221138954,0.08084743469953537
1739817456225865700,0.84786572265625,-0.060523051768541336,-0.010450164787471294,0.1004195362329483
1739817456235936800,0.857936767578125,-0.07125593721866608,-0.03584141656756401,0.09395936131477356
1739817456246008600,0.868008544921875,-0.08628734946250916,-0.036904819309711456,0.06697755306959152
1739817456256080600,0.87808056640625,-0.09915907680988312,-0.020949672907590866,0.04118190333247185
1739817456266151700,0.888151611328125,-0.09853323549032211,-0.01474290993064642,0.010317729786038399
1739817456276223700,0.8982236328125,-0.09275004267692566,-0.0059037827886641026,-0.013569489121437073
1739817456286295600,0.908295654296875,-0.08760614693164825,0.0022859699092805386,-0.016871541738510132
1739817456296366600,0.91836669921875,-0.07490357756614685,0.0015171058475971222,-0.00601417850703001
1739817456306438700,0.928438720703125,-0.06219204142689705,-0.010480701923370361,0.016499651595950127
1739817456316510700,0.9385107421875,-0.05559892579913139,-0.024930790066719055,0.0544295459985733
1739817456326581800,0.948581787109375,-0.04926566407084465,-0.037626612931489944,0.10022472590208054
1739817456336653800,0.95865380859375,-0.040533218532800674,-0.04800259694457054,0.143692746758461
1739817456346725600,0.9687255859375,-0.03106195293366909,-0.07051509618759155,0.16662602126598358
1739817456356796700,0.978796630859375,-0.03258529305458069,-0.0910111740231514,0.1577182412147522
1739817456366868700,0.98886865234375,-0.02189190313220024,-0.08497565239667892,0.13249996304512024
1739817456376940800,0.99894091796875,-0.005397334694862366,-0.060697589069604874,0.09872978925704956
1739817456387011600,1.009011474609375,0.004343975801020861,-0.04508054628968239,0.05170741677284241
1739817456397083600,1.019083740234375,0.008385654538869858,-0.01673506200313568,0.010880245827138424
1739817456407155500,1.029155517578125,0.009512703865766525,0.01583699882030487,-0.01938711106777191
1739817456417226500,1.0392265625,0.012514021247625351,0.03873712196946144,-0.0199918020516634
1739817456427298600,1.049298583984375,0.021874498575925827,0.03657090663909912,-0.011811371892690659
1739817456437369600,1.05936962890625,0.022858863696455956,0.01584012620151043,0.007185400929301977
1739817456447441700,1.069441650390625,0.015651017427444458,-0.023856420069932938,0.026144709438085556
1739817456457513500,1.079513427734375,0.009420888498425484,-0.06975790113210678,0.040346939116716385
1739817456467584500,1.08958447265625,0.003921460825949907,-0.12288956344127655,0.053335174918174744
1739817456477656600,1.099656494140625,0.0005990145727992058,-0.15969763696193695,0.059131063520908356
1739817456487728600,1.109728759765625,-0.0014529512263834476,-0.16217836737632751,0.048472024500370026
1739817456497799700,1.119799560546875,0.007239429745823145,-0.13014817237854004,0.03254106640815735
1739817456507871700,1.129871826171875,0.016558628529310226,-0.07885515689849854,0.00502315629273653
1739817456517943600,1.139943603515625,0.030507991090416908,-0.022956304252147675,-0.02170189656317234
1739817456528014600,1.1500146484375,0.043425653129816055,0.018079545348882675,-0.03475138545036316
1739817456538086700,1.160086669921875,0.05442341789603233,0.032796863466501236,-0.038633428514003754
1739817456548158700,1.17015869140625,0.06048078089952469,0.02071942761540413,-0.032324135303497314
1739817456558229800,1.180229736328125,0.05519126355648041,-0.007998351007699966,-0.022791460156440735
1739817456568301600,1.190301513671875,0.048257987946271896,-0.04533400759100914,-0.013452820479869843
1739817456578372600,1.20037255859375,0.03208557516336441,-0.08503854274749756,-0.017516592517495155
1739817456588444700,1.210444580078125,0.01703312247991562,-0.1024220660328865,-0.02127751149237156
1739817456598516700,1.220516845703125,0.006861345376819372,-0.0980987548828125,-0.0288018099963665
1739817456608587800,1.230587890625,0.0031009619124233723,-0.08246360719203949,-0.025223322212696075
1739817456618659800,1.240659912109375,0.003515562042593956,-0.05185684934258461,-0.025008825585246086
1739817456628731600,1.250731689453125,0.014036114327609539,-0.021739158779382706,-0.02388736791908741
1739817456638802400,1.260802490234375,0.020502563565969467,-0.001439336221665144,-0.02770666778087616
1739817456648874500,1.27087451171875,0.028018005192279816,0.017297066748142242,-0.023765187710523605
1739817456658945500,1.280945556640625,0.03839435055851936,0.015431073494255543,-0.018963534384965897
1739817456669017600,1.291017578125,0.04559287428855896,0.006191235035657883,-0.007833384908735752
1739817456679089700,1.301089599609375,0.05056077241897583,-0.010815594345331192,-0.007017713040113449
1739817456689160700,1.31116064453125,0.03936457633972168,-0.03511374443769455,-0.0018493160605430603
1739817456699232500,1.321232421875,0.026140641421079636,-0.06818651407957077,0.0013654036447405815
1739817456709304600,1.3313046875,0.017699750140309334,-0.07852064073085785,0.010065950453281403
1739817456719375600,1.341375732421875,0.01644824631512165,-0.058521028608083725,0.023421501740813255
1739817456729447700,1.35144775390625,0.021469103172421455,-0.03369823843240738,0.03288690745830536
1739817456739518700,1.361518798828125,0.026909086853265762,0.004524821415543556,0.038435015827417374
1739817456749590500,1.371590576171875,0.027000170201063156,0.032746873795986176,0.02757411077618599
1739817456759662600,1.38166259765625,0.023502424359321594,0.04073277488350868,0.010246144607663155
1739817456769733600,1.391733642578125,0.011780520901083946,0.042681410908699036,-0.01411858294159174
1739817456779805700,1.4018056640625,0.0006702258251607418,0.04640980437397957,-0.02610691636800766
1739817456789877800,1.411877685546875,-0.008838590234518051,0.03895721584558487,-0.03002176061272621
1739817456799948800,1.42194873046875,0.0004760599695146084,0.025093229487538338,-0.03397940471768379
1739817456810020600,1.4320205078125,0.004609019961208105,0.03140944987535477,-0.02651909366250038
1739817456820091600,1.442091552734375,0.016750527545809746,0.025706056505441666,-0.016053806990385056
1739817456830163700,1.452163818359375,0.02242465876042843,0.018899552524089813,-0.014624490402638912
1739817456840235800,1.46223583984375,0.02811606600880623,0.012704582884907722,-0.017772195860743523
1739817456850306800,1.472306884765625,0.024169795215129852,0.0067462925799191,-0.023982686921954155
1739817456860378600,1.482378662109375,0.01581481844186783,0.00013463804498314857,-0.03145843371748924
1739817456870449700,1.49244970703125,0.00787833146750927,-0.008050587028265,-0.03979572653770447
1739817456880521500,1.502521484375,-0.0019252083729952574,-0.017252562567591667,-0.04506824165582657
1739817456890593500,1.512593505859375,-0.007094404194504023,-0.021219607442617416,-0.042528651654720306
1739817456900664600,1.52266455078125,-0.015234027989208698,-0.030114643275737762,-0.03679738938808441
1739817456910736600,1.532736572265625,-0.01575840450823307,-0.02738863229751587,-0.02679269388318062
1739817456920808400,1.542808349609375,-0.004532034043222666,-0.02493376098573208,-0.020511511713266373
1739817456930879500,1.55287939453125,0.008700413629412651,-0.022808026522397995,-0.019676610827445984
1739817456940951600,1.56295166015625,0.019088013097643852,-0.011124128475785255,-0.019505508244037628
1739817456951022600,1.573022705078125,0.024472923949360847,-0.005343471188098192,-0.022849638015031815
1739817456961094700,1.5830947265625,0.030157629400491714,0.00195961631834507,-0.029930952936410904
1739817456971166700,1.593166748046875,0.028728842735290527,0.00007116887718439102,-0.03337734937667847
1739817456981237800,1.60323779296875,0.036748211830854416,-0.006735684350132942,-0.03401210531592369
1739817456991309600,1.6133095703125,0.042271874845027924,-0.01068861410021782,-0.02323136106133461
1739817457001380600,1.623380615234375,0.053913362324237823,-0.012956975027918816,-0.0010840967297554016
1739817457011452700,1.63345263671875,0.05841251090168953,-0.0174273569136858,0.02643328160047531
1739817457021524700,1.643524658203125,0.05737923085689545,-0.00716471066698432,0.04679460823535919
1739817457031595800,1.653595703125,0.05979018658399582,0.005022979807108641,0.05093875527381897
1739817457041667600,1.66366748046875,0.05609484761953354,0.024103384464979172,0.052152495831251144
1739817457051738600,1.673738525390625,0.052949387580156326,0.033578649163246155,0.0417666994035244
1739817457061810700,1.683810791015625,0.04911122843623161,0.0410582609474659,0.02496630698442459
1739817457071882800,1.6938828125,0.04987822100520134,0.05095536634325981,0.010541826486587524
1739817457081953500,1.70395361328125,0.04834740608930588,0.047479938715696335,0.004123552702367306
1739817457092025300,1.714025390625,0.034729864448308945,0.02765057235956192,-0.0000791819766163826
1739817457102096400,1.724096435546875,0.018318749964237213,0.01959344744682312,-0.0037299729883670807
1739817457112168200,1.734168212890625,-0.007398329675197601,0.011364279314875603,-0.009538860991597176
1739817457122240300,1.744240234375,-0.03486655652523041,0.003956511151045561,-0.010654945857822895
1739817457132311300,1.754311279296875,-0.05171344429254532,0.006067865062505007,-0.014736506156623363
1739817457142383400,1.76438330078125,-0.06063494831323624,0.007500883657485247,-0.01982622779905796
1739817457152455400,1.774455322265625,-0.05608759820461273,0.0034390310756862164,-0.03120378591120243
1739817457162526500,1.7845263671875,-0.04503915086388588,0.0071796271950006485,-0.044479768723249435
1739817457172598300,1.794598388671875,-0.026167457923293114,0.0049945032224059105,-0.05337579548358917
1739817457182669000,1.8046689453125,-0.014758508652448654,0.0015252307057380676,-0.05889149755239487
1739817457192741000,1.8147412109375,-0.012552611529827118,0.0035249991342425346,-0.06380582600831985
1739817457202812200,1.824812255859375,-0.011877626180648804,0.008261666633188725,-0.06233822926878929
1739817457212884200,1.83488427734375,-0.022587262094020844,-0.004692748188972473,-0.06309030950069427
1739817457222956300,1.844956298828125,-0.035913869738578796,-0.02366606704890728,-0.0688171535730362
1739817457233027300,1.85502734375,-0.04905896633863449,-0.027076510712504387,-0.0665992796421051
1739817457243099100,1.86509912109375,-0.059487536549568176,-0.02764732763171196,-0.06699804961681366
1739817457253170200,1.875170166015625,-0.06818275898694992,-0.029980257153511047,-0.06350398808717728
1739817457263242200,1.8852421875,-0.06526032835245132,-0.027746692299842834,-0.06103450804948807
1739817457273314300,1.895314208984375,-0.05322257801890373,-0.03212146833539009,-0.05977509915828705
1739817457283385300,1.90538525390625,-0.041102081537246704,-0.03956824913620949,-0.06252007186412811
1739817457293457200,1.91545703125,-0.03164253383874893,-0.04011792689561844,-0.07042060792446136
1739817457303528200,1.925528076171875,-0.019101161509752274,-0.03221958503127098,-0.07053765654563904
1739817457313600300,1.935600341796875,-0.01624438911676407,-0.02082924358546734,-0.05388651415705681
1739817457323672300,1.94567236328125,-0.01660292223095894,-0.0012054149992763996,-0.03242696076631546
1739817457333743400,1.955743408203125,-0.017191212624311447,0.011298660188913345,-0.015360891819000244
1739817457343815400,1.9658154296875,-0.010004300624132156,0.009145756252110004,0.010723071172833443
1739817457353886500,1.975886474609375,0.0034478590823709965,-0.023126963526010513,0.022581061348319054
1739817457363958300,1.985958251953125,0.01187642477452755,-0.04656289517879486,0.01853312738239765
1739817457374029000,1.996029052734375,0.023671830072999,-0.0620233453810215,0.008796344511210918
1739817457384101000,2.00610107421875,0.02616318129003048,-0.06737981736660004,-0.0030552158132195473
1739817457394173200,2.016173095703125,0.021019285544753075,-0.04970308765769005,-0.0037718722596764565
1739817457404244200,2.026244140625,0.010488024912774563,-0.02013339474797249,0.004792177118360996
1739817457414316300,2.03631640625,0.0011496501974761486,-0.007059405092149973,0.016204088926315308
1739817457424387300,2.04638720703125,-0.006380421109497547,-0.012150906026363373,0.03222598135471344
1739817457434459100,2.056459228515625,-0.007849954068660736,-0.02543582022190094,0.048622798174619675
1739817457444531200,2.06653125,-0.009671482257544994,-0.047978971153497696,0.05104273930191994
1739817457454602200,2.076602294921875,-0.015738695859909058,-0.07159322500228882,0.04390013962984085
1739817457464674300,2.08667431640625,-0.0308291707187891,-0.08518147468566895,0.029873544350266457
1739817457474745300,2.096745361328125,-0.06126989796757698,-0.08799963444471359,0.01900571584701538
1739817457484817200,2.106817138671875,-0.09427092969417572,-0.08227095007896423,0.005429648794233799
1739817457494888200,2.11688818359375,-0.12540967762470245,-0.0737280547618866,-0.0017217369750142097
1739817457504960300,2.126960205078125,-0.15130740404129028,-0.06645432859659195,-0.0006806850433349609
1739817457515032300,2.1370322265625,-0.16790689527988434,-0.06059989705681801,-0.0031148139387369156
1739817457525103400,2.147103271484375,-0.175461545586586,-0.05599476024508476,-0.0062882378697395325
1739817457535175400,2.157175537109375,-0.17453503608703613,-0.05046417564153671,-0.018582988530397415
1739817457545246500,2.16724658203125,-0.16627155244350433,-0.03295673802495003,-0.03436049818992615
1739817457555318300,2.177318359375,-0.15579015016555786,-0.02370944619178772,-0.047697342932224274
1739817457565389000,2.18738916015625,-0.14746327698230743,-0.019542373716831207,-0.05308874696493149
1739817457575461000,2.197461181640625,-0.13779067993164062,-0.019390840083360672,-0.05411592870950699
1739817457585533200,2.207533203125,-0.12977077066898346,-0.027077216655015945,-0.05064230412244797
1739817457595604200,2.217604248046875,-0.12888233363628387,-0.04690977558493614,-0.03797338530421257
1739817457605676300,2.22767626953125,-0.14009514451026917,-0.05131050944328308,-0.027929984033107758
1739817457615747300,2.237747314453125,-0.15366022288799286,-0.04414713755249977,-0.008018328808248043
1739817457625819100,2.247819091796875,-0.16724631190299988,-0.02145342528820038,0.006013520061969757
1739817457635890200,2.25789013671875,-0.17729735374450684,0.005721469409763813,0.02281380444765091
1739817457645962200,2.267962158203125,-0.1846933811903,0.02788865752518177,0.04074755311012268
1739817457656034300,2.278034423828125,-0.1923539638519287,0.05405554920434952,0.0509013868868351
1739817457666105300,2.288105224609375,-0.202742338180542,0.056420713663101196,0.06161234900355339
1739817457676177200,2.29817724609375,-0.2050611525774002,0.0433560386300087,0.07394172251224518
1739817457686248200,2.308248291015625,-0.2071673423051834,0.009975302964448929,0.0974615290760994
1739817457696320300,2.3183203125,-0.20953357219696045,-0.04626080393791199,0.12163210660219193
1739817457706391300,2.328391357421875,-0.22232168912887573,-0.09156586974859238,0.13578256964683533
1739817457716463400,2.33846337890625,-0.24551676213741302,-0.14421869814395905,0.12447132170200348
1739817457726535400,2.348535400390625,-0.2767517566680908,-0.18835780024528503,0.09494601935148239
1739817457736606500,2.3586064453125,-0.3167676329612732,-0.21697266399860382,0.05174954608082771
1739817457746678300,2.36867822265625,-0.3564346432685852,-0.2313540279865265,-0.004142818972468376
1739817457756749000,2.3787490234375,-0.3922877013683319,-0.2122969776391983,-0.05713839828968048
1739817457766821000,2.388821044921875,-0.41736096143722534,-0.16480973362922668,-0.09009529650211334
1739817457776892200,2.39889208984375,-0.42920857667922974,-0.10864339023828506,-0.10598984360694885
1739817457786964200,2.408964111328125,-0.43009433150291443,-0.061647918075323105,-0.1051136702299118
1739817457797035300,2.41903515625,-0.41663312911987305,-0.012357333675026894,-0.09098772704601288
1739817457807107300,2.429107421875,-0.39236539602279663,0.03766939043998718,-0.06072066351771355
1739817457817179100,2.43917919921875,-0.3716534376144409,0.07016129046678543,-0.01694202423095703
1739817457827250200,2.449250244140625,-0.35484036803245544,0.10031956434249878,0.021959763020277023
1739817457837322200,2.459322265625,-0.3341904878616333,0.11707591265439987,0.04299633949995041
1739817457847393300,2.469393310546875,-0.30837294459342957,0.1075277104973793,0.039299678057432175
1739817457857465300,2.47946533203125,-0.2837759852409363,0.060539960861206055,0.01816589944064617
1739817457867536400,2.489536376953125,-0.27729567885398865,0.021844495087862015,-0.012973739765584469
1739817457877608200,2.499608154296875,-0.2862987518310547,-0.002114100381731987,-0.05348334461450577
1739817457887679200,2.50967919921875,-0.3059260845184326,-0.03409234806895256,-0.090610072016716
1739817457897751300,2.519751220703125,-0.3347231149673462,-0.07258301973342896,-0.12455152720212936
1739817457907823400,2.5298232421875,-0.3559938073158264,-0.07381574809551239,-0.1353217363357544
1739817457917894400,2.539894287109375,-0.3676017224788666,-0.04721715673804283,-0.13161328434944153
1739817457927966500,2.549966552734375,-0.36399003863334656,-0.02544986829161644,-0.12844693660736084
1739817457938037200,2.560037353515625,-0.341389924287796,-0.012070145457983017,-0.11412312090396881
1739817457948109000,2.570109130859375,-0.31406059861183167,-0.02167673595249653,-0.0910358652472496
1739817457958180000,2.58018017578125,-0.2908119857311249,-0.051207996904850006,-0.07190264761447906
1739817457968252200,2.590252197265625,-0.27838999032974243,-0.07505902647972107,-0.05675573647022247
1739817457978323200,2.6003232421875,-0.2730274498462677,-0.09402579069137573,-0.048635222017765045
1739817457988395300,2.610395263671875,-0.2650816738605499,-0.11499910801649094,-0.04078157618641853
1739817457998467300,2.62046728515625,-0.25497257709503174,-0.12438062578439713,-0.03598788380622864
1739817458008538400,2.630538330078125,-0.23367221653461456,-0.11598894745111465,-0.03432397544384003
1739817458018610200,2.640610107421875,-0.20827259123325348,-0.08709044754505157,-0.03133644163608551
1739817458028681200,2.65068115234375,-0.1934479922056198,-0.055680710822343826,-0.019424226135015488
1739817458038753300,2.660753173828125,-0.18062487244606018,-0.006907044909894466,-0.009670929051935673
1739817458048824300,2.67082421875,-0.17524220049381256,0.0542839914560318,0.0041778795421123505
1739817458058896400,2.680896484375,-0.15895697474479675,0.11076217889785767,0.019138719886541367
1739817458068967400,2.690967529296875,-0.12761156260967255,0.13543130457401276,0.030844377353787422
1739817458079039200,2.701039306640625,-0.08716720342636108,0.13528776168823242,0.04862949997186661
1739817458089110300,2.7111103515625,-0.0393216609954834,0.14087623357772827,0.0737299919128418
1739817458099182300,2.721182373046875,-0.0031644555274397135,0.15328817069530487,0.09288877993822098
1739817458109253400,2.73125341796875,0.025674650445580482,0.1671523153781891,0.10674040764570236
1739817458119325400,2.741325439453125,0.05088333413004875,0.17382566630840302,0.11295036971569061
1739817458129397500,2.7513974609375,0.07518734037876129,0.17071190476417542,0.11688732355833054
1739817458139468300,2.76146826171875,0.09877042472362518,0.15433505177497864,0.11985781043767929
1739817458149540000,2.7715400390625,0.11944252252578735,0.13552869856357574,0.12039845436811447
1739817458159611100,2.781611083984375,0.13356925547122955,0.11959768086671829,0.11464815586805344
1739817458169683200,2.79168310546875,0.1426655650138855,0.09890135377645493,0.10804731398820877
1739817458179754200,2.801754150390625,0.14125914871692657,0.07985043525695801,0.09778003394603729
1739817458189826300,2.811826416015625,0.13954541087150574,0.07129417359828949,0.087101511657238
1739817458199897300,2.8218974609375,0.1376045048236847,0.05438576638698578,0.07759349793195724
1739817458209969400,2.831969482421875,0.1353442668914795,0.047320231795310974,0.061606742441654205
1739817458220040400,2.84204052734375,0.12771084904670715,0.038546446710824966,0.04416356980800629
1739817458230112300,2.8521123046875,0.12490160763263702,0.0355452299118042,0.027545329183340073
1739817458240183300,2.862183349609375,0.11276930570602417,0.03655403479933739,0.015032732859253883
1739817458250255400,2.87225537109375,0.106671042740345,0.04679184779524803,0.01328066736459732
1739817458260326400,2.882326416015625,0.09936625510454178,0.058908164501190186,0.01015331782400608
1739817458270398500,2.8923984375,0.09738574177026749,0.08013487607240677,0.006183083169162273
1739817458280470300,2.90247021484375,0.10577309876680374,0.10898543149232864,-0.0020612645894289017
1739817458290541300,2.912541259765625,0.125900998711586,0.13675148785114288,-0.0052461763843894005
1739817458300613400,2.92261328125,0.15347856283187866,0.15215334296226501,-0.00014968495815992355
1739817458310684200,2.93268408203125,0.17922812700271606,0.16135849058628082,0.016845252364873886
1739817458320756200,2.942756103515625,0.20199896395206451,0.16278354823589325,0.03760965168476105
1739817458330827300,2.9528271484375,0.22332985699176788,0.14995262026786804,0.05942774936556816
1739817458340899300,2.9628994140625,0.23870961368083954,0.11473790556192398,0.07965392619371414
1739817458350970400,2.972970458984375,0.25118494033813477,0.08212783932685852,0.09219609946012497
1739817458361042200,2.983042236328125,0.2562403976917267,0.06124811992049217,0.09715544432401657
1739817458371113200,2.99311328125,0.2509899139404297,0.06743519008159637,0.11134263128042221
1739817458381185300,3.003185302734375,0.2404954582452774,0.0937991589307785,0.12449172884225845
1739817458391256300,3.01325634765625,0.2256685495376587,0.12826082110404968,0.1485069990158081
1739817458401328400,3.023328369140625,0.21391628682613373,0.1576453298330307,0.16171973943710327
1739817458411399400,3.0333994140625,0.19949820637702942,0.17361044883728027,0.16764473915100098
1739817458421471200,3.04347119140625,0.18429608643054962,0.17699798941612244,0.16132107377052307
1739817458431542300,3.053542236328125,0.17612487077713013,0.1766505241394043,0.15460875630378723
1739817458441614300,3.0636142578125,0.1637347787618637,0.18062715232372284,0.13984979689121246
1739817458451686400,3.073686279296875,0.15482892096042633,0.2155262976884842,0.12167301028966904
1739817458461757200,3.083757080078125,0.14437255263328552,0.29180482029914856,0.10756145417690277
1739817458471829500,3.09382958984375,0.14398451149463654,0.29387471079826355,0.07656992226839066
1739817458481900300,3.103900390625,0.14671850204467773,0.19733034074306488,0.030118800699710846
1739817458491972000,3.11397216796875,0.1544526368379593,0.04916528984904289,-0.0169694684445858
1739817458502043100,3.124043212890625,0.1581999808549881,-0.08571209758520126,-0.06477773934602737
1739817458512115200,3.134115234375,0.12590299546718597,-0.2153215855360031,-0.11382652074098587
1739817458522186200,3.144186279296875,0.07442169636487961,-0.3040218651294708,-0.14989052712917328
1739817458532258300,3.15425830078125,0.011501881293952465,-0.36041396856307983,-0.1777796447277069
1739817458542329300,3.164329345703125,-0.04928929731249809,-0.37443792819976807,-0.18843361735343933
1739817458552401400,3.1744013671875,-0.08498424291610718,-0.29108870029449463,-0.16750070452690125
1739817458562472400,3.184472412109375,-0.1051584854722023,-0.1333579123020172,-0.11898378282785416
1739817458572544300,3.194544189453125,-0.09968255460262299,0.03692993149161339,-0.05043776333332062
1739817458582615300,3.204615234375,-0.07685340195894241,0.19660241901874542,0.019254498183727264
1739817458592687400,3.214687255859375,-0.048224158585071564,0.33936765789985657,0.07066100090742111
1739817458602758400,3.22475830078125,-0.01859675906598568,0.42278024554252625,0.07685071974992752
1739817458612830500,3.23483056640625,0.007653925567865372,0.46670323610305786,0.06045401841402054
1739817458622901200,3.2449013671875,0.025844380259513855,0.4907313287258148,0.028549615293741226
1739817458632973300,3.254973388671875,0.030714616179466248,0.4847581088542938,0.0032442426308989525
1739817458643044400,3.26504443359375,0.02778327465057373,0.4479849338531494,-0.009484068490564823
1739817458653116200,3.2751162109375,0.030490439385175705,0.3864631652832031,-0.018672257661819458
1739817458663187200,3.285187255859375,0.03219166770577431,0.3013799488544464,-0.02373599261045456
1739817458673259300,3.29525927734375,0.029094988480210304,0.2217412292957306,-0.03185129165649414
1739817458683330300,3.305330322265625,0.01961759850382805,0.1377350091934204,-0.043981458991765976
1739817458693402400,3.31540234375,0.011427451856434345,0.05259393900632858,-0.05498000979423523
1739817458703473400,3.325473388671875,-0.00921337679028511,-0.0341915600001812,-0.07746827602386475
1739817458713545200,3.335545166015625,-0.04043333977460861,-0.11458592861890793,-0.11933877319097519
1739817458723616300,3.3456162109375,-0.08054959774017334,-0.1795460283756256,-0.17715147137641907
1739817458733688300,3.355688232421875,-0.12705521285533905,-0.21179576218128204,-0.23587192595005035
1739817458743759400,3.36575927734375,-0.1694897562265396,-0.2187623232603073,-0.28228867053985596
1739817458753831400,3.37583154296875,-0.20716749131679535,-0.20877811312675476,-0.3135144114494324
1739817458763902200,3.385902099609375,-0.22909623384475708,-0.2053450345993042,-0.3317624032497406
1739817458773974300,3.395974365234375,-0.23783829808235168,-0.20818911492824554,-0.3291110098361969
1739817458784045300,3.40604541015625,-0.23622362315654755,-0.2255105823278427,-0.3152255713939667
1739817458794117000,3.4161171875,-0.22987699508666992,-0.24535174667835236,-0.29855111241340637
1739817458804188200,3.426188232421875,-0.22959338128566742,-0.28696414828300476,-0.27149391174316406
1739817458814260200,3.43626025390625,-0.21421505510807037,-0.3232004940509796,-0.23427066206932068
1739817458824331300,3.446331298828125,-0.17820779979228973,-0.34425225853919983,-0.17492318153381348
1739817458834403300,3.4564033203125,-0.1310831606388092,-0.3584839105606079,-0.09979446977376938
1739817458844474400,3.466474365234375,-0.07679355889558792,-0.3480941355228424,-0.019124116748571396
1739817458854546400,3.47654638671875,-0.022301161661744118,-0.29514193534851074,0.05955948308110237
1739817458864617500,3.486617431640625,0.028032848611474037,-0.19989559054374695,0.13716106116771698
1739817458874689300,3.496689208984375,0.06815542280673981,-0.07612846791744232,0.21669431030750275
1739817458884760300,3.50676025390625,0.10461489111185074,0.06294260174036026,0.27941468358039856
1739817458894832400,3.516832275390625,0.13078413903713226,0.18945133686065674,0.33054956793785095
1739817458904903400,3.5269033203125,0.1422027051448822,0.2805333137512207,0.3725776970386505
1739817458914975500,3.5369755859375,0.15527531504631042,0.32391393184661865,0.40634435415267944
1739817458925046300,3.54704638671875,0.1651971936225891,0.3012602925300598,0.4294363558292389
1739817458935118000,3.5571181640625,0.17417679727077484,0.25046610832214355,0.42975595593452454
1739817458945189000,3.567189208984375,0.1698446422815323,0.16924822330474854,0.4030782878398895
1739817458955261200,3.57726123046875,0.15369845926761627,0.07438795268535614,0.36145979166030884
1739817458965332200,3.587332275390625,0.123363196849823,-0.0008277082815766335,0.30729588866233826
1739817458975404300,3.597404296875,0.07829740643501282,-0.054601382464170456,0.24992121756076813
1739817458985475300,3.607475341796875,0.02994692511856556,-0.08758783340454102,0.19197988510131836
1739817458995547400,3.61754736328125,-0.02547510154545307,-0.09012199938297272,0.13328605890274048
1739817459005618400,3.627618408203125,-0.06858475506305695,-0.07467886060476303,0.07345016300678253
1739817459015690200,3.637690185546875,-0.08796467632055283,-0.04939147084951401,0.03002750501036644
1739817459025761300,3.64776123046875,-0.1011800765991211,-0.022289808839559555,-0.003696901723742485
1739817459035833300,3.657833251953125,-0.09800922870635986,-0.014547599479556084,-0.026749517768621445
1739817459045904400,3.667904296875,-0.08476212620735168,-0.02018524520099163,-0.036566730588674545
1739817459055976400,3.6779765625,-0.06748327612876892,-0.022280672565102577,-0.04068923741579056
1739817459066047200,3.688047119140625,-0.050177790224552155,-0.02042711153626442,-0.051447875797748566
1739817459076119300,3.698119384765625,-0.037183601409196854,-0.013826098293066025,-0.06656218320131302
1739817459086190300,3.7081904296875,-0.0162879079580307,0.02405177429318428,-0.08355794847011566
1739817459096259000,3.718259033203125,0.013366036117076874,0.08836117386817932,-0.08480487763881683
1739817459106330000,3.728330078125,0.05560137331485748,0.1870528608560562,-0.06814361363649368
1739817459116402200,3.738402099609375,0.10471628606319427,0.2927338778972626,-0.03980163484811783
1739817459126473000,3.748472900390625,0.16217370331287384,0.36821770668029785,-0.009313767775893211
1739817459136544000,3.7585439453125,0.22261832654476166,0.3918885886669159,0.016148099675774574
1739817459146616000,3.768615966796875,0.2759915292263031,0.3728829324245453,0.031491901725530624
1739817459156687000,3.77868701171875,0.3161390423774719,0.3332517147064209,0.033479344099760056
1739817459166759000,3.788759033203125,0.33381152153015137,0.28499311208724976,0.029091786593198776
1739817459176830000,3.798829833984375,0.3347359299659729,0.20796425640583038,0.008007005788385868
1739817459186902000,3.808902099609375,0.3252350986003876,0.11117806285619736,-0.016096200793981552
1739817459196973000,3.81897314453125,0.3089745044708252,0.010376270860433578,-0.039322152733802795
1739817459207045000,3.829045166015625,0.2858702540397644,-0.0872725248336792,-0.05792246758937836
1739817459217116200,3.8391162109375,0.2578185200691223,-0.18203935027122498,-0.07246112078428268
1739817459227188200,3.849188232421875,0.23087452352046967,-0.25159767270088196,-0.0778428390622139
1739817459237259300,3.85925927734375,0.2070041298866272,-0.3034886121749878,-0.07277480512857437
1739817459247331000,3.8693310546875,0.17040857672691345,-0.3143271505832672,-0.07138810306787491
1739817459257401900,3.87940185546875,0.13495106995105743,-0.2765972912311554,-0.06355437636375427
1739817459267474000,3.889473876953125,0.10203439742326736,-0.213927760720253,-0.051634594798088074
1739817459277545000,3.899544921875,0.06913692504167557,-0.13175205886363983,-0.04419291764497757
1739817459287617000,3.909616943359375,0.0405241884291172,-0.04760842025279999,-0.043029915541410446
1739817459297688000,3.91968798828125,0.023399919271469116,0.019229626283049583,-0.0490681491792202
1739817459307760000,3.929760009765625,0.021536506712436676,0.06492041051387787,-0.05727068707346916
1739817459317831000,3.939830810546875,0.02313873916864395,0.08653229475021362,-0.0675005242228508
1739817459327903000,3.949903076171875,0.01740308851003647,0.06817005574703217,-0.06860467791557312
1739817459337974000,3.95997412109375,0.0011793766170740128,0.04728342220187187,-0.06723794341087341
1739817459348045000,3.970045166015625,-0.021267343312501907,0.029833059757947922,-0.06045380234718323
1739817459358117000,3.9801171875,-0.04689212888479233,0.01539885625243187,-0.05401887744665146
1739817459368188200,3.990188232421875,-0.07299324125051498,0.010911962017416954,-0.047024086117744446
1739817459378260200,4.00026025390625,-0.08601804077625275,0.013299406506121159,-0.034841228276491165
1739817459388331000,4.0103310546875,-0.0922146812081337,0.012906325049698353,-0.02367699146270752
1739817459398402800,4.02040283203125,-0.08547592163085938,0.017155129462480545,-0.0028753578662872314
1739817459408473900,4.030473876953125,-0.07761985808610916,0.021357063204050064,0.010752038098871708
1739817459418546000,4.0405458984375,-0.06276644766330719,0.022111322730779648,0.024537572637200356
1739817459428617000,4.050616943359375,-0.04437945410609245,0.013485610485076904,0.0408097505569458
1739817459438689000,4.06068896484375,-0.024500800296664238,-0.00003655953332781792,0.050402604043483734
1739817459448760000,4.070760009765625,-0.009246481582522392,-0.03224749490618706,0.056780874729156494
1739817459458832100,4.08083203125,-0.002132704481482506,-0.07059455662965775,0.06088211014866829
1739817459468903200,4.090903076171875,-0.0024272501468658447,-0.09342023730278015,0.06321903318166733
1739817459478975000,4.10097509765625,-0.009251192212104797,-0.12154187262058258,0.057482123374938965
1739817459489046000,4.1110458984375,-0.025775305926799774,-0.13078251481056213,0.05799318850040436
1739817459499117000,4.121116943359375,-0.05606624484062195,-0.12005718052387238,0.058641061186790466
1739817459509189000,4.131189208984375,-0.08829448372125626,-0.09258107841014862,0.05774570629000664
1739817459519260000,4.141260009765625,-0.1140887662768364,-0.06612277776002884,0.06613469123840332
1739817459529332200,4.151332275390625,-0.1305910348892212,-0.06029738113284111,0.08020949363708496
1739817459539403000,4.161403076171875,-0.1403408944606781,-0.07399538159370422,0.09468869119882584
1739817459549475000,4.17147509765625,-0.14499716460704803,-0.09546232223510742,0.11071399599313736
1739817459559546000,4.181546142578125,-0.14134007692337036,-0.1181027814745903,0.12312992662191391
1739817459569618000,4.191617919921875,-0.1425350457429886,-0.1266845464706421,0.12944960594177246
1739817459579689000,4.20168896484375,-0.1450514942407608,-0.12294070422649384,0.131466805934906
1739817459589761000,4.211760986328125,-0.14789602160453796,-0.1184314414858818,0.1297895461320877
1739817459599832000,4.22183203125,-0.15014775097370148,-0.13153547048568726,0.13029874861240387
1739817459609904000,4.231904052734375,-0.14605900645256042,-0.15938813984394073,0.1225297749042511
1739817459619975200,4.24197509765625,-0.1487058401107788,-0.18799783289432526,0.11507387459278107
1739817459630046200,4.252046142578125,-0.15153971314430237,-0.1818573921918869,0.11626217514276505
1739817459640118000,4.262117919921875,-0.16276340186595917,-0.17276060581207275,0.11636747419834137
1739817459650189000,4.27218896484375,-0.17993199825286865,-0.2017187476158142,0.10323222726583481
1739817459660261000,4.28226123046875,-0.19633033871650696,-0.2675223648548126,0.07541116327047348
1739817459670332000,4.292331787109375,-0.22023938596248627,-0.3412857949733734,0.03467252105474472
1739817459680404000,4.302404052734375,-0.24514199793338776,-0.3737190067768097,-0.011481613852083683
1739817459690475000,4.31247509765625,-0.2841636836528778,-0.35601431131362915,-0.0685691386461258
1739817459700547000,4.322547119140625,-0.3160064220428467,-0.3112128973007202,-0.12295425683259964
1739817459710618000,4.3326181640625,-0.3403748869895935,-0.28246647119522095,-0.17178811132907867
1739817459720690000,4.34268994140625,-0.33551883697509766,-0.25565582513809204,-0.19923186302185059
1739817459730761000,4.352760986328125,-0.30758363008499146,-0.21830366551876068,-0.2012912631034851
1739817459740832000,4.36283203125,-0.25441884994506836,-0.18824076652526855,-0.1804911494255066
1739817459750904000,4.372904052734375,-0.18837858736515045,-0.16502226889133453,-0.146108940243721
1739817459760975000,4.38297509765625,-0.13135050237178802,-0.1401432305574417,-0.10862386226654053
1739817459771047200,4.393047119140625,-0.0798119455575943,-0.10835812985897064,-0.06038309633731842
1739817459781118200,4.4031181640625,-0.03453262150287628,-0.07519205659627914,-0.0028194254264235497
1739817459791190300,4.413190185546875,0.023228146135807037,-0.05097406730055809,0.07137037813663483
1739817459801261000,4.423260986328125,0.1004968211054802,-0.039297569543123245,0.15581360459327698
1739817459811332900,4.433332763671875,0.1912970393896103,-0.0457509383559227,0.2445022016763687
1739817459821404000,4.44340380859375,0.25576743483543396,-0.07478044182062149,0.3189465403556824
1739817459831475000,4.453474853515625,0.280197411775589,-0.11907679587602615,0.37524735927581787
1739817459841547000,4.463547119140625,0.2609344720840454,-0.18269877135753632,0.4074803590774536
1739817459851618000,4.4736181640625,0.20563499629497528,-0.2506178915500641,0.3979414403438568
1739817459861690000,4.483690185546875,0.12916873395442963,-0.31718534231185913,0.3617648184299469
1739817459871761200,4.49376123046875,0.052553318440914154,-0.3699713349342346,0.3045782446861267
1739817459881833000,4.5038330078125,-0.02770419791340828,-0.38116389513015747,0.23908165097236633
1739817459891904000,4.513904052734375,-0.10707572102546692,-0.35170692205429077,0.1844911128282547
1739817459901976000,4.52397607421875,-0.19767189025878906,-0.29322320222854614,0.1408524513244629
1739817459912047000,4.534047119140625,-0.28465738892555237,-0.19888605177402496,0.11038190126419067
1739817459922118000,4.544117919921875,-0.34536013007164,-0.07817403227090836,0.09372652322053909
1739817459932190000,4.55418994140625,-0.35822346806526184,0.04104956239461899,0.09990639239549637
1739817459942261000,4.564260986328125,-0.3271803855895996,0.14276456832885742,0.13142262399196625
1739817459952333000,4.5743330078125,-0.2777547836303711,0.21285496652126312,0.1741330623626709
1739817459962404000,4.584404052734375,-0.22955524921417236,0.2393880933523178,0.21089841425418854
1739817459972476000,4.594475830078125,-0.18264128267765045,0.23669643700122833,0.24070823192596436
1739817459982547000,4.604546875,-0.134436696767807,0.22585684061050415,0.2576727867126465
1739817459992619000,4.614618896484375,-0.08503744751214981,0.21596744656562805,0.26348674297332764
1739817460002690000,4.62468994140625,-0.04819615185260773,0.2135629951953888,0.26656949520111084
1739817460012761000,4.634760986328125,-0.024119844660162926,0.20662198960781097,0.2624911367893219
1739817460022833200,4.644833251953125,-0.01597152091562748,0.18114377558231354,0.25387120246887207
1739817460032904200,4.654904296875,-0.019296742975711823,0.133944571018219,0.23397287726402283
1739817460042976300,4.664976318359375,-0.03487442061305046,0.07788187265396118,0.18999657034873962
1739817460053047000,4.675047119140625,-0.056497689336538315,-0.002253181766718626,0.129036545753479
1739817460063118800,4.685118896484375,-0.08577008545398712,-0.06347271054983139,0.05374256893992424
1739817460073190000,4.69518994140625,-0.11440412700176239,-0.12302472442388535,-0.01733773574233055
1739817460083261000,4.705260986328125,-0.1389513611793518,-0.16784526407718658,-0.08682338148355484
1739817460093332700,4.715332763671875,-0.1372503936290741,-0.15249080955982208,-0.15012697875499725
1739817460103403800,4.72540380859375,-0.11800872534513474,-0.10579688102006912,-0.2022915780544281
1739817460113475800,4.735475830078125,-0.0709725096821785,-0.03528143838047981,-0.2168460190296173
1739817460123547000,4.745546875,-0.008561775088310242,0.03816663473844528,-0.19638440012931824
1739817460133619000,4.755618896484375,0.06491803377866745,0.10518641769886017,-0.14246097207069397
1739817460143690000,4.76568994140625,0.12830419838428497,0.15387549996376038,-0.0631866380572319
1739817460153761800,4.77576171875,0.162749782204628,0.1526547074317932,0.01679075136780739
1739817460163832800,4.785832763671875,0.17851416766643524,0.1354871243238449,0.08268829435110092
1739817460173904000,4.79590380859375,0.17568030953407288,0.11000227928161621,0.12732313573360443
1739817460183976000,4.805975830078125,0.15521909296512604,0.07394080609083176,0.15174557268619537
1739817460194047000,4.816046875,0.11409696191549301,0.035058654844760895,0.15208512544631958
1739817460204119000,4.826119140625,0.061459071934223175,-0.008381479419767857,0.13283729553222656
1739817460214189800,4.83618994140625,0.002322518266737461,-0.05415908992290497,0.10817883163690567
1739817460224262000,4.846261962890625,-0.0485648438334465,-0.07736898213624954,0.060019899159669876
1739817460234332700,4.856332763671875,-0.10811978578567505,-0.09430109709501266,0.004786471836268902
1739817460244403700,4.86640380859375,-0.15344946086406708,-0.11087413132190704,-0.05007430166006088
1739817460254475800,4.876475830078125,-0.18280228972434998,-0.11574718356132507,-0.082326240837574
1739817460264546800,4.886546875,-0.1958726942539215,-0.09720267355442047,-0.09476649761199951
1739817460274619000,4.896618896484375,-0.20842790603637695,-0.07291863858699799,-0.09614308178424835
1739817460284690000,4.90668994140625,-0.20590800046920776,-0.03684929758310318,-0.09722041338682175
1739817460294762000,4.916761962890625,-0.19708894193172455,-0.009747639298439026,-0.10517660528421402
1739817460304833000,4.9268330078125,-0.18677347898483276,0.004166563972830772,-0.12756599485874176
1739817460314904000,4.936904052734375,-0.1676812767982483,0.018911689519882202,-0.15417629480361938
1739817460324975900,4.946975830078125,-0.15654431283473969,0.026172136887907982,-0.16424134373664856
1739817460335046700,4.957046630859375,-0.13196387887001038,0.025614740327000618,-0.16395212709903717
1739817460345119000,4.967118896484375,-0.10105487704277039,0.027345484122633934,-0.14813640713691711
1739817460355189800,4.977189697265625,-0.05294967070221901,0.03302973508834839,-0.12274902313947678
1739817460365260800,4.9872607421875,0.003154945094138384,0.03827299922704697,-0.10296382755041122
1739817460375332900,4.997332763671875,0.05150623247027397,0.04955894500017166,-0.08509934693574905
1739817460385404000,5.00740380859375,0.08803475648164749,0.06542345881462097,-0.06937546283006668
1739817460395476000,5.01747607421875,0.11564827710390091,0.0866006538271904,-0.05481968820095062
1739817460405547000,5.027547119140625,0.13604477047920227,0.1100841611623764,-0.04230482131242752
1739817460415618800,5.037618896484375,0.15305091440677643,0.12157837301492691,-0.023855242878198624
1739817460425689900,5.04768994140625,0.1609189510345459,0.1302293837070465,-0.013499273918569088
1739817460435761000,5.057760986328125,0.1701532006263733,0.11879322677850723,0.007944764569401741
1739817460445833000,5.0678330078125,0.17066341638565063,0.09339515119791031,0.04030463844537735
1739817460455903700,5.07790380859375,0.16992253065109253,0.06284123659133911,0.06375696510076523
1739817460465976000,5.08797607421875,0.16425348818302155,0.05005049332976341,0.08374262601137161
1739817460476046800,5.098046875,0.15299630165100098,0.03685559704899788,0.09325090795755386
1739817460486118000,5.108117919921875,0.13617193698883057,0.0320386104285717,0.09011505544185638
1739817460496190000,5.11818994140625,0.1201237291097641,0.03269081935286522,0.07391957938671112
1739817460506261000,5.128260986328125,0.09940873831510544,0.04763197898864746,0.045571427792310715
1739817460516332800,5.138332763671875,0.07878175377845764,0.07188858091831207,0.021437063813209534
1739817460526403800,5.14840380859375,0.05730277672410011,0.09725235402584076,0.003221491351723671
1739817460536476000,5.158475830078125,0.039449211210012436,0.11783938854932785,-0.003060106188058853
1739817460546547000,5.168546875,0.03656730055809021,0.13798074424266815,-0.0026291869580745697
1739817460556618000,5.178617919921875,0.04383133724331856,0.15493470430374146,0.0013043023645877838
1739817460566690000,5.18868994140625,0.059658873826265335,0.16706617176532745,0.004502699710428715
1739817460576760800,5.1987607421875,0.08394531160593033,0.17606179416179657,0.010547542944550514
1739817460586833000,5.2088330078125,0.11441337317228317,0.17535795271396637,0.010003447532653809
1739817460596903700,5.218903564453125,0.1448540985584259,0.17467671632766724,0.005375939421355724
1739817460606974700,5.228974609375,0.17485526204109192,0.19330017268657684,0.003671388141810894
1739817460617046800,5.239046875,0.1967533826828003,0.23515760898590088,-0.004822231829166412
1739817460627117800,5.249117919921875,0.21439407765865326,0.2863902747631073,-0.007282936945557594
1739817460637190000,5.25918994140625,0.23006650805473328,0.32593581080436707,0.004630447365343571
1739817460647261000,5.269260986328125,0.25349825620651245,0.33870741724967957,0.030317388474941254
1739817460657332000,5.27933203125,0.27693700790405273,0.3279450237751007,0.06122656911611557
1739817460667404000,5.289404052734375,0.29821646213531494,0.30680370330810547,0.1000162661075592
1739817460677475000,5.29947509765625,0.320781409740448,0.2818525433540344,0.1307763159275055
1739817460687547000,5.309546875,0.331509530544281,0.24889251589775085,0.15847177803516388
1739817460697617700,5.31961767578125,0.35297247767448425,0.25216394662857056,0.18278323113918304
1739817460707688700,5.329688720703125,0.36600765585899353,0.2911331355571747,0.21801766753196716
1739817460717760800,5.3397607421875,0.35564637184143066,0.2445206493139267,0.22679650783538818
1739817460727831800,5.349831787109375,0.32871079444885254,0.09464862942695618,0.19282154738903046
1739817460737903900,5.35990380859375,0.28466370701789856,-0.07653776556253433,0.12428217381238937
1739817460747975000,5.369974853515625,0.2177644670009613,-0.23944595456123352,0.0245702862739563
1739817460758046000,5.3800458984375,0.13908137381076813,-0.4180508553981781,-0.11193455755710602
1739817460768118000,5.390117919921875,0.0681491494178772,-0.5313843488693237,-0.24265342950820923
1739817460778189000,5.40018896484375,-0.001382256392389536,-0.5600674152374268,-0.3523855209350586
1739817460788260900,5.4102607421875,-0.0612611323595047,-0.517999529838562,-0.4102517366409302
1739817460798332000,5.420331787109375,-0.10225250571966171,-0.4228072166442871,-0.40538427233695984
1739817460808402700,5.430402587890625,-0.10599266737699509,-0.2623171806335449,-0.34455302357673645
1739817460818474800,5.440474853515625,-0.08440960943698883,-0.08568485826253891,-0.2396647036075592
1739817460828545800,5.4505458984375,-0.05327557027339935,0.06502269208431244,-0.11433302611112595
1739817460838617900,5.460617919921875,-0.02485671266913414,0.16419188678264618,0.00102232675999403
1739817460848689000,5.47068896484375,-0.013240369036793709,0.20625892281532288,0.07314524799585342
1739817460858760000,5.480760009765625,-0.009233643300831318,0.21847698092460632,0.0984380841255188
1739817460868832000,5.49083203125,-0.0014130044728517532,0.23993460834026337,0.09649451076984406
1739817460878903000,5.500903076171875,-0.005675127729773521,0.2860504388809204,0.0796513482928276
1739817460888974800,5.510974853515625,-0.0025434507988393307,0.3440650701522827,0.06129935383796692
1739817460899046000,5.5210458984375,0.0017056227661669254,0.3936840295791626,0.044732630252838135
1739817460909118000,5.531117919921875,0.013606658205389977,0.424089640378952,0.027259360998868942
1739817460919189000,5.54118896484375,0.026649489998817444,0.4167979061603546,0.003340710885822773
1739817460929259800,5.551259765625,0.04480418935418129,0.3767297565937042,-0.02171548828482628
1739817460939331800,5.561331787109375,0.058444634079933167,0.2959854006767273,-0.04085908830165863
1739817460949403000,5.57140283203125,0.07004143297672272,0.19845090806484222,-0.05074349790811539
1739817460959474000,5.581473876953125,0.08510986715555191,0.10075259208679199,-0.04191698506474495
1739817460969545700,5.591545654296875,0.10407017916440964,0.005098154302686453,-0.019449669867753983
1739817460979616800,5.60161669921875,0.11457714438438416,-0.05792049318552017,0.008584361523389816
1739817460989688800,5.611688720703125,0.1243756115436554,-0.1017204001545906,0.03199173882603645
1739817460999760000,5.621759765625,0.13297683000564575,-0.12925881147384644,0.04826338589191437
1739817461009831000,5.631830810546875,0.1427055448293686,-0.1449742466211319,0.05518178641796112
1739817461019903000,5.641903076171875,0.15123350918293,-0.13976509869098663,0.05263633653521538
1739817461029974000,5.65197412109375,0.1547124832868576,-0.13234756886959076,0.03279542177915573
1739817461040046000,5.662046142578125,0.15914584696292877,-0.11924853920936584,0.0066277338191866875
1739817461050116900,5.672116943359375,0.15451091527938843,-0.11561795324087143,-0.019640997052192688
1739817461060188000,5.68218798828125,0.1449110209941864,-0.11003703624010086,-0.037128910422325134
1739817461070259700,5.692259765625,0.1333419680595398,-0.10091811418533325,-0.032699331641197205
1739817461080330800,5.702330810546875,0.13020077347755432,-0.08847769349813461,-0.012262233532965183
1739817461090402800,5.71240283203125,0.13852475583553314,-0.0791773796081543,0.025885537266731262
1739817461100477400,5.7224775390625,0.15843534469604492,-0.06731592118740082,0.06451895087957382
1739817461110548500,5.732548583984375,0.18191762268543243,-0.046922121196985245,0.10103864967823029
1739817461120620500,5.74262060546875,0.214654803276062,-0.023085497319698334,0.1302335560321808
1739817461130691600,5.752691650390625,0.2503737211227417,-0.0013423236086964607,0.15067656338214874
1739817461140762600,5.7627626953125,0.2800098955631256,0.021906273439526558,0.15558236837387085
1739817461150834700,5.772834716796875,0.29287564754486084,0.04684038460254669,0.14674094319343567
1739817461160905500,5.782905517578125,0.2917906641960144,0.07728271186351776,0.12949244678020477
1739817461170977500,5.7929775390625,0.2776792049407959,0.1073865294456482,0.10882365703582764
1739817461181048300,5.80304833984375,0.2562128007411957,0.12503503262996674,0.0819755345582962
1739817461191119400,5.813119384765625,0.23266519606113434,0.12799759209156036,0.06438247859477997
1739817461201191400,5.82319140625,0.2112365961074829,0.11335393786430359,0.03562380373477936
1739817461211262500,5.833262451171875,0.19498802721500397,0.06665384769439697,0.008328055031597614
1739817461221334500,5.84333447265625,0.1749192476272583,0.008910126984119415,-0.007828810252249241
1739817461231405600,5.853405517578125,0.15655717253684998,-0.029646847397089005,-0.026912283152341843
1739817461241476600,5.8634765625,0.13309286534786224,-0.016339831054210663,-0.02773173898458481
1739817461251548400,5.87354833984375,0.11057945340871811,0.04716512933373451,-0.02576180174946785
1739817461261619500,5.883619384765625,0.0977398157119751,0.12122311443090439,-0.018319062888622284
1739817461271690500,5.8936904296875,0.08823765814304352,0.188229039311409,-0.0004063751548528671
1739817461281762600,5.903762451171875,0.0977824255824089,0.22299261391162872,0.01979769580066204
1739817461291833300,5.913833251953125,0.10605766624212265,0.21894311904907227,0.04021754115819931
1739817461301905400,5.923905517578125,0.1138886883854866,0.18812687695026398,0.049454182386398315
1739817461311976400,5.9339765625,0.12086628377437592,0.15001346170902252,0.06426529586315155
1739817461322047500,5.944047607421875,0.12798331677913666,0.11525867879390717,0.07734274864196777
1739817461332119600,5.95411962890625,0.1264287829399109,0.061435844749212265,0.08003797382116318
1739817461342190600,5.964190673828125,0.11176381260156631,0.020518772304058075,0.06708169728517532
1739817461352262400,5.974262451171875,0.08709819614887238,-0.0007170815952122211,0.029834406450390816
1739817461362333400,5.98433349609375,0.045458078384399414,-0.006798676215112209,-0.026235787197947502
1739817461372404500,5.994404541015625,-0.0038604377768933773,0.0032330811955034733,-0.09646931290626526
1739817461382476500,6.0044765625,-0.04634132236242294,0.03775430843234062,-0.1497351974248886
1739817461392547600,6.014547607421875,-0.07644335925579071,0.0825243815779686,-0.17106716334819794
1739817461402618400,6.024618408203125,-0.0939139574766159,0.1338975578546524,-0.16596880555152893
1739817461412690400,6.0346904296875,-0.09633571654558182,0.16420219838619232,-0.14395293593406677
1739817461422761500,6.044761474609375,-0.08658348768949509,0.15249095857143402,-0.12377336621284485
1739817461432832500,6.05483251953125,-0.07113347947597504,0.1063457503914833,-0.11878302693367004
1739817461442904600,6.064904541015625,-0.05072673782706261,0.05623411387205124,-0.1308375597000122
1739817461452975600,6.0749755859375,-0.03113728202879429,0.012107990682125092,-0.14723719656467438
1739817461463047400,6.08504736328125,-0.013978535309433937,-0.017303161323070526,-0.1565753072500229
1739817461473118500,6.095118408203125,0.004573495592921972,-0.022072169929742813,-0.1438915878534317
1739817461483189500,6.105189453125,0.016638945788145065,0.010332640260457993,-0.11126971989870071
1739817461493261600,6.115261474609375,0.025857150554656982,0.046729207038879395,-0.05674821510910988
1739817461503332600,6.12533251953125,0.03618302568793297,0.07975346595048904,-0.009512788616120815
1739817461513403400,6.1354033203125,0.05064387992024422,0.0989207848906517,0.021461907774209976
1739817461523475500,6.145475341796875,0.06565292179584503,0.09027696400880814,0.024171940982341766
1739817461533546500,6.15554638671875,0.07438764721155167,0.05081845819950104,0.007744711823761463
1739817461543618600,6.16561865234375,0.06810525059700012,0.015185896307229996,-0.011578918434679508
1739817461553689600,6.175689697265625,0.03894610330462456,-0.004836893640458584,-0.03269149363040924
1739817461563760600,6.1857607421875,-0.010142084211111069,-0.0147132258862257,-0.04398062825202942
1739817461573832400,6.19583251953125,-0.05617750063538551,-0.006356487981975079,-0.04348497837781906
1739817461583903500,6.205903564453125,-0.09010323882102966,0.0151778319850564,-0.024685455486178398
1739817461593974500,6.215974609375,-0.1099143996834755,0.04165799543261528,-0.0064427414909005165
1739817461604046600,6.226046630859375,-0.11621809750795364,0.0605616457760334,0.013224702328443527
1739817461614117600,6.23611767578125,-0.11484648287296295,0.06618127226829529,0.01836284063756466
1739817461624189700,6.246189697265625,-0.11086079478263855,0.06569205224514008,0.022297395393252373
1739817461634260500,6.256260498046875,-0.11352333426475525,0.06328024715185165,0.020243246108293533
1739817461644331500,6.26633154296875,-0.1182645633816719,0.0565568283200264,0.027583185583353043
1739817461654403300,6.2764033203125,-0.13220824301242828,0.04318610206246376,0.02795141562819481
1739817461664474400,6.286474365234375,-0.1441139131784439,0.01850552298128605,0.02488664910197258
1739817461674545400,6.29654541015625,-0.15641671419143677,-0.027220599353313446,0.01688740774989128
1739817461684617500,6.306617431640625,-0.16986407339572906,-0.07425841689109802,0.013299597427248955
1739817461694688500,6.3166884765625,-0.1824590563774109,-0.1288616955280304,0.004464344121515751
1739817461704759600,6.326759521484375,-0.19511812925338745,-0.18375983834266663,0.000680258497595787
1739817461714831600,6.33683154296875,-0.19837675988674164,-0.2348172962665558,0.005389109253883362
1739817461724902400,6.34690234375,-0.20361973345279694,-0.2783562242984772,0.008139355108141899
1739817461734974700,6.356974609375,-0.21951770782470703,-0.32847410440444946,0.010238886810839176
1739817461745045500,6.36704541015625,-0.24502599239349365,-0.3295726776123047,0.008633799850940704
1739817461755116500,6.377116455078125,-0.2692566215991974,-0.31287625432014465,0.008030598983168602
1739817461765188400,6.387188232421875,-0.2919483482837677,-0.34718868136405945,0.007848438806831837
1739817461775259400,6.39725927734375,-0.30479511618614197,-0.39748215675354004,0.0067741759121418
1739817461785330400,6.407330322265625,-0.31644299626350403,-0.4432576298713684,-0.0011995946988463402
1739817461795402500,6.417402587890625,-0.33293646574020386,-0.45636609196662903,-0.019850879907608032
1739817461805473500,6.4274736328125,-0.3620791435241699,-0.43845897912979126,-0.05263892188668251
1739817461815544600,6.437544677734375,-0.39751896262168884,-0.38889044523239136,-0.10103367269039154
1739817461825616600,6.44761669921875,-0.4169544577598572,-0.31825700402259827,-0.14777614176273346
1739817461835687400,6.4576875,-0.41735249757766724,-0.2591162323951721,-0.17555376887321472
1739817461845758500,6.467758544921875,-0.39714309573173523,-0.2019301801919937,-0.18181724846363068
1739817461855830500,6.47783056640625,-0.3582649528980255,-0.16791363060474396,-0.16687986254692078
1739817461865901600,6.487901611328125,-0.3000490367412567,-0.15758110582828522,-0.13572274148464203
1739817461875973400,6.497973388671875,-0.2264452576637268,-0.14059266448020935,-0.0861654281616211
1739817461886044400,6.50804443359375,-0.13967867195606232,-0.10904964059591293,-0.011225408874452114
1739817461896115500,6.518115478515625,-0.05510243773460388,-0.07761119306087494,0.07021867483854294
1739817461906187500,6.5281875,0.005055972840636969,-0.05691230669617653,0.15369972586631775
1739817461916258600,6.538258544921875,0.04864172264933586,-0.05475684627890587,0.22667640447616577
1739817461926329600,6.54832958984375,0.08340422809123993,-0.06300146132707596,0.28780582547187805
1739817461936401700,6.558401611328125,0.09613949805498123,-0.08777013421058655,0.3422674834728241
1739817461946472400,6.568472412109375,0.0890728011727333,-0.12636786699295044,0.3882264494895935
1739817461956543500,6.57854345703125,0.05959887057542801,-0.1732531487941742,0.4184279441833496
1739817461966615600,6.588615478515625,0.021617669612169266,-0.22852811217308044,0.4337666928768158
1739817461976686600,6.5986865234375,-0.019512362778186798,-0.2926689088344574,0.4264332354068756
1739817461986757600,6.608757568359375,-0.0645594671368599,-0.3552390933036804,0.38982993364334106
1739817461996829400,6.618829345703125,-0.11524209380149841,-0.3905421197414398,0.33244720101356506
1739817462006900500,6.628900390625,-0.1654069870710373,-0.3896600604057312,0.26537391543388367
1739817462016971500,6.638971435546875,-0.21565401554107666,-0.33749067783355713,0.19302743673324585
1739817462027043600,6.649043701171875,-0.26569217443466187,-0.2698594629764557,0.12067494541406631
1739817462037114600,6.659114501953125,-0.311577707529068,-0.20600304007530212,0.05509958788752556
1739817462047185400,6.669185302734375,-0.34695830941200256,-0.16055859625339508,0.0012198463082313538
1739817462057257500,6.679257568359375,-0.36166679859161377,-0.10493820160627365,-0.02291688695549965
1739817462067328500,6.68932861328125,-0.35862600803375244,-0.04957907274365425,-0.010237575508654118
1739817462077399600,6.699399658203125,-0.33242836594581604,0.013654062524437904,0.03511910140514374
1739817462087471400,6.709471435546875,-0.2906076908111572,0.08414847403764725,0.10819331556558609
1739817462097542100,6.719542236328125,-0.23095525801181793,0.168563112616539,0.19533397257328033
1739817462107614000,6.729614013671875,-0.17578786611557007,0.21206878125667572,0.28204330801963806
1739817462117685000,6.73968505859375,-0.11556529253721237,0.229403555393219,0.32416731119155884
1739817462127756000,6.749756103515625,-0.06247703731060028,0.21150711178779602,0.3444150388240814
1739817462137828000,6.759828125,-0.019868629053235054,0.17477089166641235,0.3300137221813202
1739817462147899000,6.76989892578125,0.00013623759150505066,0.1305144727230072,0.2889227569103241
1739817462157970000,6.779969970703125,-0.005954651162028313,0.08188824355602264,0.22261764109134674
1739817462168042000,6.7900419921875,-0.0208065677434206,0.042591698467731476,0.16229039430618286
1739817462178113000,6.800113037109375,-0.03255435824394226,0.026228923350572586,0.10834135115146637
1739817462188184000,6.81018408203125,-0.034082479774951935,0.020388076081871986,0.06720536202192307
1739817462198256000,6.820256103515625,-0.03071395680308342,0.01991100050508976,0.030767880380153656
1739817462208327200,6.8303271484375,-0.03141836076974869,0.00853770412504673,0.008002911694347858
1739817462218398200,6.840398193359375,-0.026791144162416458,0.007768673822283745,-0.007862179540097713
1739817462228470000,6.850469970703125,-0.014705452136695385,0.010800682008266449,-0.022890131920576096
1739817462238540800,6.860540771484375,0.010466666892170906,-0.0008886647410690784,-0.04087017849087715
1739817462248611800,6.87061181640625,0.0382373109459877,-0.012048641219735146,-0.059190597385168076
1739817462258684000,6.880683837890625,0.050471533089876175,-0.04486070200800896,-0.07422317564487457
1739817462268755000,6.8907548828125,0.051261160522699356,-0.0821116641163826,-0.08720262348651886
1739817462278826000,6.900825927734375,0.051741018891334534,-0.10569643974304199,-0.09488897025585175
1739817462288898000,6.91089794921875,0.045062076300382614,-0.13260714709758759,-0.11227035522460938
1739817462298969000,6.920968994140625,0.03388139232993126,-0.14472392201423645,-0.12342313677072525
1739817462309040000,6.9310400390625,0.014165746048092842,-0.13601937890052795,-0.14580249786376953
1739817462319112000,6.94111181640625,0.000013865996152162552,-0.10259415954351425,-0.15409432351589203
1739817462329183000,6.951182861328125,-0.010140500962734222,-0.052126191556453705,-0.15135367214679718
1739817462339254000,6.96125390625,-0.016203511506319046,-0.0020287376828491688,-0.1334761679172516
1739817462349325800,6.971325927734375,-0.017869051545858383,0.03029431216418743,-0.10838732123374939
1739817462359396900,6.98139697265625,-0.017357027158141136,0.03352703899145126,-0.08358891308307648
1739817462369468000,6.991468017578125,-0.010319624096155167,0.022809147834777832,-0.06669382005929947
1739817462379540000,7.0015400390625,-0.01086211297661066,0.003083632793277502,-0.06061005964875221
1739817462389611000,7.011611083984375,-0.013595581986010075,-0.01978866010904312,-0.0712701678276062
1739817462399682000,7.02168212890625,-0.013443663716316223,-0.028677256777882576,-0.09560581296682358
1739817462409754000,7.031754150390625,-0.01763574592769146,-0.01374810840934515,-0.12294821441173553
1739817462419825200,7.0418251953125,-0.0107667725533247,0.023015795275568962,-0.13640868663787842
1739817462429896200,7.051896240234375,0.0020949644967913628,0.06818407028913498,-0.1400982290506363
1739817462439968000,7.061968017578125,0.024153530597686768,0.1005108654499054,-0.13174816966056824
1739817462450038800,7.072038818359375,0.05330662429332733,0.12177114188671112,-0.11614364385604858
1739817462460109800,7.08210986328125,0.09280779957771301,0.1328783482313156,-0.09787534922361374
1739817462470182000,7.092181884765625,0.12358621507883072,0.13241176307201385,-0.07641585916280746
1739817462480253000,7.1022529296875,0.1407502293586731,0.13340920209884644,-0.06055089831352234
1739817462490324000,7.112323974609375,0.15065214037895203,0.13164246082305908,-0.04076680541038513
1739817462500395000,7.12239501953125,0.15386368334293365,0.12430109828710556,-0.023172341287136078
1739817462510467000,7.132467041015625,0.15610553324222565,0.11586473137140274,-0.009159588254988194
1739817462520538000,7.1425380859375,0.1642758548259735,0.1078713908791542,0.0009540999308228493
1739817462530609000,7.15260888671875,0.1766563504934311,0.09146898239850998,0.016321871429681778
1739817462540681200,7.16268115234375,0.1902354657649994,0.07134446501731873,0.02968132682144642
1739817462550752000,7.172751953125,0.200199156999588,0.05416680872440338,0.042719099670648575
1739817462560823000,7.182822998046875,0.20576663315296173,0.041299059987068176,0.05658320337533951
1739817462570894800,7.192894775390625,0.21699878573417664,0.04120025411248207,0.08162304013967514
1739817462580966000,7.2029658203125,0.2218904048204422,0.05469445139169693,0.11803144961595535
1739817462591037000,7.213036865234375,0.22101210057735443,0.061173923313617706,0.15257132053375244
1739817462601109000,7.22310888671875,0.20921170711517334,0.061770275235176086,0.18000124394893646
1739817462611180000,7.233179931640625,0.19504529237747192,0.07024765014648438,0.20837163925170898
1739817462621251000,7.2432509765625,0.18353737890720367,0.1005537286400795,0.2195321023464203
1739817462631323100,7.2533232421875,0.17055580019950867,0.1312008500099182,0.22500036656856537
1739817462641394000,7.263393798828125,0.1579863727092743,0.1432451754808426,0.22027181088924408
1739817462651465000,7.27346484375,0.1394728720188141,0.13570576906204224,0.21785125136375427
1739817462661537000,7.283537109375,0.12553076446056366,0.12277377396821976,0.22199663519859314
1739817462671608000,7.293608154296875,0.11552765965461731,0.11120500415563583,0.23635746538639069
1739817462681679000,7.30367919921875,0.10565215349197388,0.10671137273311615,0.24586071074008942
1739817462691750100,7.313750244140625,0.10708147287368774,0.094022735953331,0.25094252824783325
1739817462701822000,7.323822021484375,0.11589439958333969,0.08790409564971924,0.25714224576950073
1739817462711893000,7.33389306640625,0.13598768413066864,0.09661556035280228,0.2657746374607086
1739817462721964000,7.343964111328125,0.15187937021255493,0.1137821227312088,0.27867475152015686
1739817462732036000,7.3540361328125,0.15760651230812073,0.12897919118404388,0.28934043645858765
1739817462742107000,7.36410693359375,0.16143906116485596,0.13309307396411896,0.29774555563926697
1739817462752178000,7.374177978515625,0.1599884331226349,0.17387646436691284,0.3117852210998535
1739817462762250000,7.38425,0.15716588497161865,0.2232297658920288,0.32511454820632935
1739817462772321000,7.394321044921875,0.16079816222190857,0.16136586666107178,0.31520599126815796
1739817462782392000,7.40439208984375,0.15821491181850433,0.000408027321100235,0.27199119329452515
1739817462792464100,7.414464111328125,0.1465659886598587,-0.1554926335811615,0.20639008283615112
1739817462802535200,7.42453515625,0.11340346932411194,-0.24059024453163147,0.1311235874891281
1739817462812606200,7.434606201171875,0.05156407132744789,-0.2683126926422119,0.058719702064991
1739817462822677000,7.444677001953125,-0.008989520370960236,-0.2853480875492096,0.006629023235291243
1739817462832748800,7.454748779296875,-0.06288950145244598,-0.32500603795051575,-0.024559522047638893
1739817462842819800,7.46481982421875,-0.10604573786258698,-0.3816763460636139,-0.05349380150437355
1739817462852891000,7.474890869140625,-0.13943831622600555,-0.4222258925437927,-0.06677712500095367
1739817462862963000,7.484962890625,-0.16547876596450806,-0.41381698846817017,-0.06753192096948624
1739817462873034000,7.495033935546875,-0.2052525281906128,-0.35503172874450684,-0.045744866132736206
1739817462883105000,7.50510498046875,-0.22865064442157745,-0.20615220069885254,0.000036821700632572174
1739817462893177000,7.515177001953125,-0.25237327814102173,-0.0217386856675148,0.0644027590751648
1739817462903248100,7.525248046875,-0.27553030848503113,0.15422138571739197,0.13733656704425812
1739817462913319200,7.535319091796875,-0.2792278528213501,0.32156455516815186,0.20190037786960602
1739817462923390000,7.545389892578125,-0.2842194736003876,0.42608919739723206,0.24093154072761536
1739817462933462000,7.5554619140625,-0.2845899164676666,0.4557746350765228,0.25111308693885803
1739817462943533000,7.565532958984375,-0.2810879051685333,0.4571598172187805,0.2291068434715271
1739817462953604000,7.57560400390625,-0.2769072651863098,0.4311082363128662,0.1838141828775406
1739817462963676000,7.585676025390625,-0.2668626010417938,0.4061150550842285,0.130291149020195
1739817462973747000,7.595746826171875,-0.25452497601509094,0.378319650888443,0.07994888722896576
1739817462983818000,7.60581787109375,-0.23844006657600403,0.3267795443534851,0.032821472734212875
1739817462993890000,7.61589013671875,-0.2134646773338318,0.2604934573173523,-0.005560536868870258
1739817463003961000,7.625961181640625,-0.17690300941467285,0.18618546426296234,-0.03549591451883316
1739817463014032000,7.636031982421875,-0.13783790171146393,0.07862891256809235,-0.04967831075191498
1739817463024103000,7.64610302734375,-0.10752146691083908,-0.05133553594350815,-0.0745188295841217
1739817463034175000,7.656175048828125,-0.0724383145570755,-0.16849197447299957,-0.08858085423707962
1739817463044246000,7.66624609375,-0.052159927785396576,-0.24119505286216736,-0.10078047960996628
1739817463054317000,7.676317138671875,-0.03911043703556061,-0.24843564629554749,-0.10775822401046753
1739817463064388900,7.686388916015625,-0.04059945419430733,-0.21149636805057526,-0.11208026111125946
1739817463074460000,7.6964599609375,-0.047563087195158005,-0.1395265758037567,-0.1034337729215622
1739817463084531000,7.706531005859375,-0.054987046867609024,-0.04142329469323158,-0.09106544405221939
1739817463094602000,7.71660205078125,-0.06361594796180725,0.06642966717481613,-0.06836386024951935
1739817463104671200,7.726671142578125,-0.06328119337558746,0.15854817628860474,-0.05139070004224777
1739817463114742000,7.736741943359375,-0.05810960382223129,0.21235041320323944,-0.04855816066265106
1739817463124813000,7.74681298828125,-0.048945751041173935,0.19768507778644562,-0.08023396134376526
1739817463134885000,7.756885009765625,-0.04410571977496147,0.14213234186172485,-0.1380205750465393
1739817463144956200,7.7669560546875,-0.04384913668036461,0.08407019823789597,-0.22732004523277283
1739817463155027200,7.777027099609375,-0.055862657725811005,-0.0006859702989459038,-0.3329572379589081
1739817463165098200,7.78709814453125,-0.08378233760595322,-0.07158344984054565,-0.4213290214538574
1739817463175170300,7.79717041015625,-0.12074887752532959,-0.09591462463140488,-0.470407098531723
1739817463185241300,7.807241455078125,-0.1672922968864441,-0.11216285079717636,-0.4822971224784851
1739817463195312000,7.81731201171875,-0.20632757246494293,-0.11313623189926147,-0.45014452934265137
1739817463205384000,7.827384033203125,-0.22107438743114471,-0.07842855155467987,-0.3738502860069275
1739817463215455000,7.837455078125,-0.22098809480667114,-0.029078848659992218,-0.2727889120578766
1739817463225526000,7.847526123046875,-0.20811177790164948,0.02651257999241352,-0.16670958697795868
1739817463235597000,7.85759716796875,-0.18264369666576385,0.0919477790594101,-0.0702379047870636
1739817463245669000,7.867669189453125,-0.14626410603523254,0.1555124968290329,0.008909137919545174
1739817463255740200,7.877740234375,-0.10858171433210373,0.2274727076292038,0.0583999902009964
1739817463265811200,7.887811279296875,-0.07105949521064758,0.2939983606338501,0.07814953476190567
1739817463275882200,7.89788232421875,-0.03848956897854805,0.33323338627815247,0.07096032798290253
1739817463285954300,7.907954345703125,-0.0077983541414141655,0.36112797260284424,0.05279901996254921
1739817463296025000,7.918025146484375,0.013950349763035774,0.35267534852027893,0.04039455205202103
1739817463306096000,7.92809619140625,0.022138645872473717,0.32439982891082764,0.03698442131280899
1739817463316168200,7.938168212890625,0.025908881798386574,0.2740759253501892,0.04605461284518242
1739817463326239200,7.9482392578125,0.03217800334095955,0.21361583471298218,0.05833158642053604
1739817463336310300,7.958310302734375,0.043284982442855835,0.15097641944885254,0.07319734990596771
1739817463346381300,7.96838134765625,0.059634484350681305,0.0925225019454956,0.08539235591888428
1739817463356453000,7.978453125,0.08253686875104904,0.0290729571133852,0.09517734497785568
1739817463366524200,7.988524169921875,0.09643842279911041,-0.02675093524158001,0.09224462509155273
1739817463376595000,7.998594970703125,0.10262494534254074,-0.06284742057323456,0.05878493934869766
1739817463386666000,8.008666015625,0.09598841518163681,-0.06991137564182281,0.00730490917339921
1739817463396738000,8.018738037109374,0.07885497063398361,-0.054388612508773804,-0.06144646182656288
1739817463406809000,8.02880908203125,0.04925106093287468,-0.018529869616031647,-0.12546516954898834
1739817463416880000,8.038880126953124,0.011780119501054287,0.03134341165423393,-0.17914597690105438
1739817463426952200,8.0489521484375,-0.026688095182180405,0.07565715909004211,-0.22542200982570648
1739817463437023200,8.059023193359375,-0.05572453886270523,0.10369039326906204,-0.24454963207244873
1739817463447094300,8.06909423828125,-0.07230804115533829,0.104699045419693,-0.2346530258655548
1739817463457165300,8.079165283203125,-0.07907593250274658,0.08737864345312119,-0.21125662326812744
1739817463467237000,8.089237060546875,-0.08061710745096207,0.056569866836071014,-0.1792515516281128
1739817463477308200,8.09930810546875,-0.07843704521656036,0.008056124672293663,-0.14856208860874176
1739817463487379200,8.109379150390625,-0.07679781317710876,-0.03088805451989174,-0.1257755607366562
1739817463497450200,8.1194501953125,-0.08425547182559967,-0.05218615010380745,-0.11189968883991241
1739817463507522000,8.12952197265625,-0.09459362924098969,-0.07599165290594101,-0.11574189364910126
1739817463517593000,8.139593017578125,-0.1126280277967453,-0.1022256538271904,-0.1285322606563568
1739817463527664000,8.1496640625,-0.13210628926753998,-0.11387765407562256,-0.14731065928936005
1739817463537735200,8.159735107421875,-0.14850817620754242,-0.10714145004749298,-0.16961729526519775
1739817463547807200,8.16980712890625,-0.16556735336780548,-0.08739681541919708,-0.18845070898532867
1739817463557878000,8.1798779296875,-0.16719108819961548,-0.06446220725774765,-0.19530169665813446
1739817463567949000,8.189948974609376,-0.14806117117404938,-0.04720386862754822,-0.18667356669902802
1739817463578021000,8.200021240234374,-0.11729101836681366,-0.027798211202025414,-0.1494034230709076
1739817463588092200,8.210092041015624,-0.07995957881212234,-0.008478007279336452,-0.10829479992389679
1739817463598163200,8.2201630859375,-0.050181444734334946,-0.010066582821309566,-0.0698627233505249
1739817463608234200,8.230234130859374,-0.02066819556057453,-0.03407664597034454,-0.049575064331293106
1739817463618306000,8.24030615234375,0.004217979498207569,-0.06877470761537552,-0.04749539867043495
1739817463628377000,8.250377197265625,0.022623009979724884,-0.09946584701538086,-0.04864175617694855
1739817463638448000,8.2604482421875,0.02897225320339203,-0.11942543834447861,-0.05413159728050232
1739817463648519000,8.270518798828125,0.029552211984992027,-0.13207659125328064,-0.06034648418426514
1739817463658591000,8.280591064453125,0.03047925792634487,-0.14128953218460083,-0.054261691868305206
1739817463668662000,8.290662109375,0.026112817227840424,-0.14338935911655426,-0.04293034225702286
1739817463678733000,8.300733154296875,0.015188795514404774,-0.15749159455299377,-0.024628033861517906
1739817463688804000,8.31080419921875,-0.0031807213090360165,-0.1781715601682663,-0.018825367093086243
1739817463698876200,8.320876220703125,-0.0181956235319376,-0.20700879395008087,-0.019907943904399872
1739817463708947200,8.330947265625,-0.03076034039258957,-0.25352826714515686,-0.03782043233513832
1739817463719018200,8.341018310546875,-0.03905235603451729,-0.30577364563941956,-0.06045730412006378
1739817463729089000,8.351089111328125,-0.0482785739004612,-0.3299729526042938,-0.08695569634437561
1739817463739161000,8.3611611328125,-0.06254539638757706,-0.32439547777175903,-0.12149210274219513
1739817463749232000,8.371232177734376,-0.07738074660301208,-0.3061579465866089,-0.14489145576953888
1739817463759303200,8.38130322265625,-0.08997829258441925,-0.2865680158138275,-0.14867714047431946
1739817463769374200,8.391374267578126,-0.10637588053941727,-0.24566346406936646,-0.13206353783607483
1739817463779446000,8.401446044921874,-0.12985430657863617,-0.20188800990581512,-0.09814578294754028
1739817463789517000,8.41151708984375,-0.1583392322063446,-0.17385399341583252,-0.0554334856569767
1739817463799588000,8.421588134765624,-0.188700333237648,-0.17664551734924316,-0.008751730434596539
1739817463809659100,8.4316591796875,-0.21684125065803528,-0.21098147332668304,0.01725810207426548
1739817463819731200,8.441731201171875,-0.2395811825990677,-0.24612881243228912,0.0315326452255249
1739817463829802000,8.451802001953125,-0.2607479393482208,-0.2503840923309326,0.03921423479914665
1739817463839873000,8.461873046875,-0.27959805727005005,-0.2076275795698166,0.04213465750217438
1739817463849944000,8.471944091796875,-0.30463704466819763,-0.21061398088932037,0.029273848980665207
1739817463860015000,8.48201513671875,-0.3234730660915375,-0.2603524923324585,0.002971137873828411
1739817463870087200,8.492087158203125,-0.33868059515953064,-0.31946974992752075,-0.04482646659016609
1739817463880158200,8.502158203125,-0.34399253129959106,-0.3618907332420349,-0.09839648753404617
1739817463890229200,8.512229248046875,-0.35334527492523193,-0.3680717647075653,-0.15088136494159698
1739817463900300000,8.522300048828125,-0.36401256918907166,-0.32810142636299133,-0.19540250301361084
1739817463910372000,8.5323720703125,-0.3716284930706024,-0.24657313525676727,-0.2078247368335724
1739817463920443100,8.542443115234375,-0.3626459240913391,-0.1299746185541153,-0.1893109828233719
1739817463930514200,8.55251416015625,-0.3151327967643738,-0.0045410944148898125,-0.12670625746250153
1739817463940585200,8.562585205078125,-0.258558452129364,0.09932165592908859,-0.05394070968031883
1739817463950657000,8.572656982421876,-0.19461819529533386,0.1255098581314087,0.003511570394039154
1739817463960728000,8.58272802734375,-0.13483448326587677,0.068647101521492,0.033432718366384506
1739817463970799000,8.592799072265626,-0.08281946182250977,-0.041060447692871094,0.03884459659457207
1739817463980870100,8.6028701171875,-0.05498915910720825,-0.18707969784736633,0.016374174505472183
1739817463990942200,8.612942138671874,-0.037277258932590485,-0.30937501788139343,-0.019095657393336296
1739817464001013000,8.623012939453124,-0.03135945275425911,-0.41197171807289124,-0.04519277065992355
1739817464011084000,8.633083984375,-0.03540454059839249,-0.4628741145133972,-0.06145921349525452
1739817464021155000,8.643155029296874,-0.027395080775022507,-0.4611038863658905,-0.05057007819414139
1739817464031227100,8.65322705078125,-0.020388077944517136,-0.43115195631980896,-0.024672018364071846
1739817464041298200,8.663298095703125,-0.015251904726028442,-0.37709349393844604,0.0018738377839326859
1739817464051369200,8.673369140625,-0.0067355018109083176,-0.312177449464798,0.034361258149147034
1739817464061440300,8.683440185546875,-0.00939440168440342,-0.2703258693218231,0.058204807341098785
1739817464071511000,8.693510986328125,-0.027327245101332664,-0.24894118309020996,0.07672510296106339
1739817464081583000,8.7035830078125,-0.057565838098526,-0.23423200845718384,0.08273240178823471
1739817464091654100,8.713654052734375,-0.0960673913359642,-0.20614290237426758,0.09680689871311188
1739817464101728300,8.723728271484376,-0.12953878939151764,-0.14476530253887177,0.12258443236351013
1739817464111799300,8.73379931640625,-0.1563965231180191,-0.0523814857006073,0.17208151519298553
1739817464121871400,8.743871337890624,-0.18046137690544128,0.05706670880317688,0.22398492693901062
1739817464131942100,8.753942138671874,-0.1980731338262558,0.13872411847114563,0.27582985162734985
1739817464142013200,8.76401318359375,-0.2092411071062088,0.17178353667259216,0.3220248222351074
1739817464152084200,8.774084228515624,-0.2184697836637497,0.16225950419902802,0.3537173867225647
1739817464162156000,8.784156005859375,-0.22462381422519684,0.13637544214725494,0.3718487322330475
1739817464172227000,8.79422705078125,-0.2526790499687195,0.08282938599586487,0.3641784191131592
1739817464182298000,8.804298095703125,-0.291644811630249,0.013614902272820473,0.3239513635635376
1739817464192369200,8.814369140625,-0.33762481808662415,-0.0547013059258461,0.2636403441429138
1739817464202440000,8.82443994140625,-0.37899914383888245,-0.12740853428840637,0.1905064731836319
1739817464212512000,8.834511962890625,-0.40870222449302673,-0.1947256624698639,0.11420700699090958
1739817464222583000,8.8445830078125,-0.42180976271629333,-0.23471994698047638,0.04416933283209801
1739817464232654000,8.854654052734375,-0.4329847991466522,-0.2365240603685379,-0.015992149710655212
1739817464242725000,8.86472509765625,-0.43705305457115173,-0.22085215151309967,-0.07497504353523254
1739817464252797200,8.874797119140625,-0.42391377687454224,-0.20009806752204895,-0.12612873315811157
1739817464262868200,8.8848681640625,-0.3835575580596924,-0.16099433600902557,-0.16417518258094788
1739817464272939300,8.894939208984376,-0.3235524892807007,-0.1156727597117424,-0.1886528581380844
1739817464283010300,8.90501025390625,-0.243111714720726,-0.0536368153989315,-0.19600211083889008
1739817464293081000,8.9150810546875,-0.15880875289440155,0.005171200726181269,-0.18508969247341156
1739817464303153200,8.925153076171876,-0.06449557095766068,0.05136319622397423,-0.15119190514087677
1739817464313224200,8.93522412109375,0.027681929990649223,0.08138302713632584,-0.09565240889787674
1739817464323295200,8.945295166015624,0.10750805586576462,0.08654902875423431,-0.03606604039669037
1739817464333366300,8.9553662109375,0.16661018133163452,0.07148528099060059,0.01585935428738594
1739817464343438000,8.96543798828125,0.2089693546295166,0.03482661023736,0.05287676304578781
1739817464353509000,8.975509033203124,0.24263885617256165,-0.010843581520020962,0.08018351346254349
1739817464363580200,8.985580078125,0.2721101939678192,-0.05983322858810425,0.0906023308634758
1739817464373651000,8.99565087890625,0.2670251429080963,-0.10805363208055496,0.08683033287525177
1739817464383722000,9.005721923828125,0.23340274393558502,-0.1523904651403427,0.06329357624053955
1739817464393794000,9.0157939453125,0.17269805073738098,-0.1789456009864807,0.02695612609386444
1739817464403865000,9.025864990234375,0.10461406409740448,-0.18947841227054596,-0.009369656443595886
1739817464413936000,9.03593603515625,0.046715423464775085,-0.18572483956813812,-0.044560015201568604
1739817464424007200,9.046007080078125,0.005051601678133011,-0.15725751221179962,-0.06319975107908249
1739817464434078200,9.056078125,-0.0160317812114954,-0.11266309767961502,-0.07092544436454773
1739817464444150300,9.066150390625,-0.02751799486577511,-0.06605884432792664,-0.06481428444385529
1739817464454221300,9.07622119140625,-0.031075792387127876,-0.021423935890197754,-0.053458601236343384
1739817464464292000,9.0862919921875,-0.03319593518972397,0.006297973915934563,-0.03942933678627014
1739817464474363100,9.096363037109375,-0.02550259418785572,0.016895264387130737,-0.035346195101737976
1739817464484435200,9.106435302734376,-0.016461428254842758,0.027122335508465767,-0.0371137335896492
1739817464494506200,9.11650634765625,-0.012480361387133598,0.027862221002578735,-0.043006058782339096
1739817464504577300,9.126577392578126,-0.016270305961370468,0.029604461044073105,-0.048890579491853714
1739817464514648300,9.1366484375,-0.0319351889193058,0.04423346742987633,-0.05184294655919075
1739817464524719400,9.14671923828125,-0.04996798560023308,0.0651659145951271,-0.04574563726782799
1739817464534791200,9.156791259765624,-0.06174458935856819,0.09667279571294785,-0.03669234737753868
1739817464544862000,9.166862060546874,-0.06034376472234726,0.1172020360827446,-0.028299130499362946
1739817464554933000,9.17693310546875,-0.03746654838323593,0.11323750019073486,-0.027473006397485733
1739817464565004000,9.187004150390624,0.003378620371222496,0.08879048377275467,-0.032486140727996826
1739817464575075000,9.197074951171874,0.053535345941782,0.055707383900880814,-0.03868335485458374
1739817464585147100,9.207147216796875,0.09610597044229507,0.03540424257516861,-0.04212415963411331
1739817464595218200,9.21721826171875,0.12140927463769913,0.03780226409435272,-0.036429937928915024
1739817464605289200,9.227289306640625,0.1298549622297287,0.0629531592130661,-0.024454768747091293
1739817464615360000,9.237360107421875,0.129761204123497,0.10330850630998611,-0.003264239989221096
1739817464625431000,9.24743115234375,0.1263398379087448,0.13445045053958893,0.021493837237358093
1739817464635503000,9.257503173828125,0.11757256090641022,0.14187335968017578,0.041404347866773605
1739817464645574100,9.26757421875,0.10448765009641647,0.11643616855144501,0.05242716893553734
1739817464655645200,9.277645263671875,0.0829666331410408,0.07912513613700867,0.05299638584256172
1739817464665716200,9.28771630859375,0.05790787935256958,0.040959108620882034,0.049229610711336136
1739817464675787300,9.297787353515625,0.03740447014570236,0.0030937520787119865,0.037921298295259476
1739817464685859300,9.307859375,0.02517576701939106,-0.025396212935447693,0.032080188393592834
1739817464695930400,9.317930419921876,0.018288515508174896,-0.03759065270423889,0.021841086447238922
1739817464706001200,9.328001220703126,0.019920499995350838,-0.039896950125694275,0.01833822950720787
1739817464716072200,9.338072265625,0.018696129322052002,-0.01652386225759983,0.027174681425094604
1739817464726143200,9.348143310546876,0.017384521663188934,0.0164474043995142,0.03486482426524162
1739817464736215000,9.358215087890626,0.007191062439233065,0.033398255705833435,0.0491575226187706
1739817464746286000,9.3682861328125,0.0036522536538541317,0.04756813496351242,0.05806579440832138
1739817464756357000,9.378357177734374,-0.000663132406771183,0.07809435576200485,0.07256297767162323
1739817464766428200,9.38842822265625,-0.002733740257099271,0.11155298352241516,0.08481458574533463
1739817464776499000,9.3984990234375,0.004609735682606697,0.13730861246585846,0.10680035501718521
1739817464786571000,9.408571044921874,0.02538292482495308,0.1672244369983673,0.13316431641578674
1739817464796642000,9.41864208984375,0.055688031017780304,0.1922062188386917,0.16417527198791504
1739817464806713000,9.428713134765625,0.0965086966753006,0.21126513183116913,0.1944255828857422
1739817464816784100,9.4387841796875,0.13033701479434967,0.23068182170391083,0.22163036465644836
1739817464826855200,9.448855224609375,0.14667098224163055,0.25405770540237427,0.2340705245733261
1739817464836927200,9.45892724609375,0.14776185154914856,0.27838966250419617,0.23106104135513306
1739817464846998300,9.468998291015625,0.14159023761749268,0.30166488885879517,0.22986236214637756
1739817464857069000,9.479069091796875,0.1329973340034485,0.33785468339920044,0.23049010336399078
1739817464867140000,9.48914013671875,0.12771868705749512,0.3964436948299408,0.22923442721366882
1739817464877211100,9.499211181640625,0.12581221759319305,0.3594614565372467,0.20607854425907135
1739817464887283200,9.509283203125,0.13234202563762665,0.17549853026866913,0.14388655126094818
1739817464897354200,9.519354248046875,0.1350356638431549,-0.041483424603939056,0.06504837423563004
1739817464907425300,9.52942529296875,0.10483835637569427,-0.21824009716510773,-0.0066191526129841805
1739817464917496300,9.539496337890625,0.056347377598285675,-0.2955766022205353,-0.05190062150359154
1739817464927567400,9.5495673828125,-0.0010581249371170998,-0.29103752970695496,-0.07932212948799133
1739817464937639200,9.55963916015625,-0.02848002500832081,-0.2610416114330292,-0.08790814876556396
1739817464947710000,9.5697099609375,-0.0284320879727602,-0.22191712260246277,-0.07801876962184906
1739817464957781000,9.579781005859376,-0.019473806023597717,-0.20864783227443695,-0.07405531406402588
1739817464967852000,9.58985205078125,-0.009245403110980988,-0.19117535650730133,-0.07414186745882034
1739817464977923000,9.599923095703126,0.0011448320001363754,-0.15147581696510315,-0.06962615996599197
1739817464987995100,9.6099951171875,-0.0002962043508887291,-0.08757753670215607,-0.058102671056985855
1739817464998066200,9.620066162109374,-0.005992782302200794,0.0021427813917398453,-0.033159174025058746
1739817465008137200,9.63013720703125,-0.010793928988277912,0.09716890007257462,0.010124115273356438
1739817465018208000,9.6402080078125,-0.01078889798372984,0.19338595867156982,0.07506442815065384
1739817465028279000,9.650279052734374,-0.004756305832415819,0.2936757802963257,0.14820361137390137
1739817465038350000,9.66035009765625,0.007260380778461695,0.3811028301715851,0.20720401406288147
1739817465048422100,9.670422119140625,0.03012814372777939,0.4416721761226654,0.237460196018219
1739817465058493200,9.6804931640625,0.06369264423847198,0.4943333864212036,0.2431274801492691
1739817465068564200,9.690564208984375,0.10327920317649841,0.542646050453186,0.22702042758464813
1739817465078635300,9.70063525390625,0.1344372034072876,0.5697230100631714,0.18944422900676727
1739817465088706000,9.7107060546875,0.15386390686035156,0.5720983147621155,0.15014316141605377
1739817465098778400,9.7207783203125,0.15928548574447632,0.5363880395889282,0.11178907006978989
1739817465108849400,9.730849365234375,0.1616770178079605,0.4560108780860901,0.07732563465833664
1739817465118920200,9.740920166015625,0.17145727574825287,0.3403201401233673,0.04661703109741211
1739817465128991200,9.7509912109375,0.1733795404434204,0.15357503294944763,0.02050607092678547
1739817465139062300,9.761062255859375,0.1738538146018982,-0.04828767105937004,0.013732348568737507
1739817465149134000,9.771134033203126,0.18932464718818665,-0.21778082847595215,0.02449418231844902
1739817465159205000,9.781205078125,0.20875288546085358,-0.34765997529029846,0.039214931428432465
1739817465169276200,9.791276123046876,0.21995121240615845,-0.41999301314353943,0.044527940452098846
1739817465179347200,9.80134716796875,0.22683238983154297,-0.4291403293609619,0.027772773057222366
1739817465189418000,9.81141796875,0.2241673618555069,-0.3519006669521332,0.0159310270100832
1739817465199489000,9.821489013671876,0.21662184596061707,-0.2146422564983368,0.014860870316624641
1739817465209561000,9.83156103515625,0.19815175235271454,-0.04743941128253937,0.021622903645038605
1739817465219632000,9.841632080078124,0.1846836656332016,0.10638587921857834,0.04653824493288994
1739817465229703200,9.851703125,0.17979782819747925,0.2123786211013794,0.08311809599399567
1739817465239774200,9.861774169921874,0.18478739261627197,0.2565276622772217,0.1148541048169136
1739817465249845200,9.87184521484375,0.19355955719947815,0.250973105430603,0.14569564163684845
1739817465259916000,9.881916015625,0.20876100659370422,0.19684384763240814,0.16384324431419373
1739817465269988000,9.891988037109375,0.2123972773551941,0.12381172180175781,0.17420239746570587
1739817465280059100,9.90205908203125,0.21783329546451569,0.051280297338962555,0.17658373713493347
1739817465290130200,9.912130126953125,0.20781661570072174,0.006646250374615192,0.17011092603206635
1739817465300201200,9.922201171875,0.18753132224082947,-0.012881111353635788,0.14787405729293823
1739817465310272300,9.932272216796875,0.16433198750019073,0.008965863846242428,0.10865287482738495
1739817465320343300,9.94234326171875,0.13708838820457458,0.04629965499043465,0.060319170355796814
1739817465330415400,9.952415283203125,0.11122137308120728,0.07846025377511978,0.007909758016467094
1739817465340486400,9.962486328125,0.09514486789703369,0.09486167877912521,-0.03133409470319748
1739817465350557200,9.97255712890625,0.08424881100654602,0.09753682464361191,-0.06682205200195312
1739817465360628200,9.982628173828125,0.07993672043085098,0.08875805884599686,-0.09136892110109329
1739817465370699300,9.99269921875,0.08365822583436966,0.05909843370318413,-0.10794097185134888
1739817465380771000,10.00277099609375,0.0889003649353981,0.016860947012901306,-0.12065736949443817
1739817465390842000,10.012842041015626,0.09260082989931107,-0.04089076444506645,-0.12743830680847168
1739817465400913200,10.0229130859375,0.09687443822622299,-0.08609004318714142,-0.1472218930721283
1739817465410984200,10.032984130859376,0.10005638748407364,-0.11060656607151031,-0.17332006990909576
1739817465421055000,10.043054931640626,0.11373055726289749,-0.10601095110177994,-0.19999147951602936
1739817465431126000,10.0531259765625,0.13752031326293945,-0.06853814423084259,-0.21865251660346985
1739817465441198000,10.063197998046874,0.15929003059864044,0.0009489557705819607,-0.22141490876674652
1739817465451269000,10.07326904296875,0.18688809871673584,0.08066322654485703,-0.20817847549915314
1739817465461340200,10.083340087890624,0.21657508611679077,0.15847502648830414,-0.17430469393730164
1739817465471411200,10.0934111328125,0.24597053229808807,0.21970854699611664,-0.1253667175769806
1739817465481482200,10.103482177734374,0.26717931032180786,0.2501722574234009,-0.067938432097435
1739817465491553000,10.113552978515624,0.2783192992210388,0.23035593330860138,-0.033485379070043564
1739817465501624000,10.1236240234375,0.29092857241630554,0.19707950949668884,-0.002330382354557514
1739817465511696100,10.133696044921875,0.30097243189811707,0.16602838039398193,0.013709836639463902
1739817465521767200,10.14376708984375,0.3051527738571167,0.12049253284931183,0.008552015759050846
1739817465531838200,10.153838134765625,0.3090159296989441,0.056152425706386566,-0.003108634613454342
1739817465541909200,10.1639091796875,0.3014424443244934,-0.00032474566251039505,-0.014640133827924728
1739817465551980300,10.173980224609375,0.2808426320552826,-0.04586959257721901,-0.02204691618680954
1739817465562051000,10.184051025390625,0.2440061867237091,-0.08760420978069305,-0.03742000460624695
1739817465572123400,10.194123291015625,0.20361988246440887,-0.11533623933792114,-0.05404079705476761
1739817465582194200,10.204194091796875,0.1681261956691742,-0.13218428194522858,-0.07475574314594269
1739817465592265200,10.21426513671875,0.1354534775018692,-0.14760823547840118,-0.09055069088935852
1739817465602336300,10.224336181640625,0.10634580999612808,-0.15201620757579803,-0.09558311104774475
1739817465612407300,10.2344072265625,0.08532175421714783,-0.14994612336158752,-0.08833904564380646
1739817465622478300,10.244478271484375,0.06060612201690674,-0.13797973096370697,-0.07291034609079361
1739817465632550100,10.254550048828126,0.03548159822821617,-0.10277486592531204,-0.0509970560669899
1739817465642621200,10.26462109375,0.007372131571173668,-0.0648619756102562,-0.03486625850200653
1739817465652692000,10.27469189453125,-0.02265074849128723,-0.02564559504389763,-0.01740390993654728
1739817465662763000,10.284762939453126,-0.055491264909505844,-0.0014045783318579197,-0.005836104042828083
1739817465672834000,10.294833984375,-0.07939473539590836,0.008011826314032078,-0.0010352237150073051
1739817465682905000,10.304905029296876,-0.09555818140506744,-0.0012921462766826153,0.0001655416563153267
1739817465692976000,10.31497607421875,-0.10446805506944656,-0.01608041301369667,0.003543495200574398
1739817465703048200,10.325048095703124,-0.10226470232009888,-0.030288569629192352,0.0050842249765992165
1739817465713119200,10.335119140625,-0.10158319771289825,-0.0596560463309288,0.005148140713572502
1739817465723190000,10.34518994140625,-0.09620672464370728,-0.07230018824338913,0.00032608676701784134
1739817465733261000,10.355260986328124,-0.08607392758131027,-0.07405520975589752,-0.0008659446612000465
1739817465743332000,10.36533203125,-0.07688937336206436,-0.07561855018138885,-0.0017195679247379303
1739817465753403100,10.375403076171875,-0.06893717497587204,-0.07306031882762909,-0.005147853866219521
1739817465763475200,10.38547509765625,-0.05708988755941391,-0.07817760854959488,-0.005504860542714596
1739817465773546200,10.395546142578125,-0.04654110595583916,-0.07873793691396713,-0.0025815097615122795
1739817465783617300,10.4056171875,-0.046612005680799484,-0.07402937859296799,0.007250305265188217
1739817465793688000,10.41568798828125,-0.057204995304346085,-0.07411299645900726,0.012407250702381134
1739817465803759000,10.425759033203125,-0.06948564946651459,-0.07831574231386185,0.013894287869334221
1739817465813830100,10.435830078125,-0.07920033484697342,-0.07842572778463364,0.024562645703554153
1739817465823901200,10.445901123046875,-0.079583078622818,-0.07778669893741608,0.041134804487228394
1739817465833973200,10.45597314453125,-0.0732484832406044,-0.08231434226036072,0.06188322603702545
1739817465844044300,10.466044189453125,-0.07169224321842194,-0.10200941562652588,0.07634267210960388
1739817465854115300,10.476115234375,-0.07770992070436478,-0.10174176841974258,0.09004756808280945
1739817465864186400,10.486186279296875,-0.07688547670841217,-0.07589740306138992,0.1189529225230217
1739817465874257200,10.496257080078125,-0.08671626448631287,-0.04169921949505806,0.1534203588962555
1739817465884328200,10.506328125,-0.10084426403045654,-0.04532773792743683,0.18074700236320496
1739817465894399200,10.516399169921876,-0.1208304837346077,-0.10489146411418915,0.1999976634979248
1739817465904471000,10.526470947265626,-0.14871914684772491,-0.20926077663898468,0.19244825839996338
1739817465914542000,10.5365419921875,-0.18461589515209198,-0.3083926737308502,0.1581358015537262
1739817465924613000,10.546613037109376,-0.23414981365203857,-0.4263123571872711,0.08630090206861496
1739817465934684200,10.55668408203125,-0.2918245494365692,-0.5582429766654968,-0.015711478888988495
1739817465944755200,10.566755126953124,-0.3577515482902527,-0.6314524412155151,-0.1295887678861618
1739817465954826200,10.576826171875,-0.4301604926586151,-0.6376866102218628,-0.23638950288295746
1739817465964897300,10.586897216796874,-0.4848331809043884,-0.5659586787223816,-0.32701191306114197
1739817465974969000,10.596968994140624,-0.49942970275878906,-0.42396479845046997,-0.3708363473415375
1739817465985040100,10.6070400390625,-0.4769321382045746,-0.2542966604232788,-0.3668912649154663
1739817465995111200,10.617111083984375,-0.41820594668388367,-0.09090746194124222,-0.3190137445926666
1739817466005182200,10.62718212890625,-0.3292367160320282,0.04616408422589302,-0.22543494403362274
1739817466015253000,10.6372529296875,-0.22243890166282654,0.12294940650463104,-0.11031820625066757
1739817466025324000,10.647323974609375,-0.09613734483718872,0.14550241827964783,0.010970354080200195
1739817466035395000,10.65739501953125,0.03623001649975777,0.13098233938217163,0.11864382028579712
1739817466045467100,10.667467041015625,0.14692498743534088,0.0763629749417305,0.21344400942325592
1739817466055538200,10.6775380859375,0.22609996795654297,0.049728430807590485,0.2934669256210327
1739817466065609200,10.687609130859375,0.26820239424705505,0.08696939051151276,0.36440983414649963
1739817466075680300,10.69768017578125,0.27831414341926575,0.17539112269878387,0.42955368757247925
1739817466085751000,10.7077509765625,0.25374388694763184,0.28017374873161316,0.4942236542701721
1739817466095822000,10.717822021484375,0.20039860904216766,0.3659869134426117,0.5561919808387756
1739817466105894400,10.727894287109375,0.1239250898361206,0.4037834107875824,0.6133899688720703
1739817466115965400,10.73796533203125,0.03660402446985245,0.401118665933609,0.6612498760223389
1739817466126037200,10.748037353515626,-0.07096048444509506,0.34618449211120605,0.6826114654541016
1739817466136108300,10.7581083984375,-0.18120203912258148,0.27319949865341187,0.6825276017189026
1739817466146179000,10.768178955078126,-0.29057776927948,0.19152367115020752,0.6670758128166199
1739817466156250000,10.77825,-0.4071592688560486,0.07324175536632538,0.6062990427017212
1739817466166321200,10.788321044921876,-0.49264344573020935,-0.04094643145799637,0.5107104182243347
1739817466176392200,10.79839208984375,-0.5547481179237366,-0.13925649225711823,0.38520604372024536
1739817466186463200,10.808463134765624,-0.5948456525802612,-0.22471675276756287,0.23837120831012726
1739817466196535300,10.818535400390624,-0.6099998354911804,-0.27921754121780396,0.08661338686943054
1739817466206606300,10.8286064453125,-0.6158203482627869,-0.30353668332099915,-0.059282317757606506
1739817466216677000,10.838677001953124,-0.6256191730499268,-0.3038858473300934,-0.19270296394824982
1739817466226748200,10.848748046875,-0.622907280921936,-0.27475735545158386,-0.3119366765022278
1739817466236819200,10.858819091796875,-0.601902961730957,-0.20614741742610931,-0.41063928604125977
1739817466246890200,10.86889013671875,-0.5487267374992371,-0.12217485904693604,-0.46753135323524475
1739817466256961300,10.878961181640625,-0.46626755595207214,-0.003004001220688224,-0.4684397578239441
1739817466267032300,10.8890322265625,-0.3678935170173645,0.11746107041835785,-0.3947974145412445
1739817466277104400,10.8991044921875,-0.25428837537765503,0.22217123210430145,-0.2729252874851227
1739817466287175400,10.909175537109375,-0.13649649918079376,0.29696929454803467,-0.12122273445129395
1739817466297246200,10.91924609375,-0.040885284543037415,0.33706560730934143,0.017305312678217888
1739817466307317200,10.929317138671875,0.03085559420287609,0.3118676245212555,0.10549890995025635
1739817466317388300,10.93938818359375,0.0807643011212349,0.22953785955905914,0.13815858960151672
1739817466327459300,10.949459228515625,0.11855261027812958,0.13517244160175323,0.12957143783569336
1739817466337530400,10.9595302734375,0.137613907456398,0.06823068857192993,0.10374701768159866
1739817466347601400,10.969601318359375,0.12731099128723145,0.03213968127965927,0.06580707430839539
1739817466357672200,10.979672119140625,0.09309069067239761,0.017313595861196518,0.026680175215005875
1739817466367744300,10.989744140625,0.06241949647665024,0.005650484934449196,0.0007669543847441673
1739817466377815300,10.999815185546876,0.04027877002954483,-0.005323336459696293,-0.017980102449655533
1739817466387886300,11.00988623046875,0.02430647239089012,-0.042579758912324905,-0.03157936781644821
1739817466397957400,11.019957275390626,0.010650579817593098,-0.09934210032224655,-0.052762143313884735
1739817466408028400,11.0300283203125,-0.004694425500929356,-0.14071078598499298,-0.08707758039236069
1739817466418099500,11.040099365234376,-0.027644481509923935,-0.17651644349098206,-0.12383266538381577
1739817466428170200,11.050170166015626,-0.05615132302045822,-0.17460499703884125,-0.16390249133110046
1739817466438241300,11.0602412109375,-0.08794333785772324,-0.14507614076137543,-0.19825540482997894
1739817466448313300,11.070313232421874,-0.11610385775566101,-0.08890354633331299,-0.22670046985149384
1739817466458384400,11.08038427734375,-0.1369106024503708,-0.03149804472923279,-0.2502467930316925
1739817466468455400,11.090455322265624,-0.14629681408405304,0.010849195532500744,-0.2735677659511566
1739817466478526500,11.1005263671875,-0.13427211344242096,0.03343360126018524,-0.2818363308906555
1739817466488597500,11.110597412109374,-0.10727444291114807,0.0455760695040226,-0.27721744775772095
1739817466498668300,11.120668212890624,-0.07616472989320755,0.051273636519908905,-0.2578893005847931
1739817466508739300,11.1307392578125,-0.042573876678943634,0.06845789402723312,-0.22952227294445038
1739817466518810400,11.140810302734375,-0.006518136709928513,0.09888770431280136,-0.1857827752828598
1739817466528881400,11.15088134765625,0.03304620832204819,0.12285582721233368,-0.14584960043430328
1739817466538953200,11.160953125,0.06759193539619446,0.133071169257164,-0.12165531516075134
1739817466549024300,11.171024169921875,0.10625222325325012,0.13183972239494324,-0.11728807538747787
1739817466559095300,11.18109521484375,0.15056028962135315,0.11853350698947906,-0.1215968057513237
1739817466569166000,11.191166015625,0.1866314858198166,0.0993795245885849,-0.1267140507698059
1739817466579237000,11.201237060546875,0.20527653396129608,0.07423874735832214,-0.12698012590408325
1739817466589308200,11.21130810546875,0.21185843646526337,0.055022791028022766,-0.12262476980686188
1739817466599379200,11.221379150390625,0.21180303394794464,0.029908116906881332,-0.11080273985862732
1739817466609450200,11.2314501953125,0.21779316663742065,0.008309547789394855,-0.08946189284324646
1739817466619521300,11.241521240234375,0.22510167956352234,0.00026200711727142334,-0.05781661346554756
1739817466629592000,11.251592041015625,0.22433307766914368,0.004634376615285873,-0.02855546958744526
1739817466639664400,11.261664306640625,0.2154889851808548,0.028513077646493912,-0.009880585595965385
1739817466649735200,11.271735107421875,0.20501640439033508,0.044300973415374756,-0.008784187957644463
1739817466659806200,11.28180615234375,0.19122709333896637,0.05255171284079552,-0.014107581228017807
1739817466669877200,11.291877197265626,0.17768117785453796,0.057141534984111786,-0.026916224509477615
1739817466679948300,11.3019482421875,0.1567939966917038,0.043131180107593536,-0.05108840391039848
1739817466690019300,11.312019287109376,0.13569870591163635,0.033285513520240784,-0.07157513499259949
1739817466700090400,11.32209033203125,0.11446984112262726,0.03641659766435623,-0.08051164448261261
1739817466710161200,11.3321611328125,0.10047277063131332,0.05699944123625755,-0.07889585196971893
1739817466720232200,11.342232177734376,0.09549053013324738,0.0892561748623848,-0.06926453113555908
1739817466730304300,11.35230419921875,0.1028856411576271,0.1329343467950821,-0.04460497573018074
1739817466740375300,11.362375244140624,0.12145799398422241,0.17852100729942322,-0.007745225913822651
1739817466750446300,11.3724462890625,0.15228845179080963,0.19905418157577515,0.02986176684498787
1739817466760517400,11.382517333984374,0.1774931401014328,0.19574734568595886,0.06423225998878479
1739817466770588400,11.39258837890625,0.20413325726985931,0.18834690749645233,0.08734072744846344
1739817466780659200,11.4026591796875,0.2182309627532959,0.18199659883975983,0.10275829583406448
1739817466790730200,11.412730224609374,0.22408001124858856,0.18518199026584625,0.10982824862003326
1739817466800801300,11.42280126953125,0.23537661135196686,0.21301043033599854,0.11486295610666275
1739817466810872300,11.432872314453125,0.240088552236557,0.24286432564258575,0.12499351799488068
1739817466820943400,11.442943359375,0.24632781744003296,0.28491511940956116,0.13757136464118958
1739817466831014400,11.453014404296875,0.2519835829734802,0.318173348903656,0.15404006838798523
1739817466841086500,11.46308642578125,0.2628119885921478,0.32430580258369446,0.17062515020370483
1739817466851157200,11.4731572265625,0.2760941684246063,0.2937149405479431,0.18462558090686798
1739817466861228300,11.483228271484375,0.2890307307243347,0.26422521471977234,0.20219019055366516
1739817466871299300,11.49329931640625,0.2929835021495819,0.2619037926197052,0.21335449814796448
1739817466881370400,11.503370361328125,0.29251641035079956,0.2980234622955322,0.20596209168434143
1739817466891441400,11.51344140625,0.2858206629753113,0.27522769570350647,0.17382684350013733
1739817466901512400,11.523512451171875,0.2918356657028198,0.1578720211982727,0.11065346002578735
1739817466911583200,11.533583251953125,0.2898896038532257,0.008394226431846619,0.019602462649345398
1739817466921654300,11.543654296875,0.2910752296447754,-0.13854356110095978,-0.086335688829422
1739817466931725300,11.553725341796875,0.28502336144447327,-0.2780742645263672,-0.1813572496175766
1739817466941796400,11.56379638671875,0.25885486602783203,-0.37066492438316345,-0.2622949481010437
1739817466951868400,11.573868408203126,0.2298503816127777,-0.4252401888370514,-0.31470412015914917
1739817466961939500,11.583939453125,0.202482670545578,-0.4203311800956726,-0.3264620006084442
1739817466972010500,11.594010498046876,0.1753508299589157,-0.36221471428871155,-0.29222172498703003
1739817466982081500,11.60408154296875,0.1416780948638916,-0.23826853930950165,-0.2115391194820404
1739817466992152300,11.61415234375,0.11488370597362518,-0.032378900796175,-0.08227952569723129
1739817467002223400,11.624223388671876,0.08523979038000107,0.19227978587150574,0.07618868350982666
1739817467012294400,11.63429443359375,0.07381100207567215,0.37742581963539124,0.23239153623580933
1739817467022365400,11.644365478515626,0.08087396621704102,0.5099951028823853,0.33754298090934753
1739817467032436500,11.6544365234375,0.09213752299547195,0.558873176574707,0.39346766471862793
1739817467042507500,11.664507568359374,0.0912988930940628,0.5697476863861084,0.4097539782524109
1739817467052578300,11.674578369140624,0.07566894590854645,0.558032214641571,0.3909600079059601
1739817467062649300,11.6846494140625,0.05239264667034149,0.5472581386566162,0.376583456993103
1739817467072721200,11.69472119140625,0.041172824800014496,0.5374326705932617,0.3506235182285309
1739817467082792200,11.704792236328124,0.039172522723674774,0.529268205165863,0.32806921005249023
1739817467092863200,11.71486328125,0.05626172572374344,0.5088952779769897,0.32605892419815063
1739817467102933800,11.724933837890624,0.0832131877541542,0.4720827043056488,0.3455263674259186
1739817467113004800,11.7350048828125,0.11751823127269745,0.3967694044113159,0.35785049200057983
1739817467123075800,11.745075927734375,0.1579710990190506,0.27838870882987976,0.3630923926830292
1739817467133147000,11.75514697265625,0.18613868951797485,0.13157208263874054,0.3443235456943512
1739817467143218000,11.765218017578125,0.18955925107002258,-0.027621030807495117,0.2884528338909149
1739817467153289000,11.7752890625,0.1696610450744629,-0.17171373963356018,0.19881930947303772
1739817467163360000,11.785360107421875,0.13884587585926056,-0.30033057928085327,0.08657187223434448
1739817467173430800,11.7954306640625,0.11450840532779694,-0.3975033462047577,-0.01919318176805973
1739817467183501800,11.805501708984375,0.0964130237698555,-0.44347935914993286,-0.09944221377372742
1739817467193572900,11.81557275390625,0.06241382658481598,-0.4395297169685364,-0.16814620792865753
1739817467203644700,11.825644775390625,0.005330298561602831,-0.40738964080810547,-0.23238004744052887
1739817467213715700,11.8357158203125,-0.045256804674863815,-0.3245900869369507,-0.2757489085197449
1739817467223786800,11.845786865234375,-0.08504070341587067,-0.2124539613723755,-0.2987370491027832
1739817467233857800,11.85585791015625,-0.11473545432090759,-0.09995151311159134,-0.3006654679775238
1739817467243928800,11.8659287109375,-0.12929069995880127,0.01809709332883358,-0.2772456407546997
1739817467253999600,11.87599951171875,-0.12003064155578613,0.11754205077886581,-0.22029311954975128
1739817467264070700,11.886070556640625,-0.08126779645681381,0.20937851071357727,-0.13050676882266998
1739817467274141700,11.8961416015625,-0.02691727876663208,0.2722902297973633,-0.02951183170080185
1739817467284212700,11.906212646484375,0.030527638271450996,0.31575220823287964,0.05237877368927002
1739817467294283800,11.91628369140625,0.08576430380344391,0.342552125453949,0.1066722422838211
1739817467304354800,11.926354736328125,0.13306577503681183,0.35115575790405273,0.13428336381912231
1739817467314425600,11.936425537109375,0.14883340895175934,0.33458277583122253,0.140272855758667
1739817467324496600,11.94649658203125,0.12477892637252808,0.28334328532218933,0.15839965641498566
1739817467334567700,11.956567626953126,0.122390016913414,0.17206086218357086,0.12940464913845062
1739817467344638700,11.966638671875,0.08845841884613037,0.10190120339393616,0.09201653301715851
1739817467354710800,11.976710693359376,0.05080578476190567,0.016850890591740608,0.06549160927534103
1739817467364781800,11.98678173828125,0.025621600449085236,-0.07986392825841904,0.018336612731218338
1739817467374852900,11.996852783203124,0.005461335647851229,-0.1331872195005417,-0.04208877310156822
1739817467384923600,12.006923583984374,-0.015581898391246796,-0.15101228654384613,-0.09809931367635727
1739817467394994700,12.01699462890625,-0.03036251664161682,-0.1453687995672226,-0.14469905197620392
1739817467405065700,12.027065673828124,-0.039170119911432266,-0.11636057496070862,-0.17646843194961548
1739817467415136800,12.03713671875,-0.044925056397914886,-0.08239660412073135,-0.20458349585533142
1739817467425207800,12.047207763671874,-0.05138455331325531,-0.06440615653991699,-0.233177050948143
1739817467435278800,12.05727880859375,-0.05645158141851425,-0.06077639013528824,-0.2655040919780731
1739817467445349600,12.067349609375,-0.06404584646224976,-0.06290718913078308,-0.29446518421173096
1739817467455420700,12.077420654296875,-0.07951526343822479,-0.06838065385818481,-0.3243200182914734
1739817467465491700,12.08749169921875,-0.09391710162162781,-0.057979412376880646,-0.33835408091545105
1739817467475562800,12.097562744140625,-0.10150809586048126,-0.009275916963815689,-0.33442890644073486
1739817467485633800,12.1076337890625,-0.0942981168627739,0.0718492940068245,-0.3050401210784912
1739817467495704800,12.117704833984375,-0.06339890509843826,0.1553504467010498,-0.26353591680526733
1739817467505777000,12.12777685546875,-0.010052061639726162,0.2407899796962738,-0.21253637969493866
1739817467515847700,12.13784765625,0.05155660957098007,0.2741057276725769,-0.15511994063854218
1739817467525918700,12.147918701171875,0.10972005128860474,0.25634217262268066,-0.10493240505456924
1739817467535989800,12.15798974609375,0.1608264446258545,0.21934102475643158,-0.05609561502933502
1739817467546060800,12.168060791015625,0.19946545362472534,0.15798258781433105,-0.017076846212148666
1739817467556131800,12.1781318359375,0.22878415882587433,0.07934889197349548,0.013137811794877052
1739817467566203000,12.188202880859375,0.24052950739860535,-0.02097930945456028,0.041969459503889084
1739817467576273700,12.198273681640625,0.23747383058071136,-0.1134413331747055,0.0590021125972271
1739817467586344700,12.2083447265625,0.20951011776924133,-0.19124718010425568,0.06928564608097076
1739817467596415700,12.218415771484375,0.16572900116443634,-0.24572627246379852,0.05957111716270447
1739817467606486800,12.22848681640625,0.11610393226146698,-0.28124165534973145,0.03303538262844086
1739817467616557800,12.238557861328125,0.0629083663225174,-0.28279000520706177,0.004416590556502342
