time,seconds_elapsed,z,y,x
1739817455399987500,0.021987548828125,-33.176971435546875,-18.568389892578125,-14.002921104431152
1739817455410059500,0.0320595703125,-33.05419921875,-18.507164001464844,-14.021674156188965
1739817455420131300,0.04213134765625,-33.162811279296875,-18.87924575805664,-14.150397300720215
1739817455430202400,0.052202392578125,-32.958526611328125,-19.575695037841797,-14.429911613464355
1739817455440274400,0.0622744140625,-32.755462646484375,-19.792314529418945,-14.55376148223877
1739817455450346500,0.072346435546875,-32.85443115234375,-19.698217391967773,-14.827645301818848
1739817455460417500,0.08241748046875,-33.00347900390625,-19.564971923828125,-14.875773429870605
1739817455470489600,0.092489501953125,-32.615753173828125,-20.01563835144043,-14.732159614562988
1739817455480561400,0.1025615234375,-32.12310791015625,-20.018009185791016,-14.755898475646973
1739817455490633500,0.112633544921875,-32.14105224609375,-20.21002960205078,-15.119956016540527
1739817455500704500,0.12270458984375,-32.1959228515625,-20.300682067871094,-15.081772804260254
1739817455510776600,0.132776611328125,-32.25396728515625,-20.098644256591797,-14.892395973205566
1739817455520848600,0.1428486328125,-32.2398681640625,-20.251502990722656,-15.094826698303223
1739817455530919400,0.15291943359375,-32.494873046875,-20.520292282104492,-15.16906452178955
1739817455540991500,0.162991455078125,-32.13531494140625,-20.331632614135742,-14.993815422058105
1739817455551063600,0.1730634765625,-32.158203125,-20.541013717651367,-15.000569343566895
1739817455561134600,0.183134521484375,-31.87969970703125,-20.690290451049805,-14.899161338806152
1739817455571206700,0.19320654296875,-32.17333984375,-20.691099166870117,-14.882044792175293
1739817455581278500,0.203278564453125,-32.264495849609375,-20.94849967956543,-14.894082069396973
1739817455591349500,0.213349609375,-32.169586181640625,-21.008277893066406,-14.73144245147705
1739817455601421600,0.223421630859375,-31.951629638671875,-20.66275978088379,-14.583090782165527
1739817455611493600,0.23349365234375,-32.11212158203125,-21.079557418823242,-14.630541801452637
1739817455621565700,0.243565673828125,-31.9990234375,-20.985942840576172,-14.590472221374512
1739817455631636700,0.25363671875,-31.959869384765625,-21.04104995727539,-14.777235984802246
1739817455641708500,0.26370849609375,-31.873291015625,-21.323312759399414,-15.05836009979248
1739817455651780600,0.273780517578125,-31.85101318359375,-21.162677764892578,-15.173991203308105
1739817455661851600,0.2838515625,-31.889404296875,-20.94863510131836,-15.13428783416748
1739817455671923700,0.293923828125,-31.621490478515625,-20.969890594482422,-15.108162879943848
1739817455681995500,0.30399560546875,-31.68914794921875,-21.134418487548828,-15.208653450012207
1739817455692066300,0.31406640625,-31.482086181640625,-21.121273040771484,-15.125868797302246
1739817455702138600,0.324138671875,-31.59649658203125,-21.016908645629883,-15.124312400817871
1739817455712210700,0.334210693359375,-31.319091796875,-20.85609245300293,-14.972039222717285
1739817455722281500,0.344281494140625,-31.43902587890625,-21.00360107421875,-15.028265953063965
1739817455732353500,0.354353515625,-31.5633544921875,-21.229829788208008,-15.020737648010254
1739817455742425300,0.36442529296875,-31.6590576171875,-20.948719024658203,-15.258273124694824
1739817455752496400,0.374496337890625,-31.445770263671875,-21.13284683227539,-15.213934898376465
1739817455762568400,0.384568359375,-31.389129638671875,-21.058124542236328,-15.284790992736816
1739817455772640500,0.394640625,-31.439300537109375,-21.335180282592773,-15.53773021697998
1739817455782711600,0.404711669921875,-31.67938232421875,-21.21207618713379,-15.46956729888916
1739817455792783600,0.41478369140625,-31.29144287109375,-21.325584411621094,-15.572470664978027
1739817455802855400,0.42485546875,-30.9766845703125,-21.50380516052246,-15.394835472106934
1739817455812927500,0.434927490234375,-31.24151611328125,-21.45406723022461,-15.413485527038574
1739817455822998500,0.44499853515625,-30.879852294921875,-21.31201934814453,-15.645125389099121
1739817455833070600,0.455070556640625,-31.06671142578125,-21.390378952026367,-15.316483497619629
1739817455843142400,0.465142333984375,-31.036529541015625,-21.281635284423828,-15.338177680969238
1739817455853213400,0.47521337890625,-30.962860107421875,-21.340524673461914,-15.375441551208496
1739817455863285500,0.485285400390625,-30.576324462890625,-21.41487693786621,-15.458418846130371
1739817455873357600,0.495357666015625,-31.0916748046875,-21.309009552001953,-15.270155906677246
1739817455883428600,0.5054287109375,-30.906768798828125,-21.43408203125,-15.337916374206543
1739817455893500700,0.515500732421875,-30.971771240234375,-21.36543083190918,-15.242289543151855
1739817455903572500,0.525572509765625,-31.1649169921875,-21.48726463317871,-15.144686698913574
1739817455913643500,0.5356435546875,-30.978851318359375,-21.488515853881836,-15.188942909240723
1739817455923715600,0.545715576171875,-30.98187255859375,-21.610410690307617,-15.398518562316895
1739817455933787600,0.55578759765625,-30.930206298828125,-21.65775489807129,-15.03784465789795
1739817455943858700,0.565858642578125,-31.263214111328125,-21.681774139404297,-14.884903907775879
1739817455953930500,0.575930419921875,-31.152313232421875,-21.702354431152344,-14.901150703430176
1739817455964002600,0.58600244140625,-31.1492919921875,-21.660093307495117,-14.918665885925293
1739817455974073600,0.596073486328125,-31.37469482421875,-21.58050537109375,-14.769692420959473
1739817455984145700,0.606145751953125,-31.15191650390625,-21.650062561035156,-14.735676765441895
1739817455994217700,0.6162177734375,-31.25408935546875,-21.77585220336914,-14.678435325622559
1739817456004288500,0.62628857421875,-31.370269775390625,-21.87729263305664,-14.773955345153809
1739817456014360600,0.636360595703125,-31.38934326171875,-21.863765716552734,-14.660685539245605
1739817456024432600,0.6464326171875,-31.73944091796875,-22.080997467041016,-14.61600399017334
1739817456034503400,0.65650341796875,-31.484954833984375,-21.956737518310547,-14.464032173156738
1739817456044575500,0.666575439453125,-31.01959228515625,-22.03204917907715,-14.819966316223145
1739817456054647600,0.6766474609375,-30.8526611328125,-22.251707077026367,-14.878642082214355
1739817456064718600,0.686718505859375,-31.2330322265625,-22.022974014282227,-14.677206993103027
1739817456074790400,0.696790283203125,-31.325347900390625,-22.118547439575195,-14.662482261657715
1739817456084862500,0.706862548828125,-31.2769775390625,-22.14337921142578,-14.457829475402832
1739817456094933800,0.716933837890625,-31.115325927734375,-21.97467803955078,-14.524888038635254
1739817456105005800,0.727005859375,-31.1446533203125,-22.208372116088867,-14.30250072479248
1739817456115077600,0.73707763671875,-31.56317138671875,-22.0262393951416,-14.143582344055176
1739817456125148400,0.7471484375,-31.465118408203125,-21.9683895111084,-14.21180248260498
1739817456135220500,0.757220458984375,-31.28729248046875,-21.831127166748047,-14.21105670928955
1739817456145292500,0.76729248046875,-31.23785400390625,-21.90372085571289,-14.294177055358887
1739817456155363600,0.777363525390625,-30.940032958984375,-21.90612030029297,-14.13112735748291
1739817456165435600,0.787435546875,-31.1285400390625,-21.976205825805664,-13.94975757598877
1739817456175507500,0.797507568359375,-30.858917236328125,-22.122331619262695,-14.166834831237793
1739817456185578500,0.80757861328125,-31.10540771484375,-22.230670928955078,-14.26148509979248
1739817456195650600,0.817650634765625,-31.0289306640625,-22.224271774291992,-14.187886238098145
1739817456205722600,0.82772265625,-31.234619140625,-22.136825561523438,-14.400237083435059
1739817456215793700,0.837793701171875,-31.157958984375,-22.176362991333008,-13.99149227142334
1739817456225865700,0.84786572265625,-31.118865966796875,-22.120744705200195,-14.25829029083252
1739817456235936800,0.857936767578125,-31.3017578125,-22.291894912719727,-14.291050910949707
1739817456246008600,0.868008544921875,-31.083831787109375,-22.22868537902832,-14.316845893859863
1739817456256080600,0.87808056640625,-31.270355224609375,-22.31155776977539,-14.258200645446777
1739817456266151700,0.888151611328125,-31.114044189453125,-22.23990249633789,-14.276440620422363
1739817456276223700,0.8982236328125,-31.1793212890625,-22.212465286254883,-13.891800880432129
1739817456286295600,0.908295654296875,-31.032989501953125,-22.5020751953125,-13.986796379089355
1739817456296366600,0.91836669921875,-31.184539794921875,-22.407543182373047,-14.173762321472168
1739817456306438700,0.928438720703125,-31.163665771484375,-22.431222915649414,-14.2993803024292
1739817456316510700,0.9385107421875,-31.073822021484375,-22.485185623168945,-14.233101844787598
1739817456326581800,0.948581787109375,-31.47509765625,-22.363449096679688,-14.204424858093262
1739817456336653800,0.95865380859375,-31.21893310546875,-22.467784881591797,-14.155436515808105
1739817456346725600,0.9687255859375,-30.83966064453125,-22.41415786743164,-14.159024238586426
1739817456356796700,0.978796630859375,-31.05364990234375,-22.325550079345703,-14.029044151306152
1739817456366868700,0.98886865234375,-31.226959228515625,-22.48333740234375,-14.109374046325684
1739817456376940800,0.99894091796875,-30.561279296875,-22.579179763793945,-14.21654224395752
1739817456387011600,1.009011474609375,-30.995819091796875,-22.871835708618164,-14.175946235656738
1739817456397083600,1.019083740234375,-30.979827880859375,-22.78227424621582,-14.255269050598145
1739817456407155500,1.029155517578125,-31.17437744140625,-22.81090545654297,-14.313136100769043
1739817456417226500,1.0392265625,-30.955963134765625,-23.174510955810547,-14.269688606262207
1739817456427298600,1.049298583984375,-31.30389404296875,-22.76410484313965,-14.181117057800293
1739817456437369600,1.05936962890625,-30.908905029296875,-22.697513580322266,-14.195927619934082
1739817456447441700,1.069441650390625,-30.779937744140625,-22.861129760742188,-14.352322578430176
1739817456457513500,1.079513427734375,-30.90838623046875,-22.613752365112305,-14.248442649841309
1739817456467584500,1.08958447265625,-30.65496826171875,-22.347742080688477,-14.044001579284668
1739817456477656600,1.099656494140625,-30.7384033203125,-22.846683502197266,-13.968646049499512
1739817456487728600,1.109728759765625,-30.5748291015625,-22.79151153564453,-14.248774528503418
1739817456497799700,1.119799560546875,-31.19805908203125,-22.802324295043945,-14.284598350524902
1739817456507871700,1.129871826171875,-31.25189208984375,-22.671756744384766,-14.190808296203613
1739817456517943600,1.139943603515625,-30.745208740234375,-22.74867820739746,-14.419209480285645
1739817456528014600,1.1500146484375,-30.878265380859375,-22.74182891845703,-14.311535835266113
1739817456538086700,1.160086669921875,-30.532562255859375,-22.96352767944336,-14.45167064666748
1739817456548158700,1.17015869140625,-30.325225830078125,-22.739261627197266,-14.266303062438965
1739817456558229800,1.180229736328125,-30.522186279296875,-22.814414978027344,-14.201811790466309
1739817456568301600,1.190301513671875,-30.46966552734375,-22.747756958007812,-14.314656257629395
1739817456578372600,1.20037255859375,-30.62518310546875,-22.776323318481445,-14.134598731994629
1739817456588444700,1.210444580078125,-30.604522705078125,-22.711994171142578,-14.155888557434082
1739817456598516700,1.220516845703125,-30.959503173828125,-22.809110641479492,-14.307316780090332
1739817456608587800,1.230587890625,-30.964691162109375,-22.779638290405273,-14.634404182434082
1739817456618659800,1.240659912109375,-30.89288330078125,-22.90641212463379,-14.606766700744629
1739817456628731600,1.250731689453125,-30.818145751953125,-22.766441345214844,-14.431633949279785
1739817456638802400,1.260802490234375,-30.69329833984375,-22.75428581237793,-14.54312801361084
1739817456648874500,1.27087451171875,-30.514007568359375,-22.694467544555664,-14.391581535339355
1739817456658945500,1.280945556640625,-30.810211181640625,-22.915630340576172,-14.772906303405762
1739817456669017600,1.291017578125,-30.514373779296875,-22.695905685424805,-14.787983894348145
1739817456679089700,1.301089599609375,-30.66583251953125,-22.88661003112793,-14.912285804748535
1739817456689160700,1.31116064453125,-30.5645751953125,-22.81114959716797,-14.840949058532715
1739817456699232500,1.321232421875,-31.033233642578125,-22.710006713867188,-14.759516716003418
1739817456709304600,1.3313046875,-30.79559326171875,-22.783689498901367,-14.83655834197998
1739817456719375600,1.341375732421875,-30.813446044921875,-22.675819396972656,-14.906888008117676
1739817456729447700,1.35144775390625,-30.781951904296875,-22.914710998535156,-15.08934497833252
1739817456739518700,1.361518798828125,-30.356719970703125,-22.97014808654785,-14.853190422058105
1739817456749590500,1.371590576171875,-30.484893798828125,-22.740970611572266,-14.814435005187988
1739817456759662600,1.38166259765625,-29.9415283203125,-22.78652000427246,-14.912226676940918
1739817456769733600,1.391733642578125,-30.472900390625,-22.671886444091797,-14.985535621643066
1739817456779805700,1.4018056640625,-30.675201416015625,-22.865026473999023,-14.632025718688965
1739817456789877800,1.411877685546875,-30.939178466796875,-22.683881759643555,-14.727093696594238
1739817456799948800,1.42194873046875,-30.772216796875,-22.575551986694336,-14.813708305358887
1739817456810020600,1.4320205078125,-30.737396240234375,-22.55681610107422,-14.77048397064209
1739817456820091600,1.442091552734375,-30.969573974609375,-22.813129425048828,-14.754220008850098
1739817456830163700,1.452163818359375,-30.9300537109375,-22.795055389404297,-14.813624382019043
1739817456840235800,1.46223583984375,-30.7777099609375,-22.850086212158203,-14.76756763458252
1739817456850306800,1.472306884765625,-30.812591552734375,-22.682315826416016,-14.907523155212402
1739817456860378600,1.482378662109375,-30.7606201171875,-22.667390823364258,-14.698264122009277
1739817456870449700,1.49244970703125,-30.837860107421875,-22.552181243896484,-14.942509651184082
1739817456880521500,1.502521484375,-30.898956298828125,-22.50643539428711,-15.061123847961426
1739817456890593500,1.512593505859375,-30.906494140625,-22.593603134155273,-15.11413860321045
1739817456900664600,1.52266455078125,-30.91619873046875,-22.563875198364258,-14.983149528503418
1739817456910736600,1.532736572265625,-30.47247314453125,-22.504610061645508,-15.159571647644043
1739817456920808400,1.542808349609375,-30.46759033203125,-22.608867645263672,-14.948988914489746
1739817456930879500,1.55287939453125,-30.794677734375,-22.528976440429688,-15.002799034118652
1739817456940951600,1.56295166015625,-30.40484619140625,-22.753921508789062,-14.979537010192871
1739817456951022600,1.573022705078125,-30.4600830078125,-22.539236068725586,-14.946663856506348
1739817456961094700,1.5830947265625,-30.427947998046875,-22.508481979370117,-15.073920249938965
1739817456971166700,1.593166748046875,-30.77880859375,-22.482994079589844,-14.9237699508667
1739817456981237800,1.60323779296875,-30.81573486328125,-22.55322265625,-14.988373756408691
1739817456991309600,1.6133095703125,-30.233154296875,-22.675121307373047,-14.729155540466309
1739817457001380600,1.623380615234375,-30.147735595703125,-22.594945907592773,-14.87377643585205
1739817457011452700,1.63345263671875,-30.550079345703125,-22.499656677246094,-14.922533988952637
1739817457021524700,1.643524658203125,-30.48431396484375,-22.81892204284668,-14.812329292297363
1739817457031595800,1.653595703125,-30.212860107421875,-22.687910079956055,-15.040099143981934
1739817457041667600,1.66366748046875,-30.0438232421875,-22.640766143798828,-15.212172508239746
1739817457051738600,1.673738525390625,-30.3017578125,-22.726486206054688,-15.112252235412598
1739817457061810700,1.683810791015625,-30.13555908203125,-22.6580867767334,-15.042431831359863
1739817457071882800,1.6938828125,-30.217010498046875,-22.6311092376709,-15.031512260437012
1739817457081953500,1.70395361328125,-30.38592529296875,-22.41864776611328,-14.886059761047363
1739817457092025300,1.714025390625,-30.535308837890625,-22.394441604614258,-14.850447654724121
1739817457102096400,1.724096435546875,-30.209381103515625,-22.51332664489746,-14.807585716247559
1739817457112168200,1.734168212890625,-30.002960205078125,-22.52796173095703,-14.827033042907715
1739817457122240300,1.744240234375,-30.56817626953125,-22.449623107910156,-14.693846702575684
1739817457132311300,1.754311279296875,-30.29693603515625,-22.530887603759766,-14.728531837463379
1739817457142383400,1.76438330078125,-30.138519287109375,-22.46398162841797,-14.708483695983887
1739817457152455400,1.774455322265625,-30.281280517578125,-22.451400756835938,-15.112116813659668
1739817457162526500,1.7845263671875,-30.540069580078125,-22.453758239746094,-14.808518409729004
1739817457172598300,1.794598388671875,-30.613983154296875,-22.32192039489746,-14.843289375305176
1739817457182669000,1.8046689453125,-30.368682861328125,-22.425607681274414,-14.783204078674316
1739817457192741000,1.8147412109375,-30.260040283203125,-22.384796142578125,-14.902628898620605
1739817457202812200,1.824812255859375,-30.268585205078125,-22.53141975402832,-15.06187915802002
1739817457212884200,1.83488427734375,-30.359954833984375,-22.418655395507812,-15.075711250305176
1739817457222956300,1.844956298828125,-30.53155517578125,-22.29551124572754,-15.002863883972168
1739817457233027300,1.85502734375,-30.68341064453125,-22.274261474609375,-15.077515602111816
1739817457243099100,1.86509912109375,-30.356903076171875,-22.240476608276367,-15.06013011932373
1739817457253170200,1.875170166015625,-30.881805419921875,-22.20135498046875,-14.95346736907959
1739817457263242200,1.8852421875,-30.561065673828125,-22.10552406311035,-14.683297157287598
1739817457273314300,1.895314208984375,-30.681396484375,-22.09126091003418,-14.97485065460205
1739817457283385300,1.90538525390625,-30.615875244140625,-22.147119522094727,-14.773468971252441
1739817457293457200,1.91545703125,-30.6812744140625,-22.163923263549805,-14.851740837097168
1739817457303528200,1.925528076171875,-30.9693603515625,-22.1365909576416,-14.891745567321777
1739817457313600300,1.935600341796875,-30.54205322265625,-22.17898178100586,-15.067536354064941
1739817457323672300,1.94567236328125,-30.581207275390625,-21.982255935668945,-14.895821571350098
1739817457333743400,1.955743408203125,-30.627593994140625,-22.017457962036133,-14.736729621887207
1739817457343815400,1.9658154296875,-30.806976318359375,-21.853662490844727,-14.483349800109863
1739817457353886500,1.975886474609375,-30.83026123046875,-22.163288116455078,-14.556395530700684
1739817457363958300,1.985958251953125,-30.904571533203125,-22.275753021240234,-14.905352592468262
1739817457374029000,1.996029052734375,-31.340423583984375,-22.13349723815918,-15.163239479064941
1739817457384101000,2.00610107421875,-30.910308837890625,-21.9506778717041,-15.00798511505127
1739817457394173200,2.016173095703125,-30.865264892578125,-22.116321563720703,-15.071593284606934
1739817457404244200,2.026244140625,-30.88861083984375,-22.104267120361328,-14.835223197937012
1739817457414316300,2.03631640625,-30.63641357421875,-21.81790542602539,-14.83521556854248
1739817457424387300,2.04638720703125,-30.656890869140625,-21.700239181518555,-14.9130220413208
1739817457434459100,2.056459228515625,-31.0322265625,-22.124839782714844,-15.106776237487793
1739817457444531200,2.06653125,-30.7957763671875,-22.212663650512695,-15.24373722076416
1739817457454602200,2.076602294921875,-30.81097412109375,-22.299509048461914,-15.375994682312012
1739817457464674300,2.08667431640625,-30.576568603515625,-22.11719512939453,-15.281256675720215
1739817457474745300,2.096745361328125,-30.785430908203125,-22.080413818359375,-15.0673246383667
1739817457484817200,2.106817138671875,-30.71441650390625,-22.132549285888672,-15.059588432312012
1739817457494888200,2.11688818359375,-30.882598876953125,-22.169065475463867,-15.018437385559082
1739817457504960300,2.126960205078125,-30.77142333984375,-22.144113540649414,-15.004837989807129
1739817457515032300,2.1370322265625,-30.72528076171875,-22.121837615966797,-15.048375129699707
1739817457525103400,2.147103271484375,-30.491943359375,-22.19200897216797,-15.122769355773926
1739817457535175400,2.157175537109375,-30.785675048828125,-22.146528244018555,-15.050000190734863
1739817457545246500,2.16724658203125,-30.679168701171875,-22.049955368041992,-15.196227073669434
1739817457555318300,2.177318359375,-30.742523193359375,-22.333118438720703,-15.048462867736816
1739817457565389000,2.18738916015625,-30.5701904296875,-22.26079750061035,-14.855286598205566
1739817457575461000,2.197461181640625,-30.739593505859375,-22.332857131958008,-14.866686820983887
1739817457585533200,2.207533203125,-30.475128173828125,-22.086231231689453,-14.929522514343262
1739817457595604200,2.217604248046875,-30.72393798828125,-22.122961044311523,-14.902300834655762
1739817457605676300,2.22767626953125,-30.751068115234375,-22.081214904785156,-14.866881370544434
1739817457615747300,2.237747314453125,-30.642547607421875,-22.169170379638672,-14.718844413757324
1739817457625819100,2.247819091796875,-30.7354736328125,-22.224647521972656,-14.812178611755371
1739817457635890200,2.25789013671875,-30.493743896484375,-22.428497314453125,-14.75696086883545
1739817457645962200,2.267962158203125,-30.8074951171875,-22.59891700744629,-14.768097877502441
1739817457656034300,2.278034423828125,-30.841094970703125,-22.39795684814453,-14.652260780334473
1739817457666105300,2.288105224609375,-30.785675048828125,-22.559879302978516,-14.442585945129395
1739817457676177200,2.29817724609375,-30.48919677734375,-22.551362991333008,-14.440360069274902
1739817457686248200,2.308248291015625,-30.454193115234375,-22.56714630126953,-14.267701148986816
1739817457696320300,2.3183203125,-30.6534423828125,-22.649633407592773,-14.052626609802246
1739817457706391300,2.328391357421875,-30.176971435546875,-22.8987979888916,-14.155112266540527
1739817457716463400,2.33846337890625,-30.41357421875,-22.87189483642578,-14.33376407623291
1739817457726535400,2.348535400390625,-30.6072998046875,-22.875852584838867,-14.138213157653809
1739817457736606500,2.3586064453125,-30.690826416015625,-23.068357467651367,-14.12280559539795
1739817457746678300,2.36867822265625,-30.60015869140625,-22.978334426879883,-14.150982856750488
1739817457756749000,2.3787490234375,-30.85870361328125,-23.16342544555664,-14.05840015411377
1739817457766821000,2.388821044921875,-30.1527099609375,-23.095754623413086,-14.25194263458252
1739817457776892200,2.39889208984375,-30.13665771484375,-23.069814682006836,-14.231574058532715
1739817457786964200,2.408964111328125,-30.39300537109375,-23.22738265991211,-14.228081703186035
1739817457797035300,2.41903515625,-30.253631591796875,-23.287031173706055,-14.199481010437012
1739817457807107300,2.429107421875,-30.503692626953125,-23.15392303466797,-13.983424186706543
1739817457817179100,2.43917919921875,-30.76153564453125,-23.23470687866211,-13.998091697692871
1739817457827250200,2.449250244140625,-30.27362060546875,-23.325531005859375,-13.821564674377441
1739817457837322200,2.459322265625,-30.408294677734375,-23.56379508972168,-13.66930103302002
1739817457847393300,2.469393310546875,-30.3447265625,-23.546451568603516,-13.500432014465332
1739817457857465300,2.47946533203125,-30.098846435546875,-23.81168556213379,-13.46465015411377
1739817457867536400,2.489536376953125,-30.181427001953125,-23.845550537109375,-13.385096549987793
1739817457877608200,2.499608154296875,-29.975494384765625,-23.817222595214844,-13.427916526794434
1739817457887679200,2.50967919921875,-30.18194580078125,-23.62663459777832,-13.309876441955566
1739817457897751300,2.519751220703125,-30.261749267578125,-23.818273544311523,-13.309082984924316
1739817457907823400,2.5298232421875,-30.398956298828125,-23.8021240234375,-13.374638557434082
1739817457917894400,2.539894287109375,-30.21148681640625,-23.770544052124023,-13.183577537536621
1739817457927966500,2.549966552734375,-30.34259033203125,-23.768640518188477,-13.328137397766113
1739817457938037200,2.560037353515625,-30.06488037109375,-23.667922973632812,-13.1079683303833
1739817457948109000,2.570109130859375,-30.18060302734375,-23.894855499267578,-13.150198936462402
1739817457958180000,2.58018017578125,-30.2000732421875,-23.969844818115234,-12.879351615905762
1739817457968252200,2.590252197265625,-30.5531005859375,-23.933059692382812,-12.719151496887207
1739817457978323200,2.6003232421875,-30.071136474609375,-23.833396911621094,-12.866944313049316
1739817457988395300,2.610395263671875,-30.00970458984375,-23.793909072875977,-12.884163856506348
1739817457998467300,2.62046728515625,-30.367401123046875,-23.865041732788086,-12.935074806213379
1739817458008538400,2.630538330078125,-30.269744873046875,-23.89716339111328,-12.780049324035645
1739817458018610200,2.640610107421875,-30.328369140625,-23.84893035888672,-12.79765796661377
1739817458028681200,2.65068115234375,-30.323822021484375,-23.833904266357422,-12.704939842224121
1739817458038753300,2.660753173828125,-30.5098876953125,-23.834606170654297,-12.958491325378418
1739817458048824300,2.67082421875,-30.65997314453125,-23.797636032104492,-12.46229076385498
1739817458058896400,2.680896484375,-30.37457275390625,-23.91554069519043,-12.608912467956543
1739817458068967400,2.690967529296875,-30.247955322265625,-23.91429901123047,-12.511975288391113
1739817458079039200,2.701039306640625,-29.89990234375,-23.81812286376953,-12.567063331604004
1739817458089110300,2.7111103515625,-30.1058349609375,-23.902671813964844,-12.551642417907715
1739817458099182300,2.721182373046875,-30.1815185546875,-24.204418182373047,-12.343649864196777
1739817458109253400,2.73125341796875,-30.204376220703125,-24.023258209228516,-12.304778099060059
1739817458119325400,2.741325439453125,-30.42572021484375,-24.259489059448242,-12.166129112243652
1739817458129397500,2.7513974609375,-30.427276611328125,-24.401954650878906,-12.093537330627441
1739817458139468300,2.76146826171875,-30.3154296875,-24.40596580505371,-11.98412036895752
1739817458149540000,2.7715400390625,-30.31146240234375,-24.160560607910156,-12.12018871307373
1739817458159611100,2.781611083984375,-30.32244873046875,-24.057628631591797,-12.170660972595215
1739817458169683200,2.79168310546875,-30.081146240234375,-24.170360565185547,-12.040793418884277
1739817458179754200,2.801754150390625,-30.61871337890625,-24.29416275024414,-12.23686695098877
1739817458189826300,2.811826416015625,-30.345977783203125,-24.40102767944336,-11.970343589782715
1739817458199897300,2.8218974609375,-30.337921142578125,-24.254690170288086,-12.216280937194824
1739817458209969400,2.831969482421875,-29.852783203125,-24.403470993041992,-12.234841346740723
1739817458220040400,2.84204052734375,-29.808624267578125,-24.0684814453125,-12.22597599029541
1739817458230112300,2.8521123046875,-29.906585693359375,-24.202388763427734,-12.288064002990723
1739817458240183300,2.862183349609375,-29.67462158203125,-24.360126495361328,-12.356364250183105
1739817458250255400,2.87225537109375,-29.737884521484375,-24.276702880859375,-12.385649681091309
1739817458260326400,2.882326416015625,-29.778045654296875,-24.378341674804688,-12.395882606506348
1739817458270398500,2.8923984375,-29.510101318359375,-24.516090393066406,-12.573843955993652
1739817458280470300,2.90247021484375,-29.831573486328125,-24.31049346923828,-12.845072746276855
1739817458290541300,2.912541259765625,-30.056976318359375,-24.158111572265625,-12.714810371398926
1739817458300613400,2.92261328125,-30.49383544921875,-23.809846878051758,-12.545390129089355
1739817458310684200,2.93268408203125,-30.656097412109375,-24.170063018798828,-12.663193702697754
1739817458320756200,2.942756103515625,-30.408782958984375,-24.19355010986328,-12.643221855163574
1739817458330827300,2.9528271484375,-30.595977783203125,-24.11956787109375,-12.697073936462402
1739817458340899300,2.9628994140625,-30.2965087890625,-24.09990692138672,-12.714692115783691
1739817458350970400,2.972970458984375,-30.239532470703125,-24.12409210205078,-12.725743293762207
1739817458361042200,2.983042236328125,-30.083526611328125,-24.366016387939453,-12.958670616149902
1739817458371113200,2.99311328125,-29.857635498046875,-24.15704917907715,-12.759617805480957
1739817458381185300,3.003185302734375,-29.553985595703125,-24.126218795776367,-12.85253620147705
1739817458391256300,3.01325634765625,-29.630859375,-23.9594783782959,-13.030255317687988
1739817458401328400,3.023328369140625,-30.1080322265625,-24.015724182128906,-13.134564399719238
1739817458411399400,3.0333994140625,-29.9481201171875,-23.916175842285156,-13.094923973083496
1739817458421471200,3.04347119140625,-29.806121826171875,-24.072357177734375,-13.18934154510498
1739817458431542300,3.053542236328125,-29.588958740234375,-24.11591148376465,-13.112578392028809
1739817458441614300,3.0636142578125,-29.747100830078125,-23.901092529296875,-13.149271965026855
1739817458451686400,3.073686279296875,-29.881378173828125,-24.128887176513672,-13.35312557220459
1739817458461757200,3.083757080078125,-29.759765625,-24.14554786682129,-13.183928489685059
1739817458471829500,3.09382958984375,-29.496063232421875,-23.899555206298828,-13.291857719421387
1739817458481900300,3.103900390625,-29.49517822265625,-23.951425552368164,-13.425429344177246
1739817458491972000,3.11397216796875,-29.762176513671875,-24.107810974121094,-13.582669258117676
1739817458502043100,3.124043212890625,-29.6812744140625,-23.982227325439453,-13.418913841247559
1739817458512115200,3.134115234375,-29.61883544921875,-23.8831844329834,-13.29813289642334
1739817458522186200,3.144186279296875,-29.112213134765625,-23.945018768310547,-13.721030235290527
1739817458532258300,3.15425830078125,-29.369842529296875,-23.86084747314453,-13.702221870422363
1739817458542329300,3.164329345703125,-29.60675048828125,-23.74267578125,-13.811356544494629
1739817458552401400,3.1744013671875,-29.940399169921875,-23.554157257080078,-14.230742454528809
1739817458562472400,3.184472412109375,-29.76654052734375,-23.504301071166992,-14.21936321258545
1739817458572544300,3.194544189453125,-29.9932861328125,-23.422203063964844,-14.004342079162598
1739817458582615300,3.204615234375,-30.016021728515625,-23.35300064086914,-14.110444068908691
1739817458592687400,3.214687255859375,-30.05450439453125,-23.295808792114258,-13.997162818908691
1739817458602758400,3.22475830078125,-29.622711181640625,-23.283166885375977,-13.751055717468262
1739817458612830500,3.23483056640625,-29.374481201171875,-23.293136596679688,-13.465714454650879
1739817458622901200,3.2449013671875,-29.703369140625,-23.303070068359375,-13.760275840759277
1739817458632973300,3.254973388671875,-29.633514404296875,-23.356504440307617,-13.834187507629395
1739817458643044400,3.26504443359375,-29.775604248046875,-23.167375564575195,-13.383336067199707
1739817458653116200,3.2751162109375,-30.08905029296875,-23.09982681274414,-13.321846961975098
1739817458663187200,3.285187255859375,-29.996795654296875,-23.298452377319336,-13.404479026794434
1739817458673259300,3.29525927734375,-29.8487548828125,-23.30169105529785,-13.078314781188965
1739817458683330300,3.305330322265625,-29.924285888671875,-23.307262420654297,-13.06865406036377
1739817458693402400,3.31540234375,-30.05718994140625,-23.240447998046875,-13.127142906188965
1739817458703473400,3.325473388671875,-29.7989501953125,-22.669803619384766,-13.453104972839355
1739817458713545200,3.335545166015625,-30.168792724609375,-22.82489585876465,-13.522332191467285
1739817458723616300,3.3456162109375,-29.990325927734375,-22.809358596801758,-13.26720142364502
1739817458733688300,3.355688232421875,-29.754547119140625,-22.79024314880371,-13.567675590515137
1739817458743759400,3.36575927734375,-30.029571533203125,-22.81304168701172,-13.679272651672363
1739817458753831400,3.37583154296875,-30.02911376953125,-22.69213104248047,-13.441027641296387
1739817458763902200,3.385902099609375,-29.914306640625,-22.429170608520508,-13.657374382019043
1739817458773974300,3.395974365234375,-29.819366455078125,-22.446481704711914,-13.995308876037598
1739817458784045300,3.40604541015625,-30.02752685546875,-22.495466232299805,-13.83940601348877
1739817458794117000,3.4161171875,-29.9447021484375,-22.360557556152344,-13.851819038391113
1739817458804188200,3.426188232421875,-30.196685791015625,-22.23957061767578,-13.968964576721191
1739817458814260200,3.43626025390625,-30.029052734375,-22.28065299987793,-14.179614067077637
1739817458824331300,3.446331298828125,-30.17230224609375,-22.257522583007812,-14.289551734924316
1739817458834403300,3.4564033203125,-30.048431396484375,-21.94036865234375,-14.297776222229004
1739817458844474400,3.466474365234375,-30.023681640625,-21.71213722229004,-14.564534187316895
1739817458854546400,3.47654638671875,-30.02825927734375,-22.147045135498047,-14.74419116973877
1739817458864617500,3.486617431640625,-29.84814453125,-22.1455078125,-14.643568992614746
1739817458874689300,3.496689208984375,-29.819976806640625,-21.96050262451172,-14.668625831604004
1739817458884760300,3.50676025390625,-29.47918701171875,-21.926776885986328,-15.055481910705566
1739817458894832400,3.516832275390625,-28.90032958984375,-21.891647338867188,-14.780741691589355
1739817458904903400,3.5269033203125,-28.979888916015625,-21.810192108154297,-14.66089153289795
1739817458914975500,3.5369755859375,-29.553619384765625,-21.71514892578125,-14.727940559387207
1739817458925046300,3.54704638671875,-29.377166748046875,-21.96443748474121,-14.671931266784668
1739817458935118000,3.5571181640625,-29.5810546875,-22.022342681884766,-14.634966850280762
1739817458945189000,3.567189208984375,-29.273345947265625,-22.04969596862793,-14.432913780212402
1739817458955261200,3.57726123046875,-29.110595703125,-22.077226638793945,-14.379490852355957
1739817458965332200,3.587332275390625,-28.820892333984375,-22.207355499267578,-14.302218437194824
1739817458975404300,3.597404296875,-28.9718017578125,-22.207996368408203,-14.380948066711426
1739817458985475300,3.607475341796875,-29.083404541015625,-22.40191650390625,-14.562891960144043
1739817458995547400,3.61754736328125,-29.165069580078125,-22.05547523498535,-14.561688423156738
1739817459005618400,3.627618408203125,-28.6195068359375,-22.048131942749023,-14.750182151794434
1739817459015690200,3.637690185546875,-28.846923828125,-21.973499298095703,-14.620535850524902
1739817459025761300,3.64776123046875,-28.844879150390625,-22.225196838378906,-14.663512229919434
1739817459035833300,3.657833251953125,-28.615325927734375,-22.270776748657227,-14.600565910339355
1739817459045904400,3.667904296875,-28.586761474609375,-22.432861328125,-14.730769157409668
1739817459055976400,3.6779765625,-28.8746337890625,-22.270299911499023,-14.793566703796387
1739817459066047200,3.688047119140625,-28.871185302734375,-22.250886917114258,-14.794474601745605
1739817459076119300,3.698119384765625,-28.85052490234375,-22.19416618347168,-14.726366996765137
1739817459086190300,3.7081904296875,-28.43572998046875,-21.8884220123291,-14.695052146911621
1739817459096259000,3.718259033203125,-28.470703125,-22.251361846923828,-14.558411598205566
1739817459106330000,3.728330078125,-28.4447021484375,-22.111644744873047,-14.704886436462402
1739817459116402200,3.738402099609375,-28.398651123046875,-22.093482971191406,-14.533722877502441
1739817459126473000,3.748472900390625,-29.013275146484375,-21.87398910522461,-14.426051139831543
1739817459136544000,3.7585439453125,-29.12249755859375,-21.778553009033203,-14.463587760925293
1739817459146616000,3.768615966796875,-28.875457763671875,-21.914159774780273,-14.170981407165527
1739817459156687000,3.77868701171875,-29.006805419921875,-21.862184524536133,-14.516953468322754
1739817459166759000,3.788759033203125,-28.9925537109375,-21.65164566040039,-14.378270149230957
1739817459176830000,3.798829833984375,-28.908172607421875,-21.502683639526367,-14.285529136657715
1739817459186902000,3.808902099609375,-28.981201171875,-21.304079055786133,-14.14637279510498
1739817459196973000,3.81897314453125,-28.91986083984375,-21.397180557250977,-14.410700798034668
1739817459207045000,3.829045166015625,-28.826507568359375,-21.253246307373047,-14.544320106506348
1739817459217116200,3.8391162109375,-29.004364013671875,-21.264482498168945,-14.495501518249512
1739817459227188200,3.849188232421875,-28.83795166015625,-20.998699188232422,-14.628569602966309
1739817459237259300,3.85925927734375,-28.52484130859375,-20.94310760498047,-14.6525239944458
1739817459247331000,3.8693310546875,-28.794647216796875,-20.967609405517578,-14.671229362487793
1739817459257401900,3.87940185546875,-29.07122802734375,-20.838361740112305,-14.864689826965332
1739817459267474000,3.889473876953125,-29.000213623046875,-20.68869400024414,-15.078721046447754
1739817459277545000,3.899544921875,-28.985809326171875,-20.760976791381836,-15.171664237976074
1739817459287617000,3.909616943359375,-28.56549072265625,-20.63127899169922,-15.277203559875488
1739817459297688000,3.91968798828125,-28.776336669921875,-20.59830665588379,-15.46660327911377
1739817459307760000,3.929760009765625,-28.914337158203125,-20.734291076660156,-15.464400291442871
1739817459317831000,3.939830810546875,-28.67095947265625,-20.64703369140625,-15.366467475891113
1739817459327903000,3.949903076171875,-28.79034423828125,-20.590871810913086,-15.103617668151855
1739817459337974000,3.95997412109375,-28.584686279296875,-20.521780014038086,-15.136242866516113
1739817459348045000,3.970045166015625,-28.86932373046875,-20.116531372070312,-15.189160346984863
1739817459358117000,3.9801171875,-28.868133544921875,-20.211959838867188,-14.911223411560059
1739817459368188200,3.990188232421875,-28.72412109375,-20.126018524169922,-15.053376197814941
1739817459378260200,4.00026025390625,-29.16949462890625,-20.225629806518555,-14.919222831726074
1739817459388331000,4.0103310546875,-28.90301513671875,-19.99193000793457,-14.659512519836426
1739817459398402800,4.02040283203125,-29.06414794921875,-20.332408905029297,-14.640700340270996
1739817459408473900,4.030473876953125,-29.103668212890625,-20.174304962158203,-14.529723167419434
1739817459418546000,4.0405458984375,-29.087921142578125,-20.147722244262695,-14.676133155822754
1739817459428617000,4.050616943359375,-29.21063232421875,-20.09124183654785,-14.720904350280762
1739817459438689000,4.06068896484375,-28.9371337890625,-19.955942153930664,-14.68474292755127
1739817459448760000,4.070760009765625,-29.24102783203125,-20.18899154663086,-14.704251289367676
1739817459458832100,4.08083203125,-29.26654052734375,-20.38944435119629,-14.681323051452637
1739817459468903200,4.090903076171875,-29.001312255859375,-20.202369689941406,-14.778817176818848
1739817459478975000,4.10097509765625,-29.133544921875,-20.22187042236328,-14.705754280090332
1739817459489046000,4.1110458984375,-29.01434326171875,-20.295013427734375,-14.823538780212402
1739817459499117000,4.121116943359375,-29.024993896484375,-20.32832908630371,-14.62501049041748
1739817459509189000,4.131189208984375,-29.027099609375,-20.04473876953125,-14.958436012268066
1739817459519260000,4.141260009765625,-28.762237548828125,-20.43294334411621,-14.926161766052246
1739817459529332200,4.151332275390625,-29.025970458984375,-20.110393524169922,-15.129805564880371
1739817459539403000,4.161403076171875,-28.6275634765625,-20.19925308227539,-15.069674491882324
1739817459549475000,4.17147509765625,-28.6463623046875,-19.937484741210938,-15.103898048400879
1739817459559546000,4.181546142578125,-28.5499267578125,-20.315675735473633,-14.701817512512207
1739817459569618000,4.191617919921875,-28.798797607421875,-20.668621063232422,-14.73557186126709
1739817459579689000,4.20168896484375,-28.576751708984375,-20.42489242553711,-14.722691535949707
1739817459589761000,4.211760986328125,-28.760894775390625,-20.441368103027344,-14.779248237609863
1739817459599832000,4.22183203125,-28.760894775390625,-20.441368103027344,-14.779248237609863
1739817459609904000,4.231904052734375,-28.542083740234375,-20.439788818359375,-14.92739200592041
1739817459619975200,4.24197509765625,-28.254241943359375,-20.512500762939453,-14.979012489318848
1739817459630046200,4.252046142578125,-28.32958984375,-20.68511199951172,-14.77534008026123
1739817459640118000,4.262117919921875,-28.343963623046875,-20.660032272338867,-14.873711585998535
1739817459650189000,4.27218896484375,-27.817169189453125,-20.761289596557617,-14.844161033630371
1739817459660261000,4.28226123046875,-27.662109375,-20.54298210144043,-14.972155570983887
1739817459670332000,4.292331787109375,-27.90869140625,-20.841045379638672,-14.948065757751465
1739817459680404000,4.302404052734375,-27.89007568359375,-20.514616012573242,-15.009032249450684
1739817459690475000,4.31247509765625,-27.95587158203125,-20.642377853393555,-14.851618766784668
1739817459700547000,4.322547119140625,-27.666168212890625,-20.72371482849121,-14.802384376525879
1739817459710618000,4.3326181640625,-27.722747802734375,-20.798168182373047,-14.91165828704834
1739817459720690000,4.34268994140625,-27.549072265625,-20.922624588012695,-14.975668907165527
1739817459730761000,4.352760986328125,-27.840667724609375,-20.80055046081543,-15.126091957092285
1739817459740832000,4.36283203125,-27.40478515625,-20.820091247558594,-15.10330867767334
1739817459750904000,4.372904052734375,-27.413421630859375,-20.623085021972656,-14.813216209411621
1739817459760975000,4.38297509765625,-28.019500732421875,-20.693084716796875,-14.764349937438965
1739817459771047200,4.393047119140625,-27.8343505859375,-20.759334564208984,-14.735302925109863
1739817459781118200,4.4031181640625,-27.447784423828125,-20.60944938659668,-14.637852668762207
1739817459791190300,4.413190185546875,-27.6497802734375,-20.29741668701172,-14.724209785461426
1739817459801261000,4.423260986328125,-27.885345458984375,-20.459720611572266,-14.631430625915527
1739817459811332900,4.433332763671875,-28.028533935546875,-20.562164306640625,-14.823267936706543
1739817459821404000,4.44340380859375,-27.62213134765625,-20.82134246826172,-14.910527229309082
1739817459831475000,4.453474853515625,-27.921478271484375,-20.87256622314453,-14.726899147033691
1739817459841547000,4.463547119140625,-27.98236083984375,-20.943830490112305,-14.813937187194824
1739817459851618000,4.4736181640625,-27.7509765625,-21.054759979248047,-14.947693824768066
1739817459861690000,4.483690185546875,-27.406402587890625,-20.65972328186035,-15.08729076385498
1739817459871761200,4.49376123046875,-27.501434326171875,-20.890207290649414,-15.053961753845215
1739817459881833000,4.5038330078125,-27.495025634765625,-21.06520652770996,-15.406865119934082
1739817459891904000,4.513904052734375,-27.5433349609375,-21.220373153686523,-15.111010551452637
1739817459901976000,4.52397607421875,-27.28802490234375,-21.104156494140625,-15.291071891784668
1739817459912047000,4.534047119140625,-27.00482177734375,-21.041738510131836,-15.307562828063965
1739817459922118000,4.544117919921875,-26.975860595703125,-21.03038215637207,-15.556534767150879
1739817459932190000,4.55418994140625,-26.85736083984375,-21.140501022338867,-15.647686958312988
1739817459942261000,4.564260986328125,-27.089447021484375,-21.41596794128418,-15.565354347229004
1739817459952333000,4.5743330078125,-27.11859130859375,-21.455442428588867,-15.323121070861816
1739817459962404000,4.584404052734375,-27.24468994140625,-21.57029151916504,-15.087939262390137
1739817459972476000,4.594475830078125,-27.095489501953125,-21.797992706298828,-14.772425651550293
1739817459982547000,4.604546875,-26.798583984375,-21.877010345458984,-14.733311653137207
1739817459992619000,4.614618896484375,-26.7530517578125,-21.95071792602539,-14.500540733337402
1739817460002690000,4.62468994140625,-27.05926513671875,-21.80471420288086,-14.313178062438965
1739817460012761000,4.634760986328125,-27.14947509765625,-22.212854385375977,-14.171673774719238
1739817460022833200,4.644833251953125,-26.989532470703125,-22.14866065979004,-14.203774452209473
1739817460032904200,4.654904296875,-26.870513916015625,-22.230981826782227,-14.098380088806152
1739817460042976300,4.664976318359375,-26.968658447265625,-22.155654907226562,-14.04553508758545
1739817460053047000,4.675047119140625,-26.988861083984375,-22.383438110351562,-13.937699317932129
1739817460063118800,4.685118896484375,-26.85687255859375,-22.529264450073242,-13.923600196838379
1739817460073190000,4.69518994140625,-26.842498779296875,-22.27159309387207,-13.637660026550293
1739817460083261000,4.705260986328125,-26.897918701171875,-22.275859832763672,-13.608075141906738
1739817460093332700,4.715332763671875,-27.1138916015625,-22.308916091918945,-13.730931282043457
1739817460103403800,4.72540380859375,-27.043121337890625,-22.306411743164062,-13.8681001663208
1739817460113475800,4.735475830078125,-27.133880615234375,-22.355358123779297,-13.706921577453613
1739817460123547000,4.745546875,-26.978546142578125,-22.200124740600586,-13.768233299255371
1739817460133619000,4.755618896484375,-27.442413330078125,-22.11931037902832,-13.831562995910645
1739817460143690000,4.76568994140625,-27.46868896484375,-22.034032821655273,-13.58464527130127
1739817460153761800,4.77576171875,-27.46337890625,-22.016847610473633,-13.470870018005371
1739817460163832800,4.785832763671875,-27.4466552734375,-22.232501983642578,-13.591715812683105
1739817460173904000,4.79590380859375,-27.855010986328125,-22.027246475219727,-13.506634712219238
1739817460183976000,4.805975830078125,-27.703765869140625,-21.916879653930664,-13.558558464050293
1739817460194047000,4.816046875,-27.373504638671875,-22.22109031677246,-13.712252616882324
1739817460204119000,4.826119140625,-27.242828369140625,-22.068939208984375,-13.731183052062988
1739817460214189800,4.83618994140625,-27.042572021484375,-22.4282169342041,-13.79443645477295
1739817460224262000,4.846261962890625,-27.79888916015625,-22.25464630126953,-13.79439640045166
1739817460234332700,4.856332763671875,-27.949127197265625,-22.302583694458008,-13.623221397399902
1739817460244403700,4.86640380859375,-27.3951416015625,-22.478416442871094,-13.545903205871582
1739817460254475800,4.876475830078125,-27.385528564453125,-22.304214477539062,-13.417706489562988
1739817460264546800,4.886546875,-27.447723388671875,-22.199256896972656,-13.647866249084473
1739817460274619000,4.896618896484375,-27.44085693359375,-22.222415924072266,-13.731961250305176
1739817460284690000,4.90668994140625,-27.607391357421875,-22.44070053100586,-13.660140037536621
1739817460294762000,4.916761962890625,-27.674560546875,-22.124652862548828,-13.599627494812012
1739817460304833000,4.9268330078125,-27.403839111328125,-22.38868522644043,-13.56348705291748
1739817460314904000,4.936904052734375,-27.4302978515625,-22.18464469909668,-13.57088565826416
1739817460324975900,4.946975830078125,-27.648193359375,-22.092144012451172,-13.42717456817627
1739817460335046700,4.957046630859375,-27.76220703125,-22.073577880859375,-13.361319541931152
1739817460345119000,4.967118896484375,-27.75604248046875,-22.079471588134766,-13.299153327941895
1739817460355189800,4.977189697265625,-27.498809814453125,-22.126232147216797,-13.120896339416504
1739817460365260800,4.9872607421875,-27.3128662109375,-22.218616485595703,-13.03950023651123
1739817460375332900,4.997332763671875,-27.38140869140625,-22.220796585083008,-13.077649116516113
1739817460385404000,5.00740380859375,-27.42449951171875,-22.308658599853516,-13.078495979309082
1739817460395476000,5.01747607421875,-27.675933837890625,-22.168603897094727,-13.37673282623291
1739817460405547000,5.027547119140625,-27.2894287109375,-22.141273498535156,-13.373576164245605
1739817460415618800,5.037618896484375,-27.68768310546875,-21.906158447265625,-13.34936237335205
1739817460425689900,5.04768994140625,-27.572662353515625,-21.86016845703125,-13.013964653015137
1739817460435761000,5.057760986328125,-27.793182373046875,-21.999128341674805,-12.996960639953613
1739817460445833000,5.0678330078125,-27.70184326171875,-21.944494247436523,-13.056513786315918
1739817460455903700,5.07790380859375,-27.659088134765625,-21.720123291015625,-13.344954490661621
1739817460465976000,5.08797607421875,-27.304595947265625,-21.66152572631836,-13.16464900970459
1739817460476046800,5.098046875,-27.5640869140625,-21.68535804748535,-13.203848838806152
1739817460486118000,5.108117919921875,-27.405059814453125,-21.53710174560547,-13.325398445129395
1739817460496190000,5.11818994140625,-27.42620849609375,-21.722734451293945,-13.125855445861816
1739817460506261000,5.128260986328125,-27.480072021484375,-21.587528228759766,-13.04592227935791
1739817460516332800,5.138332763671875,-27.561126708984375,-21.596269607543945,-13.040352821350098
1739817460526403800,5.14840380859375,-27.678619384765625,-21.499847412109375,-13.095488548278809
1739817460536476000,5.158475830078125,-27.7950439453125,-21.538555145263672,-13.262236595153809
1739817460546547000,5.168546875,-27.76019287109375,-21.594011306762695,-13.155264854431152
1739817460556618000,5.178617919921875,-27.5091552734375,-21.712873458862305,-13.137810707092285
1739817460566690000,5.18868994140625,-27.822601318359375,-21.487579345703125,-13.321242332458496
1739817460576760800,5.1987607421875,-27.901275634765625,-21.56656837463379,-13.53951358795166
1739817460586833000,5.2088330078125,-27.748199462890625,-21.605510711669922,-13.068890571594238
1739817460596903700,5.218903564453125,-28.160400390625,-21.561161041259766,-13.10689640045166
1739817460606974700,5.228974609375,-27.799560546875,-21.379384994506836,-12.992703437805176
1739817460617046800,5.239046875,-28.09088134765625,-21.445411682128906,-12.748867988586426
1739817460627117800,5.249117919921875,-28.051971435546875,-21.424219131469727,-12.719412803649902
1739817460637190000,5.25918994140625,-27.932342529296875,-21.59228515625,-12.892682075500488
1739817460647261000,5.269260986328125,-27.608367919921875,-21.710979461669922,-12.865740776062012
1739817460657332000,5.27933203125,-27.87347412109375,-21.70876693725586,-12.999638557434082
1739817460667404000,5.289404052734375,-27.556488037109375,-21.836410522460938,-12.93488597869873
1739817460677475000,5.29947509765625,-27.794952392578125,-21.539888381958008,-12.77185344696045
1739817460687547000,5.309546875,-28.076751708984375,-21.826213836669922,-12.979805946350098
1739817460697617700,5.31961767578125,-27.79571533203125,-21.643253326416016,-12.929306983947754
1739817460707688700,5.329688720703125,-27.669708251953125,-21.43412208557129,-13.026419639587402
1739817460717760800,5.3397607421875,-27.710693359375,-20.872215270996094,-12.722933769226074
1739817460727831800,5.349831787109375,-28.136993408203125,-21.030807495117188,-12.631766319274902
1739817460737903900,5.35990380859375,-27.97119140625,-21.06587028503418,-12.545323371887207
1739817460747975000,5.369974853515625,-28.1956787109375,-21.574872970581055,-12.764878273010254
1739817460758046000,5.3800458984375,-28.1302490234375,-21.4570255279541,-12.757534980773926
1739817460768118000,5.390117919921875,-28.181610107421875,-21.364057540893555,-12.941704750061035
1739817460778189000,5.40018896484375,-27.7655029296875,-21.43733787536621,-13.067553520202637
1739817460788260900,5.4102607421875,-27.98455810546875,-21.193296432495117,-13.186955451965332
1739817460798332000,5.420331787109375,-27.83770751953125,-21.08722686767578,-13.682881355285645
1739817460808402700,5.430402587890625,-27.50140380859375,-20.917543411254883,-13.480128288269043
1739817460818474800,5.440474853515625,-27.908660888671875,-21.133033752441406,-13.360148429870605
1739817460828545800,5.4505458984375,-27.986785888671875,-21.112003326416016,-13.61548137664795
1739817460838617900,5.460617919921875,-28.004119873046875,-20.868967056274414,-13.537774085998535
1739817460848689000,5.47068896484375,-27.9671630859375,-20.920473098754883,-13.352179527282715
1739817460858760000,5.480760009765625,-27.84515380859375,-20.92657470703125,-13.383551597595215
1739817460868832000,5.49083203125,-27.9014892578125,-20.77515983581543,-13.224669456481934
1739817460878903000,5.500903076171875,-28.07672119140625,-20.82307243347168,-12.952681541442871
1739817460888974800,5.510974853515625,-28.359527587890625,-21.15298843383789,-13.091156959533691
1739817460899046000,5.5210458984375,-28.2042236328125,-21.16103172302246,-12.94694995880127
1739817460909118000,5.531117919921875,-28.467254638671875,-20.959070205688477,-12.64911937713623
1739817460919189000,5.54118896484375,-28.625762939453125,-21.4171199798584,-12.284031867980957
1739817460929259800,5.551259765625,-28.530670166015625,-21.41231346130371,-12.58798885345459
1739817460939331800,5.561331787109375,-28.557159423828125,-21.0725154876709,-12.577651023864746
1739817460949403000,5.57140283203125,-28.667572021484375,-21.095401763916016,-12.463027000427246
1739817460959474000,5.581473876953125,-28.613067626953125,-21.13380241394043,-12.058518409729004
1739817460969545700,5.591545654296875,-28.830810546875,-21.232789993286133,-12.082242012023926
1739817460979616800,5.60161669921875,-29.028533935546875,-21.27633285522461,-12.094758033752441
1739817460989688800,5.611688720703125,-29.26336669921875,-21.247604370117188,-12.306248664855957
1739817460999760000,5.621759765625,-28.91583251953125,-21.3809757232666,-12.42553997039795
1739817461009831000,5.631830810546875,-28.76153564453125,-21.327960968017578,-12.53085994720459
1739817461019903000,5.641903076171875,-28.84674072265625,-21.255563735961914,-12.452298164367676
1739817461029974000,5.65197412109375,-28.811004638671875,-21.361616134643555,-12.35526180267334
1739817461040046000,5.662046142578125,-28.883758544921875,-21.221477508544922,-12.521174430847168
1739817461050116900,5.672116943359375,-28.9371337890625,-21.140592575073242,-12.75157642364502
1739817461060188000,5.68218798828125,-28.7781982421875,-21.397184371948242,-12.728009223937988
1739817461070259700,5.692259765625,-29.116119384765625,-21.209659576416016,-12.747380256652832
1739817461080330800,5.702330810546875,-29.276611328125,-21.21133804321289,-12.44306468963623
1739817461090402800,5.71240283203125,-29.06317138671875,-21.37043571472168,-12.56357479095459
1739817461100477400,5.7224775390625,-28.9378662109375,-21.363428115844727,-12.56835651397705
1739817461110548500,5.732548583984375,-28.758941650390625,-21.576839447021484,-12.792206764221191
1739817461120620500,5.74262060546875,-29.093963623046875,-21.565532684326172,-12.51372241973877
1739817461130691600,5.752691650390625,-28.73828125,-21.627931594848633,-12.817591667175293
1739817461140762600,5.7627626953125,-28.75640869140625,-21.464845657348633,-12.98735523223877
1739817461150834700,5.772834716796875,-28.3206787109375,-21.619054794311523,-13.14831256866455
1739817461160905500,5.782905517578125,-28.464691162109375,-21.57497215270996,-13.117535591125488
1739817461170977500,5.7929775390625,-28.38690185546875,-21.531892776489258,-13.224967002868652
1739817461181048300,5.80304833984375,-28.194366455078125,-21.382200241088867,-13.248196601867676
1739817461191119400,5.813119384765625,-28.344635009765625,-21.480674743652344,-13.126740455627441
1739817461201191400,5.82319140625,-28.6824951171875,-21.306114196777344,-13.539732933044434
1739817461211262500,5.833262451171875,-28.921295166015625,-21.195486068725586,-13.484503746032715
1739817461221334500,5.84333447265625,-29.007781982421875,-21.124801635742188,-13.364352226257324
1739817461231405600,5.853405517578125,-29.0062255859375,-21.22848129272461,-13.498217582702637
1739817461241476600,5.8634765625,-28.754364013671875,-21.263328552246094,-13.802437782287598
1739817461251548400,5.87354833984375,-28.884674072265625,-21.205631256103516,-13.628031730651855
1739817461261619500,5.883619384765625,-29.02197265625,-21.154170989990234,-13.36246395111084
1739817461271690500,5.8936904296875,-28.712127685546875,-21.257755279541016,-13.539902687072754
1739817461281762600,5.903762451171875,-28.897674560546875,-21.167804718017578,-13.661620140075684
1739817461291833300,5.913833251953125,-29.176239013671875,-21.305681228637695,-13.523898124694824
1739817461301905400,5.923905517578125,-28.95977783203125,-21.065614700317383,-13.402209281921387
1739817461311976400,5.9339765625,-29.32647705078125,-21.24286651611328,-13.571890830993652
1739817461322047500,5.944047607421875,-29.22027587890625,-21.25945281982422,-13.493895530700684
1739817461332119600,5.95411962890625,-29.168182373046875,-21.56760597229004,-13.202946662902832
1739817461342190600,5.964190673828125,-28.5794677734375,-21.54620361328125,-13.270005226135254
1739817461352262400,5.974262451171875,-28.920074462890625,-21.519634246826172,-13.341378211975098
1739817461362333400,5.98433349609375,-29.00469970703125,-21.456378936767578,-13.520541191101074
1739817461372404500,5.994404541015625,-28.87457275390625,-21.4439640045166,-13.333170890808105
1739817461382476500,6.0044765625,-28.92376708984375,-21.127622604370117,-13.2617769241333
1739817461392547600,6.014547607421875,-28.959014892578125,-21.25787353515625,-13.266226768493652
1739817461402618400,6.024618408203125,-29.291839599609375,-21.268396377563477,-13.177338600158691
1739817461412690400,6.0346904296875,-29.1328125,-21.24321746826172,-13.00854778289795
1739817461422761500,6.044761474609375,-29.156402587890625,-21.068119049072266,-13.04731273651123
1739817461432832500,6.05483251953125,-29.01275634765625,-21.16962432861328,-13.166260719299316
1739817461442904600,6.064904541015625,-28.78741455078125,-21.197803497314453,-13.052607536315918
1739817461452975600,6.0749755859375,-29.057037353515625,-21.08952522277832,-12.941338539123535
1739817461463047400,6.08504736328125,-29.50775146484375,-21.165325164794922,-12.815245628356934
1739817461473118500,6.095118408203125,-29.311492919921875,-21.05108070373535,-12.981513023376465
1739817461483189500,6.105189453125,-29.392242431640625,-20.816543579101562,-12.99975299835205
1739817461493261600,6.115261474609375,-29.6221923828125,-20.962512969970703,-12.984280586242676
1739817461503332600,6.12533251953125,-29.821746826171875,-21.20377540588379,-12.837729454040527
1739817461513403400,6.1354033203125,-29.878570556640625,-20.84720802307129,-12.99926471710205
1739817461523475500,6.145475341796875,-29.529266357421875,-20.800731658935547,-12.952103614807129
1739817461533546500,6.15554638671875,-29.67901611328125,-21.035886764526367,-13.207552909851074
1739817461543618600,6.16561865234375,-29.56622314453125,-20.97031593322754,-12.989256858825684
1739817461553689600,6.175689697265625,-29.7515869140625,-20.694047927856445,-12.956788063049316
1739817461563760600,6.1857607421875,-29.9114990234375,-20.720605850219727,-12.965950965881348
1739817461573832400,6.19583251953125,-30.004974365234375,-20.789981842041016,-12.993414878845215
1739817461583903500,6.205903564453125,-29.962249755859375,-21.133548736572266,-12.85436725616455
1739817461593974500,6.215974609375,-29.82586669921875,-20.894420623779297,-13.159268379211426
1739817461604046600,6.226046630859375,-29.4559326171875,-20.835630416870117,-12.828858375549316
1739817461614117600,6.23611767578125,-29.34564208984375,-20.85934066772461,-12.835532188415527
1739817461624189700,6.246189697265625,-29.69512939453125,-21.228239059448242,-12.77761173248291
1739817461634260500,6.256260498046875,-29.773956298828125,-20.955385208129883,-12.813687324523926
1739817461644331500,6.26633154296875,-29.928558349609375,-20.928836822509766,-12.629900932312012
1739817461654403300,6.2764033203125,-30.004302978515625,-20.87076187133789,-12.822178840637207
1739817461664474400,6.286474365234375,-30.183441162109375,-20.816757202148438,-12.706395149230957
1739817461674545400,6.29654541015625,-29.651580810546875,-21.04283905029297,-12.68648624420166
1739817461684617500,6.306617431640625,-29.91119384765625,-20.90732192993164,-12.59008502960205
1739817461694688500,6.3166884765625,-29.91644287109375,-21.079683303833008,-12.71665096282959
1739817461704759600,6.326759521484375,-29.445098876953125,-21.16965103149414,-12.625382423400879
1739817461714831600,6.33683154296875,-29.60528564453125,-21.06561851501465,-12.691996574401855
1739817461724902400,6.34690234375,-30.059326171875,-21.131513595581055,-12.556612968444824
1739817461734974700,6.356974609375,-29.682220458984375,-21.216670989990234,-12.733935356140137
1739817461745045500,6.36704541015625,-29.881561279296875,-21.503158569335938,-12.896822929382324
1739817461755116500,6.377116455078125,-29.901092529296875,-21.492679595947266,-12.820752143859863
1739817461765188400,6.387188232421875,-29.966705322265625,-21.4435977935791,-12.921141624450684
1739817461775259400,6.39725927734375,-29.83184814453125,-21.43271827697754,-13.174954414367676
1739817461785330400,6.407330322265625,-29.542633056640625,-21.3913516998291,-13.060748100280762
1739817461795402500,6.417402587890625,-29.49737548828125,-21.540817260742188,-13.004446983337402
1739817461805473500,6.4274736328125,-29.614776611328125,-21.647106170654297,-13.29090404510498
1739817461815544600,6.437544677734375,-29.763946533203125,-21.630931854248047,-13.286469459533691
1739817461825616600,6.44761669921875,-29.449676513671875,-21.58272933959961,-13.334023475646973
1739817461835687400,6.4576875,-29.460052490234375,-21.74708366394043,-13.407267570495605
1739817461845758500,6.467758544921875,-29.285186767578125,-21.41832733154297,-13.37651538848877
1739817461855830500,6.47783056640625,-29.0030517578125,-21.658222198486328,-13.077406883239746
1739817461865901600,6.487901611328125,-29.685028076171875,-21.606292724609375,-12.96778392791748
1739817461875973400,6.497973388671875,-29.8214111328125,-21.619577407836914,-12.966788291931152
1739817461886044400,6.50804443359375,-29.863555908203125,-21.930774688720703,-13.327080726623535
1739817461896115500,6.518115478515625,-29.946624755859375,-21.49386978149414,-13.180390357971191
1739817461906187500,6.5281875,-29.892242431640625,-21.770292282104492,-13.323372840881348
1739817461916258600,6.538258544921875,-29.94805908203125,-22.189882278442383,-13.375527381896973
1739817461926329600,6.54832958984375,-29.5958251953125,-22.16563606262207,-13.400992393493652
1739817461936401700,6.558401611328125,-29.801361083984375,-22.11113166809082,-13.501616477966309
1739817461946472400,6.568472412109375,-29.583770751953125,-22.147863388061523,-13.478970527648926
1739817461956543500,6.57854345703125,-29.65704345703125,-22.336498260498047,-13.712458610534668
1739817461966615600,6.588615478515625,-29.35931396484375,-22.42035675048828,-13.789021492004395
1739817461976686600,6.5986865234375,-29.27569580078125,-22.675796508789062,-13.831137657165527
1739817461986757600,6.608757568359375,-29.061004638671875,-22.604602813720703,-13.736626625061035
1739817461996829400,6.618829345703125,-29.00732421875,-22.677234649658203,-13.867148399353027
1739817462006900500,6.628900390625,-29.256683349609375,-22.970489501953125,-13.982966423034668
1739817462016971500,6.638971435546875,-29.04864501953125,-23.023956298828125,-14.076687812805176
1739817462027043600,6.649043701171875,-28.885528564453125,-23.28995704650879,-14.002236366271973
1739817462037114600,6.659114501953125,-29.02301025390625,-23.293148040771484,-13.994778633117676
1739817462047185400,6.669185302734375,-28.52484130859375,-23.289165496826172,-14.240286827087402
1739817462057257500,6.679257568359375,-28.961029052734375,-23.337373733520508,-13.949103355407715
1739817462067328500,6.68932861328125,-28.65435791015625,-23.484880447387695,-13.838120460510254
1739817462077399600,6.699399658203125,-28.7388916015625,-23.720521926879883,-14.023543357849121
1739817462087471400,6.709471435546875,-28.726531982421875,-23.72732162475586,-13.663485527038574
1739817462097542100,6.719542236328125,-29.11968994140625,-23.742856979370117,-13.60590648651123
1739817462107614000,6.729614013671875,-29.132354736328125,-23.91502571105957,-13.295781135559082
1739817462117685000,6.73968505859375,-28.6864013671875,-23.749658584594727,-13.460286140441895
1739817462127756000,6.749756103515625,-28.606048583984375,-23.83757972717285,-13.460877418518066
1739817462137828000,6.759828125,-28.71478271484375,-24.003026962280273,-13.037690162658691
1739817462147899000,6.76989892578125,-28.48046875,-24.134517669677734,-13.20046329498291
1739817462157970000,6.779969970703125,-28.474456787109375,-24.389789581298828,-13.08217716217041
1739817462168042000,6.7900419921875,-28.363189697265625,-24.469112396240234,-12.973834037780762
1739817462178113000,6.800113037109375,-28.29339599609375,-24.403684616088867,-12.871487617492676
1739817462188184000,6.81018408203125,-28.062591552734375,-24.26244354248047,-12.81164264678955
1739817462198256000,6.820256103515625,-28.07037353515625,-24.348880767822266,-13.190117835998535
1739817462208327200,6.8303271484375,-27.913299560546875,-24.253276824951172,-13.14966106414795
1739817462218398200,6.840398193359375,-27.81585693359375,-24.287731170654297,-13.136073112487793
1739817462228470000,6.850469970703125,-27.734588623046875,-24.213275909423828,-13.198662757873535
1739817462238540800,6.860540771484375,-28.13116455078125,-24.504337310791016,-13.105612754821777
1739817462248611800,6.87061181640625,-27.90960693359375,-24.459075927734375,-12.916001319885254
1739817462258684000,6.880683837890625,-28.167877197265625,-24.598495483398438,-13.03792667388916
1739817462268755000,6.8907548828125,-28.411468505859375,-24.71830940246582,-13.087811470031738
1739817462278826000,6.900825927734375,-28.506011962890625,-24.346038818359375,-13.02436351776123
1739817462288898000,6.91089794921875,-28.136932373046875,-24.367019653320312,-12.92902660369873
1739817462298969000,6.920968994140625,-28.43994140625,-24.377870559692383,-13.171294212341309
1739817462309040000,6.9310400390625,-28.2037353515625,-24.628751754760742,-13.113259315490723
1739817462319112000,6.94111181640625,-27.99774169921875,-24.54120635986328,-13.189024925231934
1739817462329183000,6.951182861328125,-28.0703125,-24.426311492919922,-13.437336921691895
1739817462339254000,6.96125390625,-28.35443115234375,-24.367324829101562,-13.129059791564941
1739817462349325800,6.971325927734375,-28.467071533203125,-24.353591918945312,-13.22019100189209
1739817462359396900,6.98139697265625,-28.4334716796875,-24.10129165649414,-13.228333473205566
1739817462369468000,6.991468017578125,-28.727020263671875,-24.236614227294922,-13.131436347961426
1739817462379540000,7.0015400390625,-28.86590576171875,-24.31786346435547,-13.051953315734863
1739817462389611000,7.011611083984375,-28.8028564453125,-24.296485900878906,-13.220328330993652
1739817462399682000,7.02168212890625,-28.8951416015625,-24.125131607055664,-13.096322059631348
1739817462409754000,7.031754150390625,-28.924041748046875,-24.02410888671875,-13.031611442565918
1739817462419825200,7.0418251953125,-28.76312255859375,-23.8580322265625,-13.044238090515137
1739817462429896200,7.051896240234375,-28.52362060546875,-24.063678741455078,-12.921238899230957
1739817462439968000,7.061968017578125,-28.5648193359375,-23.897579193115234,-12.995774269104004
1739817462450038800,7.072038818359375,-28.536529541015625,-23.88800811767578,-12.964995384216309
1739817462460109800,7.08210986328125,-28.801300048828125,-23.891101837158203,-13.021283149719238
1739817462470182000,7.092181884765625,-28.851287841796875,-23.771766662597656,-12.98632526397705
1739817462480253000,7.1022529296875,-29.242156982421875,-23.725893020629883,-13.086485862731934
1739817462490324000,7.112323974609375,-29.0745849609375,-23.524381637573242,-12.992569923400879
1739817462500395000,7.12239501953125,-28.9075927734375,-23.834199905395508,-13.031598091125488
1739817462510467000,7.132467041015625,-29.119659423828125,-23.72870635986328,-13.221390724182129
1739817462520538000,7.1425380859375,-28.996551513671875,-23.77037811279297,-13.031477928161621
1739817462530609000,7.15260888671875,-28.918670654296875,-23.725933074951172,-13.084425926208496
1739817462540681200,7.16268115234375,-29.157135009765625,-23.533159255981445,-13.128575325012207
1739817462550752000,7.172751953125,-28.887451171875,-23.441715240478516,-13.028717994689941
1739817462560823000,7.182822998046875,-28.965972900390625,-23.440576553344727,-13.05955982208252
1739817462570894800,7.192894775390625,-29.239105224609375,-23.527111053466797,-13.07558536529541
1739817462580966000,7.2029658203125,-28.77764892578125,-23.481124877929688,-13.291153907775879
1739817462591037000,7.213036865234375,-28.620758056640625,-23.42177391052246,-13.142231941223145
1739817462601109000,7.22310888671875,-28.87554931640625,-23.68614387512207,-13.349888801574707
1739817462611180000,7.233179931640625,-28.69427490234375,-23.561668395996094,-13.40656566619873
1739817462621251000,7.2432509765625,-28.864288330078125,-23.553136825561523,-13.770195960998535
1739817462631323100,7.2533232421875,-29.279632568359375,-23.617483139038086,-13.66341495513916
1739817462641394000,7.263393798828125,-28.85589599609375,-23.59824562072754,-13.758732795715332
1739817462651465000,7.27346484375,-28.97491455078125,-23.588851928710938,-13.501444816589355
1739817462661537000,7.283537109375,-28.854217529296875,-23.704147338867188,-13.411429405212402
1739817462671608000,7.293608154296875,-28.8321533203125,-23.618085861206055,-13.498244285583496
1739817462681679000,7.30367919921875,-28.45501708984375,-23.724027633666992,-13.266274452209473
1739817462691750100,7.313750244140625,-28.737579345703125,-24.085315704345703,-13.274317741394043
1739817462701822000,7.323822021484375,-28.615966796875,-24.16008758544922,-13.516573905944824
1739817462711893000,7.33389306640625,-28.529541015625,-23.97955322265625,-13.376132011413574
1739817462721964000,7.343964111328125,-28.51605224609375,-24.06637954711914,-13.436139106750488
1739817462732036000,7.3540361328125,-28.292572021484375,-24.238117218017578,-13.472670555114746
1739817462742107000,7.36410693359375,-28.81890869140625,-24.279136657714844,-13.562350273132324
1739817462752178000,7.374177978515625,-28.52813720703125,-24.37181854248047,-13.146889686584473
1739817462762250000,7.38425,-28.645599365234375,-24.541545867919922,-13.295355796813965
1739817462772321000,7.394321044921875,-28.374542236328125,-24.53156089782715,-13.267607688903809
1739817462782392000,7.40439208984375,-28.373260498046875,-24.363658905029297,-13.329474449157715
1739817462792464100,7.414464111328125,-28.5330810546875,-24.423404693603516,-13.38225269317627
1739817462802535200,7.42453515625,-28.307769775390625,-24.700592041015625,-13.66552448272705
1739817462812606200,7.434606201171875,-28.35113525390625,-24.66903305053711,-13.773882865905762
1739817462822677000,7.444677001953125,-28.017608642578125,-24.614444732666016,-13.683173179626465
1739817462832748800,7.454748779296875,-28.13818359375,-24.949216842651367,-13.745652198791504
1739817462842819800,7.46481982421875,-28.141937255859375,-24.80263900756836,-13.94355297088623
1739817462852891000,7.474890869140625,-27.801544189453125,-24.94153594970703,-14.207980155944824
1739817462862963000,7.484962890625,-27.873077392578125,-25.171628952026367,-14.350687980651855
1739817462873034000,7.495033935546875,-28.376312255859375,-24.833463668823242,-14.39106273651123
1739817462883105000,7.50510498046875,-28.23968505859375,-24.64592742919922,-14.235299110412598
1739817462893177000,7.515177001953125,-27.989013671875,-24.764677047729492,-14.458409309387207
1739817462903248100,7.525248046875,-27.9549560546875,-24.952728271484375,-14.462756156921387
1739817462913319200,7.535319091796875,-27.893310546875,-25.088096618652344,-14.14809513092041
1739817462923390000,7.545389892578125,-27.80029296875,-25.33734703063965,-14.017571449279785
1739817462933462000,7.5554619140625,-27.337860107421875,-25.212615966796875,-13.727433204650879
1739817462943533000,7.565532958984375,-27.31732177734375,-25.120136260986328,-13.4826021194458
1739817462953604000,7.57560400390625,-27.555084228515625,-25.329097747802734,-13.304045677185059
1739817462963676000,7.585676025390625,-27.316925048828125,-25.425979614257812,-13.064980506896973
1739817462973747000,7.595746826171875,-27.538818359375,-25.50470733642578,-12.760008811950684
1739817462983818000,7.60581787109375,-27.1981201171875,-25.55361557006836,-12.615387916564941
1739817462993890000,7.61589013671875,-27.44024658203125,-25.768531799316406,-12.393721580505371
1739817463003961000,7.625961181640625,-27.507965087890625,-25.53863525390625,-12.237671852111816
1739817463014032000,7.636031982421875,-27.6759033203125,-25.549888610839844,-12.24381160736084
1739817463024103000,7.64610302734375,-27.809783935546875,-25.56867027282715,-12.413565635681152
1739817463034175000,7.656175048828125,-27.650177001953125,-25.542795181274414,-12.372488975524902
1739817463044246000,7.66624609375,-27.8902587890625,-25.49207305908203,-12.290083885192871
1739817463054317000,7.676317138671875,-28.067962646484375,-25.74209976196289,-12.357768058776855
1739817463064388900,7.686388916015625,-27.884063720703125,-25.754039764404297,-12.524834632873535
1739817463074460000,7.6964599609375,-28.07171630859375,-25.571407318115234,-12.873555183410645
1739817463084531000,7.706531005859375,-28.085235595703125,-25.592182159423828,-12.562516212463379
1739817463094602000,7.71660205078125,-28.031463623046875,-25.25339126586914,-12.50232982635498
1739817463104671200,7.726671142578125,-27.9949951171875,-25.467506408691406,-12.300501823425293
1739817463114742000,7.736741943359375,-27.9705810546875,-25.359771728515625,-12.226750373840332
1739817463124813000,7.74681298828125,-28.331390380859375,-25.222862243652344,-12.088021278381348
1739817463134885000,7.756885009765625,-28.369659423828125,-25.415992736816406,-12.267075538635254
1739817463144956200,7.7669560546875,-27.903472900390625,-25.36937713623047,-12.156380653381348
1739817463155027200,7.777027099609375,-28.556915283203125,-25.63339614868164,-12.291792869567871
1739817463165098200,7.78709814453125,-28.1768798828125,-25.324514389038086,-12.399811744689941
1739817463175170300,7.79717041015625,-28.486419677734375,-25.17816925048828,-12.363978385925293
1739817463185241300,7.807241455078125,-28.82958984375,-24.977691650390625,-12.28327465057373
1739817463195312000,7.81731201171875,-28.636688232421875,-24.888935089111328,-12.233397483825684
1739817463205384000,7.827384033203125,-29.140228271484375,-24.736557006835938,-12.53368091583252
1739817463215455000,7.837455078125,-28.97625732421875,-24.956600189208984,-12.4557523727417
1739817463225526000,7.847526123046875,-28.994781494140625,-24.90016746520996,-12.50964641571045
1739817463235597000,7.85759716796875,-29.375213623046875,-24.99072265625,-12.301362037658691
1739817463245669000,7.867669189453125,-29.32794189453125,-24.74847412109375,-12.367627143859863
1739817463255740200,7.877740234375,-29.237213134765625,-25.02088165283203,-12.232525825500488
1739817463265811200,7.887811279296875,-29.350372314453125,-24.790876388549805,-11.952286720275879
1739817463275882200,7.89788232421875,-29.065338134765625,-24.83940887451172,-11.770298957824707
1739817463285954300,7.907954345703125,-29.18621826171875,-24.75333023071289,-11.521012306213379
1739817463296025000,7.918025146484375,-29.222808837890625,-24.868762969970703,-11.63349437713623
1739817463306096000,7.92809619140625,-29.03253173828125,-24.702411651611328,-11.516592979431152
1739817463316168200,7.938168212890625,-29.07415771484375,-24.890491485595703,-11.364588737487793
1739817463326239200,7.9482392578125,-29.3780517578125,-24.981582641601562,-11.411328315734863
1739817463336310300,7.958310302734375,-29.36578369140625,-25.040637969970703,-11.356459617614746
1739817463346381300,7.96838134765625,-29.572235107421875,-24.89368438720703,-11.090781211853027
1739817463356453000,7.978453125,-29.19696044921875,-24.664485931396484,-11.076306343078613
1739817463366524200,7.988524169921875,-29.168853759765625,-24.59482192993164,-10.883198738098145
1739817463376595000,7.998594970703125,-28.98046875,-24.910991668701172,-11.490229606628418
1739817463386666000,8.008666015625,-29.021728515625,-24.815196990966797,-11.467947959899902
1739817463396738000,8.018738037109374,-28.975311279296875,-24.84850311279297,-11.500412940979004
1739817463406809000,8.02880908203125,-28.64276123046875,-24.821632385253906,-11.33364200592041
1739817463416880000,8.038880126953124,-29.108917236328125,-24.784011840820312,-11.418238639831543
1739817463426952200,8.0489521484375,-28.9600830078125,-24.357337951660156,-11.328059196472168
1739817463437023200,8.059023193359375,-29.026947021484375,-24.44015121459961,-11.307141304016113
1739817463447094300,8.06909423828125,-29.160919189453125,-24.52765655517578,-11.270285606384277
1739817463457165300,8.079165283203125,-29.58514404296875,-24.479915618896484,-11.299288749694824
1739817463467237000,8.089237060546875,-29.467193603515625,-24.3769474029541,-11.190611839294434
1739817463477308200,8.09930810546875,-29.236419677734375,-24.16283416748047,-11.389189720153809
1739817463487379200,8.109379150390625,-29.5045166015625,-24.11831283569336,-11.218304634094238
1739817463497450200,8.1194501953125,-29.20770263671875,-23.912635803222656,-11.153285026550293
1739817463507522000,8.12952197265625,-29.121124267578125,-24.205299377441406,-11.036372184753418
1739817463517593000,8.139593017578125,-29.674530029296875,-24.137418746948242,-11.128981590270996
1739817463527664000,8.1496640625,-30.1064453125,-24.10511016845703,-11.21308422088623
1739817463537735200,8.159735107421875,-29.9345703125,-24.035415649414062,-11.18529987335205
1739817463547807200,8.16980712890625,-29.758331298828125,-24.116859436035156,-11.062621116638184
1739817463557878000,8.1798779296875,-29.7962646484375,-24.14327049255371,-11.06898021697998
1739817463567949000,8.189948974609376,-29.808746337890625,-24.21595573425293,-10.865099906921387
1739817463578021000,8.200021240234374,-29.84405517578125,-23.872180938720703,-10.818099021911621
1739817463588092200,8.210092041015624,-30.054351806640625,-24.020767211914062,-11.050604820251465
1739817463598163200,8.2201630859375,-29.589599609375,-24.011215209960938,-10.958365440368652
1739817463608234200,8.230234130859374,-29.854278564453125,-24.080181121826172,-11.056084632873535
1739817463618306000,8.24030615234375,-29.98321533203125,-23.87588119506836,-11.048016548156738
1739817463628377000,8.250377197265625,-30.174560546875,-23.960525512695312,-11.244500160217285
1739817463638448000,8.2604482421875,-30.098419189453125,-23.817646026611328,-11.519450187683105
1739817463648519000,8.270518798828125,-30.208770751953125,-23.823822021484375,-11.364243507385254
1739817463658591000,8.280591064453125,-29.69873046875,-23.74989891052246,-11.218125343322754
1739817463668662000,8.290662109375,-29.544647216796875,-23.68880844116211,-11.199156761169434
1739817463678733000,8.300733154296875,-29.763763427734375,-23.673660278320312,-11.248000144958496
1739817463688804000,8.31080419921875,-29.886077880859375,-23.648422241210938,-11.368386268615723
1739817463698876200,8.320876220703125,-29.95892333984375,-23.63658905029297,-11.480656623840332
1739817463708947200,8.330947265625,-29.686279296875,-23.682910919189453,-11.67518138885498
1739817463719018200,8.341018310546875,-30.10467529296875,-23.734464645385742,-11.399081230163574
1739817463729089000,8.351089111328125,-30.112457275390625,-23.831737518310547,-11.42458438873291
1739817463739161000,8.3611611328125,-29.805267333984375,-23.952678680419922,-11.482754707336426
1739817463749232000,8.371232177734376,-29.963714599609375,-23.694965362548828,-11.668103218078613
1739817463759303200,8.38130322265625,-30.0111083984375,-23.70580291748047,-11.756770133972168
1739817463769374200,8.391374267578126,-30.1656494140625,-23.740083694458008,-11.899613380432129
1739817463779446000,8.401446044921874,-30.164154052734375,-23.690719604492188,-12.031176567077637
1739817463789517000,8.41151708984375,-29.882904052734375,-23.858552932739258,-11.986861228942871
1739817463799588000,8.421588134765624,-29.55169677734375,-23.849403381347656,-11.906350135803223
1739817463809659100,8.4316591796875,-30.05401611328125,-23.748676300048828,-12.2114839553833
1739817463819731200,8.441731201171875,-30.01953125,-23.538814544677734,-11.888520240783691
1739817463829802000,8.451802001953125,-30.03289794921875,-23.400390625,-11.96541690826416
1739817463839873000,8.461873046875,-30.22210693359375,-23.580799102783203,-12.022408485412598
1739817463849944000,8.471944091796875,-29.88446044921875,-23.807498931884766,-12.045384407043457
1739817463860015000,8.48201513671875,-29.893707275390625,-23.67182159423828,-12.070000648498535
1739817463870087200,8.492087158203125,-29.95751953125,-23.93954086303711,-12.164761543273926
1739817463880158200,8.502158203125,-29.896636962890625,-23.7382755279541,-12.086773872375488
1739817463890229200,8.512229248046875,-30.090301513671875,-23.76019859313965,-12.029067039489746
1739817463900300000,8.522300048828125,-30.140625,-24.04595375061035,-12.102046012878418
1739817463910372000,8.5323720703125,-29.921783447265625,-24.09776496887207,-12.122172355651855
1739817463920443100,8.542443115234375,-29.528472900390625,-23.668489456176758,-11.842127799987793
1739817463930514200,8.55251416015625,-29.910247802734375,-23.719377517700195,-11.797205924987793
1739817463940585200,8.562585205078125,-29.43389892578125,-23.489736557006836,-11.973998069763184
1739817463950657000,8.572656982421876,-29.947113037109375,-23.612438201904297,-11.72272777557373
1739817463960728000,8.58272802734375,-30.096435546875,-23.427448272705078,-11.533648490905762
1739817463970799000,8.592799072265626,-29.60015869140625,-23.727821350097656,-11.394930839538574
1739817463980870100,8.6028701171875,-29.40625,-24.11587905883789,-11.40739917755127
1739817463990942200,8.612942138671874,-29.42254638671875,-23.844581604003906,-11.470702171325684
1739817464001013000,8.623012939453124,-29.34417724609375,-23.73604965209961,-11.579529762268066
1739817464011084000,8.633083984375,-29.445648193359375,-23.815837860107422,-11.846823692321777
1739817464021155000,8.643155029296874,-29.103271484375,-23.459903717041016,-12.0066556930542
1739817464031227100,8.65322705078125,-29.117279052734375,-23.637678146362305,-11.891135215759277
1739817464041298200,8.663298095703125,-29.004486083984375,-23.41835594177246,-12.088627815246582
1739817464051369200,8.673369140625,-28.9813232421875,-23.763614654541016,-12.332711219787598
1739817464061440300,8.683440185546875,-29.319061279296875,-23.77569580078125,-12.543313026428223
1739817464071511000,8.693510986328125,-29.427581787109375,-23.750993728637695,-12.765397071838379
1739817464081583000,8.7035830078125,-29.1119384765625,-23.979812622070312,-12.644659996032715
1739817464091654100,8.713654052734375,-29.045135498046875,-24.070383071899414,-12.682921409606934
1739817464101728300,8.723728271484376,-28.853546142578125,-23.83211326599121,-12.542405128479004
1739817464111799300,8.73379931640625,-29.0693359375,-23.921772003173828,-12.703639030456543
1739817464121871400,8.743871337890624,-28.998870849609375,-24.17661476135254,-12.493578910827637
1739817464131942100,8.753942138671874,-29.2401123046875,-24.529598236083984,-12.449143409729004
1739817464142013200,8.76401318359375,-29.215911865234375,-24.22144317626953,-12.509175300598145
1739817464152084200,8.774084228515624,-29.327056884765625,-24.413700103759766,-12.31384563446045
1739817464162156000,8.784156005859375,-29.218414306640625,-24.577842712402344,-12.165860176086426
1739817464172227000,8.79422705078125,-28.920257568359375,-24.48255157470703,-11.961421012878418
1739817464182298000,8.804298095703125,-28.88946533203125,-24.75429916381836,-11.807393074035645
1739817464192369200,8.814369140625,-28.885498046875,-25.073158264160156,-12.011075019836426
1739817464202440000,8.82443994140625,-28.77398681640625,-25.49609375,-11.869229316711426
1739817464212512000,8.834511962890625,-28.55035400390625,-25.501638412475586,-11.874573707580566
1739817464222583000,8.8445830078125,-28.32171630859375,-25.576683044433594,-11.819430351257324
1739817464232654000,8.854654052734375,-28.585540771484375,-25.667377471923828,-11.918168067932129
1739817464242725000,8.86472509765625,-28.55865478515625,-25.569425582885742,-11.968342781066895
1739817464252797200,8.874797119140625,-28.417266845703125,-25.73544692993164,-11.90503215789795
1739817464262868200,8.8848681640625,-28.285858154296875,-25.852256774902344,-11.84679889678955
1739817464272939300,8.894939208984376,-28.137298583984375,-25.697975158691406,-11.674551963806152
1739817464283010300,8.90501025390625,-28.74737548828125,-25.44612693786621,-11.5783052444458
1739817464293081000,8.9150810546875,-28.774749755859375,-25.5062255859375,-11.487446784973145
1739817464303153200,8.925153076171876,-28.687347412109375,-25.520263671875,-11.546711921691895
1739817464313224200,8.93522412109375,-28.37274169921875,-25.612329483032227,-11.521977424621582
1739817464323295200,8.945295166015624,-28.3878173828125,-25.46712875366211,-11.455533027648926
1739817464333366300,8.9553662109375,-28.78533935546875,-25.400959014892578,-11.339383125305176
1739817464343438000,8.96543798828125,-28.75457763671875,-25.383272171020508,-11.395127296447754
1739817464353509000,8.975509033203124,-28.83892822265625,-25.413354873657227,-11.706969261169434
1739817464363580200,8.985580078125,-28.840423583984375,-25.39236831665039,-11.605347633361816
1739817464373651000,8.99565087890625,-28.69921875,-25.5322322845459,-11.883273124694824
1739817464383722000,9.005721923828125,-29.0933837890625,-25.299991607666016,-11.473368644714355
1739817464393794000,9.0157939453125,-29.029510498046875,-25.221328735351562,-11.859976768493652
1739817464403865000,9.025864990234375,-28.57269287109375,-25.432159423828125,-12.059903144836426
1739817464413936000,9.03593603515625,-29.059234619140625,-25.33846664428711,-11.980244636535645
1739817464424007200,9.046007080078125,-28.580230712890625,-25.35427474975586,-11.932608604431152
1739817464434078200,9.056078125,-28.587188720703125,-25.317075729370117,-12.071078300476074
1739817464444150300,9.066150390625,-28.6383056640625,-25.261919021606445,-12.04744815826416
1739817464454221300,9.07622119140625,-28.858917236328125,-25.207862854003906,-12.265110969543457
1739817464464292000,9.0862919921875,-28.596832275390625,-25.083894729614258,-11.908759117126465
1739817464474363100,9.096363037109375,-28.518951416015625,-25.160629272460938,-12.17302417755127
1739817464484435200,9.106435302734376,-28.77288818359375,-25.35392951965332,-12.285395622253418
1739817464494506200,9.11650634765625,-28.439544677734375,-25.466373443603516,-12.16149616241455
1739817464504577300,9.126577392578126,-28.619415283203125,-25.184520721435547,-12.344443321228027
1739817464514648300,9.1366484375,-28.73675537109375,-25.130096435546875,-11.930060386657715
1739817464524719400,9.14671923828125,-28.72821044921875,-25.060680389404297,-12.023621559143066
1739817464534791200,9.156791259765624,-28.90655517578125,-25.435810089111328,-12.17695140838623
1739817464544862000,9.166862060546874,-28.929840087890625,-25.248695373535156,-12.231867790222168
1739817464554933000,9.17693310546875,-28.536895751953125,-25.156265258789062,-12.023381233215332
1739817464565004000,9.187004150390624,-28.889312744140625,-25.051668167114258,-11.926743507385254
1739817464575075000,9.197074951171874,-29.053436279296875,-25.1263427734375,-11.895047187805176
1739817464585147100,9.207147216796875,-28.793060302734375,-25.346595764160156,-12.013121604919434
1739817464595218200,9.21721826171875,-28.70831298828125,-25.14063835144043,-11.97269344329834
1739817464605289200,9.227289306640625,-28.513092041015625,-25.23202896118164,-11.99819278717041
1739817464615360000,9.237360107421875,-28.729095458984375,-25.062467575073242,-11.732190132141113
1739817464625431000,9.24743115234375,-28.944610595703125,-25.076616287231445,-11.891810417175293
1739817464635503000,9.257503173828125,-28.956298828125,-25.021347045898438,-12.039620399475098
1739817464645574100,9.26757421875,-28.976348876953125,-25.047359466552734,-11.895668983459473
1739817464655645200,9.277645263671875,-28.844635009765625,-24.903675079345703,-11.878464698791504
1739817464665716200,9.28771630859375,-28.967041015625,-25.093753814697266,-12.159031867980957
1739817464675787300,9.297787353515625,-29.0098876953125,-24.958206176757812,-11.7311372756958
1739817464685859300,9.307859375,-29.166412353515625,-25.074264526367188,-11.943318367004395
1739817464695930400,9.317930419921876,-28.7696533203125,-25.078468322753906,-11.94081974029541
1739817464706001200,9.328001220703126,-28.52044677734375,-24.627490997314453,-11.943732261657715
1739817464716072200,9.338072265625,-28.445343017578125,-25.20388412475586,-11.959723472595215
1739817464726143200,9.348143310546876,-28.3895263671875,-25.05191421508789,-11.88792896270752
1739817464736215000,9.358215087890626,-28.83258056640625,-24.961450576782227,-12.056113243103027
1739817464746286000,9.3682861328125,-28.6170654296875,-25.113109588623047,-12.321316719055176
1739817464756357000,9.378357177734374,-28.349151611328125,-25.120807647705078,-12.093113899230957
1739817464766428200,9.38842822265625,-28.614990234375,-25.289697647094727,-12.062451362609863
1739817464776499000,9.3984990234375,-28.714630126953125,-25.112316131591797,-11.928727149963379
1739817464786571000,9.408571044921874,-28.58050537109375,-25.24654197692871,-11.96638011932373
1739817464796642000,9.41864208984375,-28.368743896484375,-25.187450408935547,-11.855744361877441
1739817464806713000,9.428713134765625,-28.6541748046875,-25.074615478515625,-11.650145530700684
1739817464816784100,9.4387841796875,-28.41986083984375,-25.1235408782959,-11.76452922821045
1739817464826855200,9.448855224609375,-28.83197021484375,-25.28500747680664,-11.76146411895752
1739817464836927200,9.45892724609375,-28.5653076171875,-25.257125854492188,-12.075955390930176
1739817464846998300,9.468998291015625,-28.639312744140625,-25.399742126464844,-12.123435020446777
1739817464857069000,9.479069091796875,-28.444427490234375,-25.426067352294922,-11.734301567077637
1739817464867140000,9.48914013671875,-28.316436767578125,-25.44045639038086,-11.565367698669434
1739817464877211100,9.499211181640625,-28.341644287109375,-25.599342346191406,-11.339434623718262
1739817464887283200,9.509283203125,-28.2730712890625,-25.722511291503906,-11.142359733581543
1739817464897354200,9.519354248046875,-28.702850341796875,-25.69563102722168,-11.197548866271973
1739817464907425300,9.52942529296875,-28.6748046875,-25.704965591430664,-11.100438117980957
1739817464917496300,9.539496337890625,-28.339935302734375,-25.760902404785156,-11.04912281036377
1739817464927567400,9.5495673828125,-28.406280517578125,-25.786670684814453,-11.10466480255127
1739817464937639200,9.55963916015625,-28.496002197265625,-25.752304077148438,-11.248473167419434
1739817464947710000,9.5697099609375,-28.205352783203125,-25.713672637939453,-11.447989463806152
1739817464957781000,9.579781005859376,-28.07666015625,-25.711345672607422,-11.704340934753418
1739817464967852000,9.58985205078125,-27.887969970703125,-25.358182907104492,-11.567757606506348
1739817464977923000,9.599923095703126,-27.7969970703125,-25.585891723632812,-11.645730018615723
1739817464987995100,9.6099951171875,-28.292633056640625,-25.526409149169922,-11.862759590148926
1739817464998066200,9.620066162109374,-28.396148681640625,-25.566158294677734,-11.944375038146973
1739817465008137200,9.63013720703125,-28.29937744140625,-25.59026336669922,-11.841446876525879
1739817465018208000,9.6402080078125,-28.38592529296875,-25.452951431274414,-11.871891975402832
1739817465028279000,9.650279052734374,-28.368560791015625,-25.475584030151367,-12.010220527648926
1739817465038350000,9.66035009765625,-28.36798095703125,-25.577289581298828,-11.87366771697998
1739817465048422100,9.670422119140625,-28.12652587890625,-25.571491241455078,-11.71342945098877
1739817465058493200,9.6804931640625,-28.342254638671875,-25.679523468017578,-11.533251762390137
1739817465068564200,9.690564208984375,-28.33477783203125,-25.81414794921875,-11.191617012023926
1739817465078635300,9.70063525390625,-28.53570556640625,-25.966283798217773,-11.09941577911377
1739817465088706000,9.7107060546875,-28.557373046875,-26.142200469970703,-10.97529125213623
1739817465098778400,9.7207783203125,-27.823028564453125,-25.568256378173828,-10.509732246398926
1739817465108849400,9.730849365234375,-27.937530517578125,-25.674663543701172,-10.751484870910645
1739817465118920200,9.740920166015625,-27.79925537109375,-26.093120574951172,-10.813183784484863
1739817465128991200,9.7509912109375,-27.89752197265625,-26.225643157958984,-10.69526481628418
1739817465139062300,9.761062255859375,-28.117919921875,-26.073848724365234,-10.91540241241455
1739817465149134000,9.771134033203126,-28.048004150390625,-26.067235946655273,-10.679427146911621
1739817465159205000,9.781205078125,-27.95452880859375,-25.72494888305664,-10.798548698425293
1739817465169276200,9.791276123046876,-27.9970703125,-25.780410766601562,-11.03952693939209
1739817465179347200,9.80134716796875,-27.973297119140625,-25.853973388671875,-11.338461875915527
1739817465189418000,9.81141796875,-27.643646240234375,-25.856014251708984,-11.247422218322754
1739817465199489000,9.821489013671876,-27.47760009765625,-25.831478118896484,-11.406023979187012
1739817465209561000,9.83156103515625,-27.54339599609375,-25.913829803466797,-11.696228981018066
1739817465219632000,9.841632080078124,-27.39227294921875,-25.768192291259766,-11.818175315856934
1739817465229703200,9.851703125,-27.5472412109375,-25.872207641601562,-11.771580696105957
1739817465239774200,9.861774169921874,-27.546051025390625,-26.158065795898438,-11.972699165344238
1739817465249845200,9.87184521484375,-28.00128173828125,-25.752012252807617,-11.817851066589355
1739817465259916000,9.881916015625,-27.662200927734375,-25.73641586303711,-11.791825294494629
1739817465269988000,9.891988037109375,-27.46771240234375,-25.586956024169922,-11.737763404846191
1739817465280059100,9.90205908203125,-27.6727294921875,-25.672683715820312,-11.900132179260254
1739817465290130200,9.912130126953125,-27.21380615234375,-25.58868408203125,-11.949563026428223
1739817465300201200,9.922201171875,-27.5938720703125,-25.9354305267334,-11.95504093170166
1739817465310272300,9.932272216796875,-27.802154541015625,-25.679763793945312,-11.934418678283691
1739817465320343300,9.94234326171875,-27.69921875,-25.604225158691406,-11.845097541809082
1739817465330415400,9.952415283203125,-27.624114990234375,-25.65656280517578,-11.464905738830566
1739817465340486400,9.962486328125,-27.201507568359375,-25.703617095947266,-11.906712532043457
1739817465350557200,9.97255712890625,-27.4769287109375,-25.762035369873047,-11.933697700500488
1739817465360628200,9.982628173828125,-27.5469970703125,-25.76631736755371,-12.268858909606934
1739817465370699300,9.99269921875,-27.526397705078125,-25.721153259277344,-12.134772300720215
1739817465380771000,10.00277099609375,-27.727569580078125,-25.544166564941406,-12.154454231262207
1739817465390842000,10.012842041015626,-27.295440673828125,-25.542348861694336,-12.045329093933105
1739817465400913200,10.0229130859375,-27.4608154296875,-25.388221740722656,-12.240788459777832
1739817465410984200,10.032984130859376,-27.844482421875,-25.402942657470703,-12.391375541687012
1739817465421055000,10.043054931640626,-27.58148193359375,-25.04680633544922,-12.318787574768066
1739817465431126000,10.0531259765625,-27.4432373046875,-24.891891479492188,-12.514897346496582
1739817465441198000,10.063197998046874,-27.42877197265625,-25.019947052001953,-12.652342796325684
1739817465451269000,10.07326904296875,-27.56787109375,-24.946807861328125,-12.65621280670166
1739817465461340200,10.083340087890624,-27.795135498046875,-24.72034454345703,-12.500723838806152
1739817465471411200,10.0934111328125,-27.63348388671875,-24.889787673950195,-12.478039741516113
1739817465481482200,10.103482177734374,-28.22479248046875,-24.896991729736328,-12.671969413757324
1739817465491553000,10.113552978515624,-28.395416259765625,-24.984699249267578,-12.881121635437012
1739817465501624000,10.1236240234375,-28.38116455078125,-24.70770263671875,-12.832798957824707
1739817465511696100,10.133696044921875,-27.972442626953125,-24.67459487915039,-12.594111442565918
1739817465521767200,10.14376708984375,-28.392913818359375,-24.62861442565918,-12.596444129943848
1739817465531838200,10.153838134765625,-28.575958251953125,-24.924427032470703,-12.639058113098145
1739817465541909200,10.1639091796875,-28.4891357421875,-24.7829647064209,-12.728602409362793
1739817465551980300,10.173980224609375,-28.099639892578125,-24.659095764160156,-12.658442497253418
1739817465562051000,10.184051025390625,-28.60400390625,-24.57599449157715,-13.0866117477417
1739817465572123400,10.194123291015625,-28.74542236328125,-24.528472900390625,-12.989428520202637
1739817465582194200,10.204194091796875,-28.43548583984375,-24.36526870727539,-13.231514930725098
1739817465592265200,10.21426513671875,-28.160675048828125,-24.449209213256836,-13.25594425201416
1739817465602336300,10.224336181640625,-28.477020263671875,-24.26654815673828,-13.4452486038208
1739817465612407300,10.2344072265625,-28.36468505859375,-24.44002914428711,-13.397934913635254
1739817465622478300,10.244478271484375,-28.448883056640625,-24.600038528442383,-13.496062278747559
1739817465632550100,10.254550048828126,-28.178009033203125,-24.43967056274414,-13.39180850982666
1739817465642621200,10.26462109375,-27.630645751953125,-24.3380069732666,-13.487519264221191
1739817465652692000,10.27469189453125,-27.572021484375,-24.42664909362793,-13.59671688079834
1739817465662763000,10.284762939453126,-27.901519775390625,-24.384187698364258,-13.500906944274902
1739817465672834000,10.294833984375,-28.07122802734375,-24.473228454589844,-13.482949256896973
1739817465682905000,10.304905029296876,-27.9185791015625,-24.207746505737305,-13.358386039733887
1739817465692976000,10.31497607421875,-28.00823974609375,-24.305511474609375,-13.32536792755127
1739817465703048200,10.325048095703124,-27.77447509765625,-24.315433502197266,-13.674670219421387
1739817465713119200,10.335119140625,-28.090118408203125,-24.332897186279297,-13.593304634094238
1739817465723190000,10.34518994140625,-27.987823486328125,-24.539234161376953,-13.64819622039795
1739817465733261000,10.355260986328124,-27.845458984375,-24.348342895507812,-13.502034187316895
1739817465743332000,10.36533203125,-27.6461181640625,-24.196380615234375,-13.512808799743652
1739817465753403100,10.375403076171875,-27.9244384765625,-23.918067932128906,-13.52956485748291
1739817465763475200,10.38547509765625,-27.923614501953125,-24.04498291015625,-13.551384925842285
1739817465773546200,10.395546142578125,-27.9306640625,-24.069543838500977,-13.164084434509277
1739817465783617300,10.4056171875,-27.600250244140625,-24.267696380615234,-13.438403129577637
1739817465793688000,10.41568798828125,-27.645355224609375,-24.24761199951172,-13.61418628692627
1739817465803759000,10.425759033203125,-27.661224365234375,-24.030858993530273,-13.388739585876465
1739817465813830100,10.435830078125,-27.966339111328125,-24.109451293945312,-13.465958595275879
1739817465823901200,10.445901123046875,-27.37127685546875,-24.179946899414062,-13.332242012023926
1739817465833973200,10.45597314453125,-27.51885986328125,-24.244874954223633,-13.52078914642334
1739817465844044300,10.466044189453125,-27.496002197265625,-24.341087341308594,-13.500899314880371
1739817465854115300,10.476115234375,-27.504241943359375,-24.505094528198242,-13.368592262268066
1739817465864186400,10.486186279296875,-27.6759033203125,-24.408031463623047,-13.221013069152832
1739817465874257200,10.496257080078125,-27.421478271484375,-24.679428100585938,-13.343939781188965
1739817465884328200,10.506328125,-27.669769287109375,-24.760631561279297,-13.562882423400879
1739817465894399200,10.516399169921876,-27.449951171875,-24.689298629760742,-13.46427059173584
1739817465904471000,10.526470947265626,-27.5042724609375,-24.80392837524414,-13.54746150970459
1739817465914542000,10.5365419921875,-27.1549072265625,-24.847503662109375,-13.51485538482666
1739817465924613000,10.546613037109376,-26.88861083984375,-24.796142578125,-13.220219612121582
1739817465934684200,10.55668408203125,-27.001312255859375,-25.076126098632812,-13.589837074279785
1739817465944755200,10.566755126953124,-27.0938720703125,-24.887083053588867,-13.512789726257324
1739817465954826200,10.576826171875,-26.5225830078125,-25.183879852294922,-13.55976390838623
1739817465964897300,10.586897216796874,-26.871337890625,-25.422550201416016,-13.845454216003418
1739817465974969000,10.596968994140624,-26.944915771484375,-25.322372436523438,-13.89948558807373
1739817465985040100,10.6070400390625,-26.673553466796875,-25.392059326171875,-14.086310386657715
1739817465995111200,10.617111083984375,-26.853240966796875,-25.37969207763672,-13.920289039611816
1739817466005182200,10.62718212890625,-26.748260498046875,-25.221176147460938,-13.685074806213379
1739817466015253000,10.6372529296875,-26.58587646484375,-25.113981246948242,-13.629462242126465
1739817466025324000,10.647323974609375,-27.165069580078125,-24.985675811767578,-13.339827537536621
1739817466035395000,10.65739501953125,-27.1383056640625,-25.03490447998047,-13.4335355758667
1739817466045467100,10.667467041015625,-26.77703857421875,-25.078824996948242,-13.42101764678955
1739817466055538200,10.6775380859375,-26.500732421875,-25.188945770263672,-13.354830741882324
1739817466065609200,10.687609130859375,-26.47723388671875,-24.788015365600586,-13.122967720031738
1739817466075680300,10.69768017578125,-26.4736328125,-25.124332427978516,-13.473498344421387
1739817466085751000,10.7077509765625,-26.501068115234375,-25.356807708740234,-13.128207206726074
1739817466095822000,10.717822021484375,-26.83087158203125,-25.465347290039062,-13.443026542663574
1739817466105894400,10.727894287109375,-26.775604248046875,-25.723888397216797,-13.441401481628418
1739817466115965400,10.73796533203125,-26.40277099609375,-25.829547882080078,-13.222271919250488
1739817466126037200,10.748037353515626,-26.240081787109375,-25.874496459960938,-12.974923133850098
1739817466136108300,10.7581083984375,-25.89691162109375,-26.26171875,-12.98839282989502
1739817466146179000,10.768178955078126,-25.74029541015625,-26.502830505371094,-12.967883110046387
1739817466156250000,10.77825,-25.4857177734375,-26.649972915649414,-12.685948371887207
1739817466166321200,10.788321044921876,-25.364349365234375,-26.706695556640625,-12.464583396911621
1739817466176392200,10.79839208984375,-25.397613525390625,-26.972675323486328,-12.400403022766113
1739817466186463200,10.808463134765624,-24.91217041015625,-27.133508682250977,-12.427252769470215
1739817466196535300,10.818535400390624,-24.8935546875,-27.39425277709961,-12.20129108428955
1739817466206606300,10.8286064453125,-25.01416015625,-27.513402938842773,-12.259568214416504
1739817466216677000,10.838677001953124,-25.069488525390625,-27.291717529296875,-12.297757148742676
1739817466226748200,10.848748046875,-24.85626220703125,-27.37891387939453,-12.245770454406738
1739817466236819200,10.858819091796875,-24.95233154296875,-27.439842224121094,-11.897076606750488
1739817466246890200,10.86889013671875,-24.915252685546875,-27.438045501708984,-11.684931755065918
1739817466256961300,10.878961181640625,-25.19354248046875,-27.560985565185547,-11.53841495513916
1739817466267032300,10.8890322265625,-25.078094482421875,-27.453651428222656,-11.555737495422363
1739817466277104400,10.8991044921875,-25.397705078125,-27.102783203125,-11.293684959411621
1739817466287175400,10.909175537109375,-24.991729736328125,-27.153532028198242,-11.257372856140137
1739817466297246200,10.91924609375,-24.994049072265625,-27.41136932373047,-10.94536304473877
1739817466307317200,10.929317138671875,-25.12872314453125,-27.292139053344727,-11.0632905960083
1739817466317388300,10.93938818359375,-25.621368408203125,-27.337881088256836,-11.061266899108887
1739817466327459300,10.949459228515625,-25.27459716796875,-27.395109176635742,-11.072665214538574
1739817466337530400,10.9595302734375,-25.41192626953125,-27.097061157226562,-11.023829460144043
1739817466347601400,10.969601318359375,-25.37213134765625,-27.27183723449707,-11.00492000579834
1739817466357672200,10.979672119140625,-25.37322998046875,-27.21803092956543,-11.06375789642334
1739817466367744300,10.989744140625,-25.039764404296875,-27.297893524169922,-11.0554838180542
1739817466377815300,10.999815185546876,-25.03021240234375,-27.203571319580078,-11.23613452911377
1739817466387886300,11.00988623046875,-24.827178955078125,-27.01227569580078,-10.900992393493652
1739817466397957400,11.019957275390626,-24.802276611328125,-27.242752075195312,-11.038163185119629
1739817466408028400,11.0300283203125,-24.844757080078125,-27.155467987060547,-11.194659233093262
1739817466418099500,11.040099365234376,-25.347686767578125,-27.469009399414062,-11.26894474029541
1739817466428170200,11.050170166015626,-25.2384033203125,-27.46607208251953,-11.362034797668457
1739817466438241300,11.0602412109375,-25.09521484375,-27.08060073852539,-10.97326374053955
1739817466448313300,11.070313232421874,-24.89703369140625,-26.917621612548828,-11.086709022521973
1739817466458384400,11.08038427734375,-25.024932861328125,-27.01398468017578,-11.391242027282715
1739817466468455400,11.090455322265624,-25.509857177734375,-27.111316680908203,-11.449173927307129
1739817466478526500,11.1005263671875,-25.321563720703125,-27.006793975830078,-11.25211238861084
1739817466488597500,11.110597412109374,-24.9893798828125,-27.038959503173828,-11.439976692199707
1739817466498668300,11.120668212890624,-25.448455810546875,-27.02630615234375,-11.283148765563965
1739817466508739300,11.1307392578125,-25.458770751953125,-26.788883209228516,-11.20825481414795
1739817466518810400,11.140810302734375,-25.950469970703125,-26.76212501525879,-11.148972511291504
1739817466528881400,11.15088134765625,-25.951751708984375,-26.815017700195312,-11.349242210388184
1739817466538953200,11.160953125,-25.623565673828125,-26.786592483520508,-11.200900077819824
1739817466549024300,11.171024169921875,-25.399169921875,-26.486848831176758,-11.029520988464355
1739817466559095300,11.18109521484375,-25.61407470703125,-26.636188507080078,-11.020031929016113
1739817466569166000,11.191166015625,-25.562896728515625,-26.620685577392578,-11.06531810760498
1739817466579237000,11.201237060546875,-25.722686767578125,-26.51823616027832,-11.432190895080566
1739817466589308200,11.21130810546875,-25.59613037109375,-26.323974609375,-11.242465019226074
1739817466599379200,11.221379150390625,-25.650665283203125,-26.344594955444336,-10.810837745666504
1739817466609450200,11.2314501953125,-25.60552978515625,-26.334089279174805,-10.944497108459473
1739817466619521300,11.241521240234375,-26.13775634765625,-26.415687561035156,-11.108736991882324
1739817466629592000,11.251592041015625,-26.08099365234375,-26.265838623046875,-11.19180965423584
1739817466639664400,11.261664306640625,-25.976470947265625,-26.224510192871094,-11.403264045715332
1739817466649735200,11.271735107421875,-26.03082275390625,-26.125900268554688,-11.14797306060791
1739817466659806200,11.28180615234375,-26.05352783203125,-26.048755645751953,-11.261626243591309
1739817466669877200,11.291877197265626,-26.116546630859375,-25.921558380126953,-11.38619327545166
1739817466679948300,11.3019482421875,-26.006683349609375,-26.050975799560547,-11.374348640441895
1739817466690019300,11.312019287109376,-26.3289794921875,-25.93437385559082,-11.321133613586426
1739817466700090400,11.32209033203125,-25.998321533203125,-25.80567169189453,-11.736985206604004
1739817466710161200,11.3321611328125,-26.03955078125,-26.032249450683594,-11.85663890838623
1739817466720232200,11.342232177734376,-25.77587890625,-25.991199493408203,-12.019579887390137
1739817466730304300,11.35230419921875,-25.998870849609375,-26.088239669799805,-11.925049781799316
1739817466740375300,11.362375244140624,-26.3353271484375,-26.221220016479492,-11.87956714630127
1739817466750446300,11.3724462890625,-26.064544677734375,-26.131349563598633,-11.778889656066895
1739817466760517400,11.382517333984374,-25.6171875,-26.11997413635254,-11.47036075592041
1739817466770588400,11.39258837890625,-25.867218017578125,-25.983287811279297,-11.588459968566895
1739817466780659200,11.4026591796875,-25.906768798828125,-25.998332977294922,-11.709301948547363
1739817466790730200,11.412730224609374,-25.718719482421875,-25.965435028076172,-11.525134086608887
1739817466800801300,11.42280126953125,-26.25335693359375,-26.026348114013672,-11.81279468536377
1739817466810872300,11.432872314453125,-26.165771484375,-25.978778839111328,-11.858490943908691
1739817466820943400,11.442943359375,-25.765228271484375,-26.042667388916016,-11.915204048156738
1739817466831014400,11.453014404296875,-25.823455810546875,-26.099044799804688,-11.779471397399902
1739817466841086500,11.46308642578125,-25.949462890625,-26.10424041748047,-11.780301094055176
1739817466851157200,11.4731572265625,-26.10748291015625,-26.141796112060547,-11.585631370544434
1739817466861228300,11.483228271484375,-25.883270263671875,-25.863922119140625,-11.535750389099121
1739817466871299300,11.49329931640625,-25.577911376953125,-25.83647918701172,-11.550436973571777
1739817466881370400,11.503370361328125,-25.596832275390625,-26.119754791259766,-11.96378231048584
1739817466891441400,11.51344140625,-25.83734130859375,-26.053808212280273,-12.006485939025879
1739817466901512400,11.523512451171875,-25.36419677734375,-25.935049057006836,-11.80321216583252
1739817466911583200,11.533583251953125,-25.72845458984375,-25.909622192382812,-11.969693183898926
1739817466921654300,11.543654296875,-25.566070556640625,-26.054073333740234,-12.126507759094238
1739817466931725300,11.553725341796875,-25.525665283203125,-26.146108627319336,-12.361001014709473
1739817466941796400,11.56379638671875,-25.430206298828125,-26.03528594970703,-12.370692253112793
1739817466951868400,11.573868408203126,-25.467742919921875,-26.028926849365234,-12.429253578186035
1739817466961939500,11.583939453125,-25.931915283203125,-25.73169708251953,-12.764613151550293
1739817466972010500,11.594010498046876,-25.681121826171875,-25.51453971862793,-13.017632484436035
1739817466982081500,11.60408154296875,-25.376129150390625,-25.46737289428711,-12.868168830871582
1739817466992152300,11.61415234375,-25.387969970703125,-25.411714553833008,-13.133002281188965
1739817467002223400,11.624223388671876,-25.13525390625,-25.20012855529785,-13.364649772644043
1739817467012294400,11.63429443359375,-25.449249267578125,-25.09398651123047,-13.083996772766113
1739817467022365400,11.644365478515626,-24.888702392578125,-25.118160247802734,-13.169344902038574
1739817467032436500,11.6544365234375,-24.745086669921875,-25.30582046508789,-13.168900489807129
1739817467042507500,11.664507568359374,-24.851959228515625,-25.403799057006836,-13.030718803405762
1739817467052578300,11.674578369140624,-24.6318359375,-25.616689682006836,-12.703547477722168
1739817467062649300,11.6846494140625,-24.95050048828125,-25.833084106445312,-12.691363334655762
1739817467072721200,11.69472119140625,-25.04180908203125,-25.888668060302734,-12.415387153625488
1739817467082792200,11.704792236328124,-24.81585693359375,-25.969253540039062,-12.67426586151123
1739817467092863200,11.71486328125,-24.82794189453125,-25.79452133178711,-12.495491981506348
1739817467102933800,11.724933837890624,-24.742340087890625,-25.970609664916992,-12.422003746032715
1739817467113004800,11.7350048828125,-24.701263427734375,-25.98493194580078,-12.215680122375488
1739817467123075800,11.745075927734375,-24.507415771484375,-26.18478775024414,-12.181574821472168
1739817467133147000,11.75514697265625,-24.772735595703125,-26.24073028564453,-11.96386432647705
1739817467143218000,11.765218017578125,-24.5904541015625,-26.322147369384766,-12.038165092468262
1739817467153289000,11.7752890625,-24.76776123046875,-26.455745697021484,-12.095770835876465
1739817467163360000,11.785360107421875,-24.57305908203125,-26.225431442260742,-12.084046363830566
1739817467173430800,11.7954306640625,-24.5782470703125,-26.091896057128906,-12.278965950012207
1739817467183501800,11.805501708984375,-24.638153076171875,-26.124343872070312,-12.698227882385254
1739817467193572900,11.81557275390625,-24.3873291015625,-26.019180297851562,-12.65137004852295
1739817467203644700,11.825644775390625,-24.26739501953125,-26.436731338500977,-12.935029029846191
1739817467213715700,11.8357158203125,-24.294677734375,-26.161029815673828,-13.262566566467285
1739817467223786800,11.845786865234375,-23.94732666015625,-26.205333709716797,-13.521710395812988
1739817467233857800,11.85585791015625,-24.11627197265625,-26.001895904541016,-13.345215797424316
1739817467243928800,11.8659287109375,-24.32403564453125,-26.131378173828125,-13.595513343811035
1739817467253999600,11.87599951171875,-24.581268310546875,-25.991304397583008,-13.657885551452637
1739817467264070700,11.886070556640625,-24.487762451171875,-25.943435668945312,-13.172476768493652
1739817467274141700,11.8961416015625,-24.1448974609375,-26.11334228515625,-13.210474967956543
1739817467284212700,11.906212646484375,-23.993133544921875,-25.949363708496094,-13.13893985748291
1739817467294283800,11.91628369140625,-24.145538330078125,-25.894657135009766,-13.197110176086426
1739817467304354800,11.926354736328125,-24.197113037109375,-25.92359161376953,-12.937655448913574
1739817467314425600,11.936425537109375,-24.221282958984375,-25.879966735839844,-13.219683647155762
1739817467324496600,11.94649658203125,-24.298248291015625,-26.097843170166016,-13.036810874938965
1739817467334567700,11.956567626953126,-23.99200439453125,-25.87129020690918,-13.194863319396973
1739817467344638700,11.966638671875,-24.092498779296875,-26.03600311279297,-13.17052936553955
1739817467354710800,11.976710693359376,-24.183807373046875,-26.252887725830078,-13.180033683776855
1739817467364781800,11.98678173828125,-23.755218505859375,-26.14839744567871,-13.338606834411621
1739817467374852900,11.996852783203124,-23.803192138671875,-26.080093383789062,-13.332106590270996
1739817467384923600,12.006923583984374,-23.900543212890625,-26.141998291015625,-13.149346351623535
1739817467394994700,12.01699462890625,-23.794036865234375,-26.039386749267578,-13.324536323547363
1739817467405065700,12.027065673828124,-24.2117919921875,-25.939273834228516,-13.32544994354248
1739817467415136800,12.03713671875,-23.920501708984375,-25.957927703857422,-13.43933391571045
1739817467425207800,12.047207763671874,-23.712127685546875,-25.695531845092773,-13.23214054107666
1739817467435278800,12.05727880859375,-23.839752197265625,-25.851572036743164,-13.383685111999512
1739817467445349600,12.067349609375,-23.81109619140625,-25.834197998046875,-13.401917457580566
1739817467455420700,12.077420654296875,-24.0849609375,-25.72107696533203,-13.39826488494873
1739817467465491700,12.08749169921875,-24.063446044921875,-25.948801040649414,-13.487969398498535
1739817467475562800,12.097562744140625,-24.45989990234375,-25.629894256591797,-13.500346183776855
1739817467485633800,12.1076337890625,-24.279266357421875,-25.71451759338379,-13.606818199157715
1739817467495704800,12.117704833984375,-24.32855224609375,-25.617969512939453,-13.59631633758545
1739817467505777000,12.12777685546875,-24.2342529296875,-25.436817169189453,-13.326628684997559
1739817467515847700,12.13784765625,-24.2574462890625,-25.50240707397461,-13.019326210021973
1739817467525918700,12.147918701171875,-24.025604248046875,-25.282005310058594,-13.06921100616455
1739817467535989800,12.15798974609375,-24.58837890625,-25.234439849853516,-12.693730354309082
1739817467546060800,12.168060791015625,-24.89105224609375,-25.39179039001465,-12.845824241638184
1739817467556131800,12.1781318359375,-24.43536376953125,-25.336671829223633,-12.694413185119629
1739817467566203000,12.188202880859375,-24.30926513671875,-25.161609649658203,-13.020445823669434
1739817467576273700,12.198273681640625,-24.260528564453125,-25.208152770996094,-13.215508460998535
1739817467586344700,12.2083447265625,-24.33740234375,-25.318552017211914,-13.30676555633545
1739817467596415700,12.218415771484375,-24.09832763671875,-25.284149169921875,-13.668328285217285
1739817467606486800,12.22848681640625,-24.17608642578125,-25.406234741210938,-13.803400993347168
1739817467616557800,12.238557861328125,-24.3336181640625,-25.40081024169922,-14.313895225524902
1739817467626628900,12.24862890625,-24.203582763671875,-25.193084716796875,-14.152152061462402
1739817467636700000,12.258699951171875,-23.97235107421875,-25.16164779663086,-14.234862327575684
1739817467646770700,12.268770751953125,-23.800933837890625,-25.119701385498047,-14.228001594543457
1739817467656841700,12.278841796875,-23.94207763671875,-25.202991485595703,-14.185091972351074
1739817467666912800,12.288912841796876,-23.57269287109375,-25.4259033203125,-14.092549324035645
1739817467676983800,12.29898388671875,-24.002227783203125,-25.223716735839844,-13.783747673034668
1739817467687054800,12.309054931640626,-23.889068603515625,-25.232379913330078,-14.002457618713379
1739817467697126000,12.3191259765625,-23.894927978515625,-25.309629440307617,-13.980727195739746
1739817467707198000,12.329197998046874,-23.683929443359375,-25.460826873779297,-14.1854829788208
1739817467717268700,12.339268798828124,-23.801177978515625,-25.50705909729004,-13.842028617858887
1739817467727339800,12.34933984375,-23.678009033203125,-25.557146072387695,-13.730185508728027
1739817467737410800,12.359410888671874,-23.558380126953125,-25.50320816040039,-13.791598320007324
1739817467747481900,12.36948193359375,-23.923736572265625,-25.65338897705078,-13.797698020935059
1739817467757553000,12.379552978515624,-23.7391357421875,-25.56879425048828,-13.722569465637207
1739817467767624000,12.3896240234375,-23.492523193359375,-25.7744140625,-13.606698036193848
1739817467777694700,12.39969482421875,-23.515625,-25.641468048095703,-13.557682991027832
1739817467787765800,12.409765869140625,-23.34515380859375,-25.75286293029785,-13.492833137512207
1739817467797836800,12.4198369140625,-23.580535888671875,-26.072771072387695,-13.614787101745605
1739817467807907800,12.429907958984375,-23.747222900390625,-26.168807983398438,-13.379206657409668
1739817467817979000,12.439978759765625,-23.686370849609375,-26.018014907836914,-13.303698539733887
1739817467828050000,12.4500498046875,-23.0369873046875,-26.147090911865234,-13.495909690856934
1739817467838120700,12.46012060546875,-23.1490478515625,-26.214216232299805,-13.407954216003418
1739817467848191700,12.470191650390625,-22.636199951171875,-26.204490661621094,-13.577422142028809
1739817467858262800,12.4802626953125,-23.139739990234375,-26.39669418334961,-13.69536304473877
1739817467868333800,12.490333740234375,-22.71173095703125,-26.44707489013672,-13.422661781311035
1739817467878404900,12.50040478515625,-22.492828369140625,-26.56123924255371,-13.273898124694824
1739817467888476000,12.510475830078125,-22.310546875,-26.624853134155273,-13.237408638000488
1739817467898546700,12.520546630859375,-22.8023681640625,-26.799341201782227,-12.958489418029785
1739817467908617700,12.53061767578125,-22.304412841796875,-26.841720581054688,-12.752110481262207
1739817467918688800,12.540688720703125,-22.666290283203125,-27.072505950927734,-13.055838584899902
1739817467928759800,12.550759765625,-22.76220703125,-27.01540756225586,-12.67366886138916
1739817467938830800,12.560830810546875,-22.717926025390625,-27.089540481567383,-12.423111915588379
1739817467948903000,12.57090283203125,-22.611663818359375,-27.126293182373047,-12.336443901062012
1739817467958974000,12.580973876953125,-22.755218505859375,-27.44373321533203,-11.963971138000488
1739817467969044700,12.591044677734375,-22.364593505859375,-27.785377502441406,-11.6875638961792
1739817467979115800,12.60111572265625,-22.6070556640625,-27.594636917114258,-11.629603385925293
1739817467989186800,12.611186767578126,-22.423370361328125,-27.945236206054688,-11.432085990905762
1739817467999257900,12.6212578125,-21.673919677734375,-28.270139694213867,-11.57726001739502
1739817468009329000,12.631328857421876,-21.70025634765625,-28.172454833984375,-11.351244926452637
