time,seconds_elapsed,z,y,x
1740773075290052600,0.019052490234375,-0.03940905032455921,-0.031188188337534666,-0.023336232728138565
1740773075300120800,0.029120849609375,-0.18718086021244526,-0.01419489489533007,0.02828501424193382
1740773075310189800,0.03918994140625,-0.2309796699285507,-0.11041187411285937,0.06461334194689988
1740773075320257500,0.049257568359375,-0.17114567121267318,-0.10509798561371862,-0.06372749902307986
1740773075330326800,0.059326904296875,-0.04119534921944141,0.04236636576019227,-0.03739931793734431
1740773075340395800,0.069395751953125,0.02111643778681755,0.11264986229799687,-0.013765782763063906
1740773075350463700,0.079463623046875,0.00787058724462986,0.20080738063529133,-0.07965422267969698
1740773075360532700,0.08953271484375,-0.004133154281973838,0.21022643943093716,-0.06899484496675432
1740773075370600700,0.0996005859375,0.003940846580266952,0.14078728476278482,-0.07343067198973148
1740773075380670000,0.109669921875,-0.024212065714597702,0.01836808892674744,-0.10421923001781105
1740773075390738700,0.11973876953125,-0.06237608441412448,-0.08743329571597278,-0.07281246702615171
1740773075400806700,0.129806640625,-0.004456394886970519,-0.12234452316462993,-0.06033836804144084
1740773075410876000,0.1398759765625,0.11599895353019236,-0.12033281801603733,-0.002189947792328894
1740773075420943600,0.149943603515625,0.12453355764150618,-0.03585683773569762,0.010614406060054898
1740773075431012900,0.160012939453125,0.03294482274651527,-0.12742321466840803,0.2411510814614594
1740773075441081900,0.170081787109375,0.023698270973563192,-0.1779573970541358,0.23745628206413238
1740773075451149800,0.18014990234375,-0.029943887364864346,-0.20033647518791256,0.19543927773088215
1740773075461218800,0.19021875,-0.17602935160100458,-0.19798852382227777,0.1592494451811537
1740773075471286800,0.200286865234375,-0.2567734518766403,-0.13393266962766648,0.12046484689787029
1740773075481355800,0.210355712890625,-0.262594705376029,-0.052887978970259424,0.057313722990639505
1740773075491424800,0.2204248046875,-0.24105565826296804,-0.0020623393572866914,0.044271870587952435
1740773075501492700,0.23049267578125,-0.22277356711924073,0.043888241565227505,0.018125841136090455
1740773075511562000,0.24056201171875,-0.18108488142490387,0.05677694923281669,0.0009031228521838784
1740773075521629700,0.250629638671875,-0.11945990763902664,0.04457322815470397,-0.017256985879689456
1740773075531698700,0.26069873046875,-0.11560732386410236,0.04306304278746247,-0.04727390194814652
1740773075541768000,0.270767822265625,-0.06287818871736527,0.06724127929769456,-0.0662073696726933
1740773075551835600,0.280835693359375,-0.06626666211187839,0.09732968969978392,-0.06435867306608706
1740773075561904600,0.290904541015625,-0.12318974181711673,0.1276849343445152,-0.062312042734585696
1740773075571974000,0.300973876953125,-0.09233107769489288,0.12730806385613977,-0.09913180721830576
1740773075582041900,0.311041748046875,-0.05731763198077678,0.06216499894671142,-0.13281060679517687
1740773075592110800,0.32111083984375,-0.030869770038127898,0.01710369501411915,-0.11795048945676535
1740773075602178800,0.3311787109375,0.05068330853283405,-0.012493205543980002,-0.10867467505671083
1740773075612247800,0.341247802734375,0.17625030087530613,-0.052714741295203565,-0.13605780855547636
1740773075622316800,0.35131689453125,0.2645879250198602,-0.09100845078900456,-0.17587302852813153
1740773075632384800,0.361384765625,0.3102992903590202,-0.05065948926582932,-0.1730636701958254
1740773075642453800,0.371453857421875,0.31447219212949273,-0.0062567223072052,-0.1584582948034629
1740773075652521700,0.381521728515625,0.3224924169778824,-0.025488880717381833,-0.15903865197468547
1740773075662590700,0.3915908203125,0.21453473108410834,-0.03182644970845431,-0.14945811900701372
1740773075672660000,0.401659912109375,0.13669628912210463,-0.020168854738399387,-0.11025204390864819
1740773075682728000,0.41172802734375,0.06903963395655155,0.024014570381119846,-0.0693855613173917
1740773075692796700,0.421796630859375,-0.027358547046780583,0.046126083619892594,-0.03990297132134437
1740773075702865000,0.431864990234375,-0.04278524875938892,0.07582852691169828,0.011856222814694046
1740773075712934000,0.441933837890625,-0.12719196319580078,0.1006915673483163,0.03984882998131215
1740773075723002600,0.452002685546875,-0.21123452049493788,0.09380765305347741,0.04312171417213976
1740773075733070800,0.46207080078125,-0.22802958795130251,0.08168408453948796,0.05538819828815758
1740773075743139800,0.472139892578125,-0.22190087593793867,0.06458338520005345,0.07973704212494194
1740773075753207800,0.482207763671875,-0.18876783714294432,0.05166537837274372,0.09282072437535971
1740773075763276800,0.49227685546875,-0.19254969376921652,0.07094751340448856,0.07340995799526571
1740773075773345800,0.502345703125,-0.18801263486146927,0.12048329587001352,0.04393646462112665
1740773075783413800,0.512413818359375,-0.1655932977825403,0.12907087227758018,0.053934017424471674
1740773075793482800,0.522482666015625,-0.1852098524004221,0.09723430303391069,0.07721486670356244
1740773075803550700,0.53255078125,-0.21536592121124265,0.03881915814001113,0.11660006122849881
1740773075813620000,0.542619873046875,-0.18830255771875382,0.017984825230203567,0.09934544996898621
1740773075823688700,0.552688720703125,-0.0899596723884344,0.014873707472346722,0.053352089350670574
1740773075833756700,0.562756591796875,-0.061033437633514404,-0.005724186333082616,0.06050842737872153
1740773075843826000,0.572825927734375,-0.046077860563993454,-0.016970606686361134,0.022384046569839118
1740773075853894700,0.582894775390625,-0.06935176864564419,-0.019553024394996465,0.0065041211970150465
1740773075863962600,0.592962646484375,-0.11930676290392875,-0.018708171068690715,0.06928527928069234
1740773075874031900,0.603031982421875,-0.031282442492246626,0.014997881841287017,0.0455529599070549
1740773075884099800,0.613099853515625,0.055792614370584484,0.021369170438870787,0.01314911216944456
1740773075894168800,0.6231689453125,0.031048049214482305,-0.015419687449932098,0.0284057180121541
1740773075904237800,0.63323779296875,0.011295300996303558,-0.013224844286777079,0.036524215603247284
1740773075914305800,0.643305908203125,-0.03440788103640079,0.019337591546028852,0.07076324287876487
1740773075924372200,0.653372314453125,-0.10937982765138149,0.0020097689198330044,0.10411043588109314
1740773075934440200,0.663440185546875,-0.1656885748505592,-0.023708171313069758,0.13912388159520922
1740773075944509000,0.673509033203125,-0.15418401501774787,0.006042531567253172,0.17324907323271035
1740773075954578200,0.683578125,-0.0879600230038166,0.06811784293651581,0.11709705096520483
1740773075964646100,0.693646240234375,0.001979191118478775,0.0845129878224805,0.08843838110528886
1740773075974715100,0.703715087890625,-0.009288637349009513,0.10608137062788009,0.10690488890521228
1740773075984783000,0.713783203125,-0.028310148683190345,0.1345884666552767,0.09053739921115338
1740773075994852000,0.72385205078125,-0.015199907219409942,0.08781498850993812,0.08496807464621961
1740773076004921000,0.733921142578125,0.12507833204269408,0.022608685638569295,0.0602935059864074
1740773076014989000,0.743989013671875,0.2476888126671314,-0.03827354348860681,0.07320559452958404
1740773076025058000,0.75405810546875,0.25765607993006706,-0.025229535661451516,0.13249058106057346
1740773076035127000,0.764126953125,0.25859423756301403,0.044632776322215795,0.10141074846833943
1740773076045195000,0.774195068359375,0.2544336107522249,0.035448293467424806,0.08414360652081668
1740773076055264300,0.78426416015625,0.18677578654289245,-0.09221749778520315,0.13101006017923356
1740773076065332200,0.794332275390625,0.04353343677818775,-0.07358841983471065,0.14648980725333094
1740773076075401000,0.80440087890625,-0.03745557816922664,0.0022824849139899015,0.11335231147892773
1740773076085470200,0.81447021484375,-0.06661153002679347,0.027954467113316058,0.11909925763309001
1740773076095538200,0.8245380859375,-0.05670096138715744,-0.004530409971252083,0.09796827986426651
1740773076105607000,0.83460693359375,0.05031038356721401,-0.04348864778839052,0.03782492293827235
1740773076115675100,0.844675048828125,0.09938859499096869,-0.020554054663702845,0.006982406233251095
1740773076125744000,0.854744140625,0.04531096784472465,0.045489795010350643,-0.020241993039846418
1740773076135813000,0.864813232421875,0.018151158240437507,0.08229096439145504,-0.05403232669979333
1740773076145881000,0.874881103515625,-0.06684475426077842,0.029838819555193186,-0.05343903698176145
1740773076155950000,0.8849501953125,-0.04314180711209774,-0.0642873248629272,0.009693711018562316
1740773076166018300,0.895018310546875,-0.013640402817726134,-0.06901289208009839,0.023788068148866293
1740773076176087000,0.905087158203125,-0.0689502021074295,-0.00522526036761701,0.063901175089553
1740773076186156000,0.915156005859375,-0.08198679381310939,0.033864787135645745,0.10222118806838988
1740773076196224300,0.925224365234375,0.02820259665548801,0.03408011038675904,0.07028627301678061
1740773076206293000,0.93529296875,0.03304302242398262,0.03263195740506053,0.03779043614678085
1740773076216362200,0.9453623046875,0.00021451953351497648,0.052891486101597544,0.0339387291546911
1740773076226430200,0.95543017578125,-0.006693360158801079,0.06746727007329463,0.04888955698385834
1740773076236499000,0.9654990234375,-0.019929858350753782,0.053044192445278165,0.055515404864400625
1740773076246567200,0.975567138671875,-0.07998071468770504,0.028788725980371237,0.06589914397373794
1740773076256636200,0.98563623046875,-0.07441898890733718,0.001731792228668928,0.08032324451506137
1740773076266705200,0.995705078125,-0.014763269367814063,-0.008156929905340076,0.09459741519168019
1740773076276773000,1.005773193359375,0.0699479809731245,-0.012895721930265426,0.08265059148408473
1740773076286842000,1.015842041015625,0.09966156671345233,-0.009832169641181826,0.06842603210285306
1740773076296910000,1.02591015625,0.08230126658976078,-0.005313011716306209,0.053939753045514224
1740773076306979000,1.03597900390625,0.09716916537582873,-0.01625182742513716,0.03533654018864035
1740773076317048000,1.046048095703125,0.10897300041615962,0.00859057208225131,-0.006069383041560649
1740773076327116300,1.0561162109375,0.09399930316805839,0.040091625761240715,-0.02468414020575583
1740773076337185000,1.06618505859375,0.05505319418013096,0.04884381814599037,-0.01668693090677261
1740773076347254000,1.07625390625,0.014181670087575912,0.04804156185239553,-0.018605624009668826
1740773076357322200,1.086322265625,-0.014796587115526198,0.06695069885328411,-0.05032265852689743
1740773076367391200,1.09639111328125,-0.004825228199362755,0.15209595669731496,-0.0687294720288366
1740773076377459000,1.106458984375,-0.08890870203077793,0.18932159856818614,-0.05333871841244399
1740773076387528200,1.116528076171875,-0.12385668129324913,0.09579751169644296,0.0428330334238708
1740773076397597200,1.12659716796875,-0.015004676908254622,0.058345002267137167,0.08742993471510707
1740773076407665200,1.1366650390625,0.0702355657428503,0.04439370686933398,0.04577785470411181
1740773076417734100,1.146734130859375,0.12088497200608253,0.026052798210456966,0.0451432100623846
1740773076427802000,1.156802001953125,0.16121873596012593,0.03844502759799361,0.06718297323919832
1740773076437871000,1.16687109375,0.11805939319133758,0.06713672294467687,0.07529613706804812
1740773076447940000,1.176940185546875,0.06408522641956806,0.05758943465948105,0.06333996101021766
1740773076458008000,1.187008056640625,0.014479191729426383,0.04301481973156333,0.061718278092518446
1740773076468077000,1.1970771484375,-0.016390578308701515,0.05898841473720967,0.010905424895882606
1740773076478145000,1.20714501953125,-0.014386252748966216,0.08479637134112417,-0.02246229943782091
1740773076488214300,1.21721435546875,-0.04195756576359272,0.1021429352004081,-0.030715675454959273
1740773076498283300,1.227283203125,-0.10425766233205795,0.1136917725663632,-0.026506460262089967
1740773076508351000,1.23735107421875,-0.13541560166180133,0.13908347651958464,-0.037021497600898144
1740773076518420200,1.247420166015625,-0.18180559691488743,0.1721383355118334,-0.05630597072020173
1740773076528489200,1.2574892578125,-0.17427227880060672,0.2061740953002125,-0.08688311448730528
1740773076538557000,1.267556884765625,-0.10514087490737438,0.25028686633631586,-0.121001584123075
1740773076548626200,1.277626220703125,0.0000602057546377182,0.10578326446413994,-0.03672309917621314
1740773076558694100,1.287694091796875,0.2991775923639536,0.07448606279417871,0.09655227558650076
1740773076568763100,1.29776318359375,0.26981062810420986,-0.06758505123406648,0.09287819018363952
1740773076578832100,1.30783203125,0.11170622477233409,-0.15143720052763818,0.14243687860071658
1740773076588900000,1.317900146484375,0.06283201148808003,-0.08363573006391525,0.08354578675813973
1740773076598969300,1.32796923828125,0.03925473654568195,-0.017702610755339264,0.0037029461711645126
1740773076609037000,1.338037109375,0.04406827430725097,0.031730697716400025,-0.022081775687634943
1740773076619106000,1.34810595703125,0.038810499909520145,0.05809972226917744,-0.01353263159431517
1740773076629175300,1.35817529296875,0.06813830120265484,0.11745996599346399,-0.010612141037732363
1740773076639243000,1.368242919921875,0.041619127589464185,0.12395816890634595,-0.012650003540888428
1740773076649312300,1.378312255859375,-0.054016252347826955,0.09248108062483369,0.03753368490673602
1740773076659381200,1.38838134765625,-0.10774667349159717,0.0601065320469439,0.07586297717057168
1740773076669449200,1.39844921875,-0.09553542669415474,0.04579553649127483,0.049138855569809674
1740773076679518200,1.408518310546875,-0.07475742708146571,0.06515804328285157,0.019493074368685484
1740773076689586200,1.418586181640625,-0.026034604966640472,0.0747560388419777,0.017566563285514713
1740773076699655200,1.4286552734375,0.04327683166861534,0.06149192199073732,0.012723361038044095
1740773076709724200,1.43872412109375,0.08759878847599029,0.045902065605670214,0.013997034235671162
1740773076719792000,1.448792236328125,0.0626893881469965,0.020525486156344412,0.041519466607272626
1740773076729861400,1.458861328125,-0.01737491317093372,0.021293840180337427,0.05019311386309564
1740773076739930000,1.46893017578125,-0.06957271791994571,0.025053996431455016,0.028060703966766593
1740773076749998000,1.478998046875,-0.059573886474967,0.021855638781562447,0.020339169804006813
1740773076760067300,1.4890673828125,-0.03905307649374008,0.06698642775379121,0.01843457829169929
1740773076770135000,1.499135009765625,-0.032545009773969645,0.08356814472042023,0.0111997316673398
1740773076780204000,1.5092041015625,0.007504676541686057,0.06974580946452916,0.038502310743182895
1740773076790273300,1.519273193359375,0.02571136436164379,0.02171148107051849,0.05043554431684315
1740773076800341200,1.52934130859375,0.043482583373785015,0.01483582314737141,0.04980616037212312
1740773076810410000,1.539409912109375,0.06915303120315075,0.04766162262409925,0.015583280513808131
1740773076820478200,1.549478271484375,0.05867722989618778,0.06795834152586758,-0.017357962036132813
1740773076830547200,1.559547119140625,-0.023677812707424164,0.0725004419349134,0.025825857586786148
1740773076840616200,1.5696162109375,-0.05639876357018947,0.08480236269049346,0.03703187286444008
1740773076850684200,1.57968408203125,-0.03645779930353164,0.0823608878225088,-0.010410554051026701
1740773076860753200,1.589753173828125,-0.007218260815739631,0.06541077593490481,-0.026331103695183992
1740773076870822100,1.599822265625,-0.00018996961414813993,0.052544280099123715,-0.015039455960690975
1740773076880890000,1.60989013671875,0.047321138623356816,0.0509475854922086,0.01586633523888886
1740773076890959000,1.619958984375,0.07102116316258907,0.04890972298905253,0.022096096473932264
1740773076901027300,1.63002734375,0.04047229564189911,0.03183481567800045,0.05243022526539862
1740773076911096000,1.640095947265625,-0.011342647269368171,0.02358458146601915,0.05516717594861984
1740773076921163800,1.650163818359375,-0.019625322446227073,0.02470386781953275,0.0320296075977385
1740773076931231700,1.660231689453125,0.004326631027460098,0.03383424586690962,0.03112674047388136
1740773076941301000,1.670301025390625,0.0010135609567165373,0.023278730387240647,0.011640315041691064
1740773076951369700,1.68036962890625,-0.02984627220928669,0.06903503084667027,0.004518135011568665
1740773076961438000,1.69043798828125,-0.04128478106856346,0.0893432940557599,0.014276070372760295
1740773076971507000,1.7005068359375,-0.05356383240520954,0.05721066447496414,0.0016353461168706416
1740773076981574700,1.71057470703125,-0.03874795606732368,0.0503636481244117,0.025576339805126188
1740773076991644000,1.720643798828125,-0.025366496446728705,0.0762513189010322,0.05137910877726972
1740773077001713000,1.730712890625,-0.009245967251062392,0.06862710763290523,0.02166676514595747
1740773077011780900,1.74078076171875,-0.017931962531805037,0.022938538647443055,0.008917831275239586
1740773077021849900,1.750849853515625,-0.020610826352238654,-0.008963570113107562,0.02175568553842604
1740773077031917800,1.760917724609375,0.03412672600746155,-0.008298603398352861,0.041041254636272784
1740773077041986800,1.77098681640625,0.08436872051358223,0.0030533231560140846,0.029637232568487524
1740773077052055800,1.781055908203125,0.09066285222172736,-0.007712401008233428,-0.007403773450478911
1740773077062123800,1.791123779296875,0.044537645384669304,-0.009668795773014426,0.02315649224705994
1740773077072193000,1.801193115234375,-0.004011573728919029,0.012532441575825214,0.07197305705994367
1740773077082261800,1.81126171875,-0.023814006307721135,0.01927468237765133,0.05406659429557621
1740773077092329700,1.821329833984375,-0.0264560452491045,0.008710983591526746,0.0007254647303372621
1740773077102399000,1.83139892578125,-0.048967736786603926,-0.004160480680316686,-0.011163856636360287
1740773077112466700,1.841466796875,-0.057899231261014934,-0.009346797277033329,0.016053528374060988
1740773077122536000,1.851535888671875,-0.04665829080045223,-0.030758345552906394,0.015230375422909856
1740773077132605000,1.86160498046875,-0.017075053441524504,-0.0501314468037337,-0.011184826359152793
1740773077142673000,1.8716728515625,-0.019838672935962677,-0.0761615217257291,0.011480229109153152
1740773077152742000,1.881741943359375,-0.012641454908251762,-0.08351181142330169,0.019889307144656775
1740773077162811000,1.891810791015625,0.005759878700971603,-0.07579436891376971,0.0038503187526017424
1740773077172878800,1.90187890625,0.019390929168462752,-0.06338847632706165,0.0025100831247866153
1740773077182947800,1.91194775390625,0.02788637031316757,-0.057756534854695195,0.009593538579717278
1740773077193015800,1.922015869140625,-0.003134206372499466,-0.041683278866857285,-0.018685265117138625
1740773077203085000,1.9320849609375,-0.03290273717045784,-0.006211421860754489,-0.046618835572898386
1740773077213153800,1.94215380859375,-0.06097206283509731,0.05496361620053648,-0.02324175937771797
1740773077223221800,1.9522216796875,-0.0673731620490551,0.06255363293811679,0.005877805992215872
1740773077233291000,1.962291015625,-0.057385436519980425,0.021644407183676957,0.013581439172104
1740773077243359000,1.97235888671875,-0.046826633104681964,0.00015482523553073406,0.007282192897424101
1740773077253427700,1.982427734375,0.00488075777888298,-0.009900997093692422,0.003598316752910614
1740773077263497000,1.9924970703125,0.04795417582988739,0.009211334329098462,0.02962883006632328
1740773077273565000,2.00256494140625,0.08324059326648711,0.017794161496311425,0.0240878548130393
1740773077283634000,2.012634033203125,0.10377952342629432,0.016792510173097252,0.012287234643101691
1740773077293703000,2.022702880859375,0.07917348995804786,-0.0006759265001863241,0.018237009892985222
1740773077303771000,2.03277099609375,0.09376081823706627,-0.042362201041728255,0.04712788107357919
1740773077313839900,2.04283984375,0.09388473687767981,-0.06279365223906934,0.05184658015854656
1740773077323907800,2.052907958984375,0.05160276146531105,-0.02760477689281106,0.011364639905467629
1740773077333976800,2.062976806640625,0.0322118322968483,-0.008491934013366698,0.008350333585590123
1740773077344045800,2.0730458984375,0.00559270544052124,-0.0032714959513396023,0.00927146701849997
1740773077354113800,2.08311376953125,-0.009184592452645302,-0.03718370242528617,0.003144435505568981
1740773077364183000,2.09318310546875,-0.005581599524617195,-0.06175926769003272,0.010298910370096564
1740773077374251800,2.103251708984375,0.05307400306165218,-0.016681231818348168,-0.0629270693603903
1740773077384319700,2.11331982421875,-0.06968436160087585,0.02584543907009065,-0.05686440832056105
1740773077394389000,2.123388916015625,-0.05865443354249,-0.028538550611585375,0.040833530169725414
1740773077404457000,2.13345703125,-0.043804070413112635,-0.07119498535953461,0.016248612554743885
1740773077414525700,2.143525634765625,-0.12482406502068041,-0.07261873455233872,0.014910861144959925
1740773077424595000,2.153594970703125,-0.10326455964148044,-0.07513327465653419,0.015479308682680128
1740773077434663000,2.163662841796875,-0.017836685463786126,-0.05752915583960712,-0.013734803102910517
1740773077444732000,2.17373193359375,0.058662616848945616,-0.0588718026202172,-0.028580416991934178
1740773077454801000,2.18380078125,0.09871230316460132,-0.0873687060471624,0.0015868308000266552
1740773077464868900,2.193868896484375,0.0583756166011095,-0.06712094085365533,0.010724880697205662
1740773077474937900,2.203937744140625,0.03955693436264991,-0.008168547277897596,0.005873422078043222
1740773077485005800,2.214005859375,-0.009124386698007582,0.007690700633078813,0.016241671357303856
1740773077495074800,2.22407470703125,-0.03008943331539631,0.028177023822814225,-0.010378259216621518
1740773077505143800,2.234143798828125,-0.026074936977028847,-0.008410612405464053,-0.014383110943809152
1740773077515211800,2.244211669921875,-0.03381283775269985,-0.04501563815996051,0.0016001286730170248
1740773077525281000,2.254281005859375,0.014660393515229225,-0.05165661054439842,0.026546938402950762
1740773077535349800,2.264349853515625,0.07628478277921676,-0.0448596438806504,0.03856945769526064
1740773077545417700,2.274417724609375,0.1003378585398197,-0.04761778348237276,0.031107451251521704
1740773077555487000,2.284487060546875,0.08658405847549439,-0.02857683679535985,0.0264385095924139
1740773077565555000,2.294554931640625,0.06194120012819767,-0.04070530068017542,0.027044512661546467
1740773077575623700,2.304623779296875,0.009831658184528351,-0.04162365763410926,0.01065722228847444
1740773077585693000,2.31469287109375,-0.015262451061606406,-0.014065532894618808,-0.0048342152234166855
1740773077595761000,2.324760986328125,-0.05081950213313102,0.00571611262448132,-0.017269333904609083
1740773077605830000,2.334829833984375,-0.07762099981904029,-0.026078772901929913,-0.035178427017480134
1740773077615899000,2.34489892578125,-0.09882686945497988,-0.05332965832315385,-0.03175926622375846
1740773077625966800,2.354966796875,-0.04762450548410416,-0.06813570738676936,-0.02673654269091785
1740773077636035800,2.365035888671875,0.03372048329412937,-0.06628850861750543,-0.004567527111247182
1740773077646103800,2.375103759765625,0.09122574680149555,-0.05809595940951258,0.018806918735429643
1740773077656172800,2.3851728515625,0.08813479504883288,-0.0754256451992318,0.046252194217592475
1740773077666241800,2.39524169921875,0.043939679491519924,-0.11204637997951358,0.04610620987564325
1740773077676309800,2.405309814453125,0.001205284136533737,-0.1287063498141244,0.03019888503924012
1740773077686379000,2.41537890625,0.0004418985486030578,-0.11393054975830018,0.048218452789261936
1740773077696447700,2.42544775390625,0.020839958932995794,-0.1197223579674959,0.10523629810586571
1740773077706515700,2.435515625,0.0662006111383438,-0.13118563594184815,0.14718392699733376
1740773077716585000,2.4455849609375,0.08860884230136871,-0.14504190999995917,0.16952026196792722
1740773077726653700,2.45565380859375,0.10310381612181663,-0.16472451559137552,0.1878947806354612
1740773077736721700,2.4657216796875,0.13389409118294715,-0.1688497057626024,0.19080657642893492
1740773077746791000,2.475791015625,0.15453414362967013,-0.17022040959391743,0.20092443114370107
1740773077756859000,2.48585888671875,0.13670564147233963,-0.17246632535718381,0.19557612891830503
1740773077766928000,2.495927978515625,0.09671557638943194,-0.1592568978352472,0.2041252730116248
1740773077776996900,2.505996826171875,0.06871639335155487,-0.17659860285632312,0.22858320324607193
1740773077787064800,2.51606494140625,0.07475918064713477,-0.1828734088094905,0.2491348467569798
1740773077797133800,2.5261337890625,0.08175473862290382,-0.1859620224745944,0.2519808107726276
1740773077807201800,2.536201904296875,0.08151976082324981,-0.18703768888209013,0.25407946355231104
1740773077817270800,2.546270751953125,0.15041151074171066,-0.22149470628984272,0.2199514223705977
1740773077827339800,2.55633984375,0.12800854027569294,-0.23912096387334167,0.18890103506855666
1740773077837407700,2.56640771484375,0.08632394623458385,-0.2367400235535577,0.27189510622806845
1740773077847477000,2.57647705078125,0.14639701440334318,-0.23401293667722492,0.2691526756521314
1740773077857545700,2.586545654296875,0.16479133374989033,-0.21814155993703752,0.24762363847643135
1740773077867613700,2.59661376953125,0.1375689803034067,-0.21039719288796185,0.2650064426928758
1740773077877683000,2.606682861328125,0.09375146588683128,-0.22379238877296445,0.29952903615012766
1740773077887752000,2.616751953125,0.05511106184720993,-0.2484436130898073,0.2893951801486313
1740773077897819600,2.626819580078125,0.0002098433583974838,-0.2574391857763752,0.2712061741158366
1740773077907889000,2.636888916015625,-0.031231004565954207,-0.25314364400692285,0.270705165791139
1740773077917957400,2.646957275390625,-0.014659224471449852,-0.249625662481226,0.25994353328011927
1740773077928026000,2.657026123046875,-0.010446575212478637,-0.2503310342716053,0.22637466035112738
1740773077938095400,2.667095458984375,-0.06399754813611506,-0.2653739973636344,0.18779453513137995
1740773077948163300,2.677163330078125,-0.11718377940058708,-0.2318869209665805,0.13974318253733217
1740773077958232000,2.687232177734375,-0.177802206492424,-0.16219908876698463,0.10529628466479479
1740773077968301300,2.69730126953125,-0.18332067765295504,-0.10858491441402583,0.08325513324849307
1740773077978369300,2.707369384765625,-0.17409107701480386,-0.05395184534210711,0.06272029474191368
1740773077988438300,2.717438232421875,-0.15893851606845855,-0.03872369840890169,0.039899829516187306
1740773077998506200,2.72750634765625,-0.12455518495142459,-0.04015252563562244,0.057561742934957146
1740773078008575200,2.7375751953125,-0.08082417977452278,-0.05463255761526525,0.07149740237221121
1740773078018644200,2.747644287109375,-0.0039437691897153855,-0.0804881527531892,0.040485082058236
1740773078028712200,2.757712158203125,0.0531821396112442,-0.08552760822512209,0.02470306410193443
1740773078038781200,2.76778125,0.13431786955296993,-0.07208908465504646,0.01729563738964498
1740773078048850200,2.77785009765625,0.18126374512314794,-0.03795410227589309,-0.03352013841643929
1740773078058918100,2.787918212890625,0.22436463570296764,-0.026957491965219377,-0.09098748106621206
1740773078068987400,2.7979873046875,0.19061025013923644,-0.05651252614296973,-0.08693331030458211
1740773078079055400,2.808055419921875,0.20334464402794836,-0.025858444682136175,-0.0862351719725877
1740773078089124000,2.8181240234375,0.21770576233565805,-0.023295973782986402,-0.13197349838390945
1740773078099193300,2.828193359375,0.29932547640204427,-0.04429853939916938,-0.21432598370425401
1740773078109261300,2.83826123046875,0.4351140030294656,-0.09029036564752459,-0.32487346689552066
1740773078119330000,2.848330078125,0.5597556972205638,-0.1826843159781769,-0.4515836379237473
1740773078129399300,2.8583994140625,0.6186901167482137,-0.3064945277811959,-0.5498422790367156
1740773078139467300,2.86846728515625,0.6424474244326353,-0.40515283573623745,-0.6216081961520016
1740773078149536300,2.878536376953125,0.5989180793076754,-0.43791473966389893,-0.6444701624318957
1740773078159605200,2.888605224609375,0.5165940163642168,-0.4251864832550287,-0.6535930878251791
1740773078169673200,2.898673095703125,0.36901743678748605,-0.30492979921512303,-0.6436299122154713
1740773078179742500,2.908742431640625,0.11704641675651073,-0.12391984618995337,-0.6022802492171525
1740773078189810200,2.91881005859375,-0.21769699450731275,-0.04045143551696092,-0.5670190392870456
1740773078199879200,2.928879150390625,-0.5040232886046171,0.11392145313639193,-0.5840162051867693
1740773078209948400,2.938948486328125,-0.6943570598900318,0.1765020106140524,-0.64856532279104
1740773078220016000,2.94901611328125,-0.691449063488841,0.15127284027878193,-0.7432480051133781
1740773078230085400,2.95908544921875,-0.5080073898047208,0.05591167417299002,-0.8563266142174601
1740773078240154400,2.969154296875,-0.1701075603365898,-0.07641472930181771,-0.9068792821079492
1740773078250222000,2.97922216796875,0.1510018778502941,-0.27634196610171347,-0.8776646588657051
1740773078260291300,2.989291259765625,0.24159634101092814,-0.42655258397646245,-0.7833961103022098
1740773078270360300,2.9993603515625,0.293507145512104,-0.4999149034377187,-0.6211949391759932
1740773078280428300,3.00942822265625,0.18581892420947552,-0.5394260624298826,-0.535501984321326
1740773078290497300,3.019497314453125,-0.06993862862288952,-0.560819380929321,-0.3292196063410491
1740773078300565200,3.029565185546875,-0.2625736625880003,-0.6315371772311628,-0.1361309103243053
1740773078310634500,3.039634521484375,-0.3796282626509666,-0.685409344933182,-0.0482749322168529
1740773078320703200,3.049703125,-0.3661860127538442,-0.7388764389656484,0.009441782084107399
1740773078330771200,3.059771240234375,-0.2633919932335615,-0.7895822515912354,0.07285933837518095
1740773078340840400,3.06984033203125,-0.08437690382003783,-0.8816296900391578,0.11880970010198652
1740773078350909200,3.0799091796875,0.14445055651068686,-0.9268165931127965,0.11724961117841302
1740773078360977200,3.08997705078125,0.3343897755205631,-0.9490842467613517,0.10461904299035668
1740773078371046400,3.10004638671875,0.4177116173297167,-0.9972973657883704,0.06316752705276012
1740773078381115100,3.110115234375,0.42966216736435886,-1.050591222145781,0.040196766636148094
1740773078391183400,3.120183349609375,0.39046822109520435,-1.071374482455477,0.03393237247914076
1740773078401252400,3.13025244140625,0.35796471237540245,-1.099454037253186,0.03167341457121074
1740773078411320300,3.1403203125,0.34250118578374383,-1.0664121108077467,0.013671601673588156
1740773078421389300,3.150389404296875,0.26401275548040865,-1.000312037434429,-0.04100596412718296
1740773078431458300,3.160458251953125,0.22741057927012442,-0.9768366154313087,-0.08102057912945747
1740773078441526300,3.1705263671875,0.19325287360250948,-0.9541022210538387,-0.10143449467010796
1740773078451595300,3.18059521484375,0.18305472019314764,-0.9354642291445284,-0.1303495504438877
1740773078461664300,3.190664306640625,0.17426292645037172,-0.9089992699366062,-0.13737681873217225
1740773078471732500,3.200732421875,0.12956746015548706,-0.8504838064733892,-0.11891652147732674
1740773078481801200,3.21080126953125,0.05003974993228912,-0.8328160478357225,-0.09658610479086636
1740773078491870200,3.2208701171875,0.03866320039331913,-0.851632611182332,-0.11228446305170654
1740773078501938400,3.2309384765625,0.01903495533764362,-0.888904649478197,-0.1339173989932984
1740773078512007200,3.241007080078125,0.021481179445981977,-0.8647209330752491,-0.13782514702156184
1740773078522075100,3.2510751953125,0.06630290246903896,-0.8492830523815006,-0.1037679060537368
1740773078532144400,3.261144287109375,0.08568857094049454,-0.8736874988630413,-0.0462989559687674
1740773078542213000,3.271213134765625,0.09447744207382201,-0.910089184065163,-0.01590462142266333
1740773078552281300,3.28128125,0.09725099844038486,-0.9441535123609006,0.040158918843790886
1740773078562350300,3.291350341796875,0.0837076262563467,-0.9549019931294024,0.11225625987052917
1740773078572419000,3.301419189453125,0.062364393976330756,-0.9648727675236761,0.14940372193865478
1740773078582487300,3.3114873046875,0.03957856167256832,-0.9760231070913374,0.1737131836131215
1740773078592556300,3.321556396484375,0.00835632493495941,-0.9479098692197352,0.18723770496621728
1740773078602624300,3.331624267578125,-0.08508066817522049,-0.9335206207960843,0.2382976647917181
1740773078612693200,3.341693359375,-0.16205401774048805,-0.9320438262417912,0.26784283516258
1740773078622762200,3.35176220703125,-0.21264438729286192,-0.9584582243062555,0.22951631937772035
1740773078632830500,3.36183056640625,-0.19632453613281248,-0.9673982674133031,0.19732545680366456
1740773078642899200,3.371899169921875,-0.16482114436626433,-0.9402208490870892,0.13581862950474022
1740773078652968200,3.38196826171875,-0.15445114152133463,-0.8890897967867553,0.06249262346588075
1740773078663036400,3.392036376953125,-0.20491408530175684,-0.8518067256402224,-0.013904168320447205
1740773078673105200,3.402105224609375,-0.28821254623532294,-0.8832159363172948,-0.1304595866896212
1740773078683174400,3.41217431640625,-0.3581821545183658,-1.0452839825831353,-0.2746300110846758
1740773078693242400,3.422242431640625,-0.2887631658554077,-1.2337130892910062,-0.36305977049209176
1740773078703311000,3.43231103515625,-0.22671792083084583,-1.2720473499909042,-0.4258149904169142
1740773078713380400,3.44238037109375,-0.32259646187424657,-1.1793482427012174,-0.4103195343170315
1740773078723448300,3.4524482421875,-0.5630880565136671,-1.026237336807698,-0.3063435384705663
1740773078733517000,3.46251708984375,-0.9269412424057721,-0.8362988484501839,-0.17887473109476268
1740773078743585300,3.472585205078125,-1.408738086155057,-0.5704350582756101,-0.11338431405238807
1740773078753654300,3.482654296875,-1.8995254610896108,-0.33502610066272315,-0.14889241141565143
1740773078763723300,3.49272314453125,-2.25844820484221,-0.2488579660443589,-0.1862806965023279
1740773078773791200,3.502791259765625,-2.4393413630872964,-0.2192550193379633,-0.25458660935685035
1740773078783860200,3.512860107421875,-2.418947978878021,-0.14291616828395054,-0.35348712856993075
1740773078793929200,3.52292919921875,-2.2670395075768233,0.041296581104211506,-0.4138329492654651
1740773078803997200,3.5329970703125,-2.090259629869461,0.05436660015545785,-0.34237573277316985
1740773078814066200,3.543066162109375,-1.8601947366982696,0.13067637124545872,-0.30013262806646523
1740773078824135400,3.553135498046875,-1.628517732155323,0.2526052262812853,-0.33020050713717936
1740773078834203100,3.563203125,-1.4345377133220434,0.31993856777660545,-0.3561791441328823
1740773078844272400,3.5732724609375,-1.1602420487582683,0.39694786543808874,-0.3804608410175889
1740773078854340400,3.58334033203125,-0.7945125476002692,0.44473486800752576,-0.42366226936243473
1740773078864409000,3.5934091796875,-0.33002164343893525,0.42749910757895554,-0.44250499006360766
1740773078874478300,3.603478271484375,0.1295394031047821,0.3519781853117048,-0.41261115238554774
1740773078884546300,3.61354638671875,0.5496557434886694,0.2625041410157457,-0.3468341004215181
1740773078894615300,3.623615234375,0.9367559494554996,0.19700590599309653,-0.3125723498575389
1740773078904684300,3.633684326171875,1.2168617616027593,0.1895730891112238,-0.25684936665706337
1740773078914752300,3.643752197265625,1.3691034103810786,0.19663809559401124,-0.16513853975236414
1740773078924821000,3.653821044921875,1.3695382946670054,0.22577234707642346,-0.06849610166437924
1740773078934889700,3.6638896484375,1.2442659013569355,0.3288453662011772,0.01044686747342348
1740773078944958000,3.6739580078125,1.0151853430479765,0.5163626552937552,0.13844627459459005
1740773078955027000,3.68402685546875,0.7054302425682545,0.6988922191016376,0.24621128746047616
1740773078965095000,3.694094970703125,0.3896621654093265,0.8517992729861289,0.2928163867689669
1740773078975164000,3.704163818359375,0.17510405344963073,0.9662946900855749,0.3424734209939837
1740773078985233000,3.71423291015625,0.07157236730456353,1.055557977707684,0.35816805292777715
1740773078995301000,3.724301025390625,0.07876140202581881,1.1055593683909624,0.3447267528787255
1740773079005369900,3.734369873046875,0.20103578256368637,1.1208580598097293,0.34371626066192984
1740773079015438800,3.74443896484375,0.3759305771768093,1.0945272483754902,0.369276306919381
1740773079025507000,3.754507080078125,0.5114765272200107,1.0597609823554754,0.3851913766708225
1740773079035575800,3.764575927734375,0.5841501337647438,1.0593282169613987,0.41097704837769267
1740773079045645000,3.77464501953125,0.590408609637618,1.0434967338401824,0.4781191050846129
1740773079055713000,3.784713134765625,0.5196387908875942,1.021840124762058,0.5457892773188651
1740773079065781800,3.79478173828125,0.4027344129502773,1.0273201636083424,0.5763012468952685
1740773079075850000,3.80485009765625,0.2196913831949234,1.0100102784976364,0.6377204689759761
1740773079085919000,3.8149189453125,0.0651332741677761,1.0137404780019075,0.7002678913690149
1740773079095987700,3.82498779296875,-0.04320201286673546,0.9685584702990948,0.7247492024790495
1740773079106056000,3.835055908203125,-0.08768179058432579,0.9102044079426675,0.6793759830530732
1740773079116125000,3.845125,-0.11148001480102539,0.8207277698308229,0.608628887591511
1740773079126194000,3.85519384765625,-0.20054303061068057,0.77699639932774,0.6159810769852251
1740773079136262000,3.865261962890625,-0.194324302226305,0.6456738391332328,0.5934415475927293
1740773079146331000,3.875330810546875,-0.28475393021404743,0.5815418509624898,0.5252363916989415
1740773079156399900,3.88539990234375,-0.31935587251782416,0.5893555934533476,0.4693777994200587
1740773079166467800,3.8954677734375,-0.23780045585930346,0.48723077843151985,0.3878891643874347
1740773079176536800,3.905536865234375,-0.08106441827118396,0.34841998137347396,0.27969036321416496
1740773079186605800,3.915605712890625,0.18344810342490672,0.19397110487446187,0.18465879438892005
1740773079196673800,3.925673828125,0.4432271668583154,0.0802923379201442,0.08574424665048717
1740773079206743000,3.935742919921875,0.6415910998642445,-0.008610591956973076,-0.023842501749843356
1740773079216811000,3.94581103515625,0.8080407222151755,-0.09203063344359397,-0.11592471925020217
1740773079226879700,3.955879638671875,0.8759948990225791,-0.1707806372925639,-0.22068075955845415
1740773079236949000,3.965948974609375,0.9426748181104659,-0.2676578339844942,-0.3040348962020129
1740773079247017000,3.976016845703125,0.9793950677424669,-0.3618422113958746,-0.37633791586868465
1740773079257085700,3.986085693359375,0.9721522570073604,-0.43591815901920195,-0.4195847177252173
1740773079267155000,3.996155029296875,0.9298848946422338,-0.46254269270300863,-0.3832270908605307
1740773079277223000,4.006222900390625,0.8153747183650731,-0.45698673907630144,-0.31925920721031725
1740773079287292000,4.0162919921875,0.5584136349618435,-0.4507960677426308,-0.26654702319838103
1740773079297361000,4.02636083984375,0.3943108679980039,-0.4269959438297897,-0.1637354680214077
1740773079307428900,4.036428955078125,0.2686123582303524,-0.295098944748193,-0.13663374527990818
1740773079317497900,4.046497802734375,0.06196867265701293,-0.240481365506351,-0.07155885023586452
1740773079327565800,4.05656591796875,-0.015747604230046272,-0.25118213467560707,0.0463921141449362
1740773079337634800,4.066634765625,-0.011730185282230377,-0.25046587616503235,0.10237550184726714
1740773079347703800,4.076703857421875,0.018404256218671797,-0.2507112292282283,0.214736318070814
1740773079357771800,4.086771728515625,0.08544833244383335,-0.2840309497017413,0.29641083106435834
1740773079367841000,4.096841064453125,0.19643968694508074,-0.33644692724607883,0.35241928014270957
1740773079377910000,4.106909912109375,0.2807762587547302,-0.4004525856234133,0.3943286959156394
1740773079387977700,4.116977783203125,0.3854840029418468,-0.4450572318296879,0.4248261255100369
1740773079398047000,4.127046875,0.5447533583998679,-0.484004948252812,0.4082761188559234
1740773079408116000,4.137115966796875,0.7254962945193052,-0.516232635705918,0.3870984524011612
1740773079418183700,4.14718359375,0.8632745336592197,-0.5827588255368172,0.37238150639310474
1740773079428253000,4.1572529296875,0.9285457549929619,-0.6021717473413795,0.3324996509250253
1740773079438321000,4.16732080078125,0.9718991590291262,-0.6150739720776677,0.2892118594709784
1740773079448390000,4.177389892578125,0.9851514393121004,-0.635967122502625,0.26918321692086755
1740773079458459000,4.187458984375,0.9584124854683875,-0.6513623330984264,0.2541191379755735
1740773079468526800,4.19752685546875,0.939535935562849,-0.6769597887568175,0.1858945467289537
1740773079478596000,4.20759619140625,0.9461632447481155,-0.7221350013926625,0.10865443598628044
1740773079488664800,4.217664794921875,0.9002841216266154,-0.7628642674703151,0.07988404938019812
1740773079498732800,4.22773291015625,0.8789216001242399,-0.81606123932451,0.06543196485340595
1740773079508802000,4.237802001953125,0.7935919256240129,-0.8682461845919489,0.08156681483536958
1740773079518870800,4.247870849609375,0.6181950267076491,-0.8912656795211136,0.0779167678952217
1740773079528939000,4.25793896484375,0.3549053248047829,-0.9388012646127492,0.08601670691631734
1740773079539008000,4.268008056640625,0.0440279422968626,-0.9320309667602181,0.10178878800049423
1740773079549076000,4.278075927734375,-0.273794144782424,-0.9278924787160009,0.07971731451116502
1740773079559145000,4.28814501953125,-0.5649363147288561,-0.9141934045135974,0.06378558588586747
1740773079569214000,4.2982138671875,-0.8021043179035187,-0.8741303472597152,0.07769413812048732
1740773079579282000,4.308281982421875,-0.9996686249643564,-0.8351439793266355,0.0971324135620147
1740773079589351000,4.318350830078125,-1.1369698942422866,-0.8503414023280144,0.11259615934938191
1740773079599420000,4.328419921875,-1.1674836904495953,-0.859442919607088,0.08931370263509451
1740773079609488000,4.33848779296875,-1.171714459887147,-0.8618838099531829,0.034255101627483964
1740773079619556900,4.348556884765625,-1.0859066464811562,-0.8617878022328018,0.018335501831397413
1740773079629625900,4.3586259765625,-0.9192179546773434,-0.8425402270577848,-0.051839638961106535
1740773079639694000,4.368694091796875,-0.6908359000265598,-0.9051958590656518,-0.13620076069012282
1740773079649762800,4.3787626953125,-0.4582008641064167,-1.1002189572110772,-0.19270729548372328
1740773079659830800,4.388830810546875,-0.3609890286326408,-1.2407755750231444,-0.22557561892792583
1740773079669900000,4.398900146484375,-0.45483109541237354,-1.1909255024440586,-0.22389869869165122
1740773079679968800,4.40896875,-0.7269125910580158,-1.0095459489215164,-0.1359344379041344
1740773079690036700,4.41903662109375,-1.0972644913196563,-0.776831783350557,-0.12890519685447216
1740773079700106000,4.42910595703125,-1.5338310312449932,-0.5185933004226535,-0.15633512863703072
1740773079710174700,4.4391748046875,-1.8593050943821667,-0.22034045822080223,-0.14861688240990042
1740773079720243000,4.449242919921875,-2.0870897676616904,-0.00404006917104125,-0.15579276538863776
1740773079730312000,4.45931201171875,-2.1681728906333446,0.13862919341344385,-0.08138280003797263
1740773079740381000,4.469380859375,-2.1609312489420174,0.3185063064837828,0.004561608827114105
1740773079750449000,4.479448974609375,-2.1252187150478363,0.5227988258210942,0.0882590790156275
1740773079760518000,4.489517822265625,-2.0946464666515587,0.7507827114671468,0.1395604463815689
1740773079770585900,4.4995859375,-2.0878005462795497,1.0025662461020053,0.11866488480381666
1740773079780654800,4.50965478515625,-2.0651275267004965,1.215967150850594,0.104245204709284
1740773079790723800,4.519723876953125,-1.9004501747190952,1.329225281240046,0.05072261762991547
1740773079800792000,4.5297919921875,-1.5296651437371969,1.4070195917993784,-0.04384725196771323
1740773079810860800,4.53986083984375,-1.0404740980833769,1.3199185237124562,0.0042998891510069364
1740773079820930000,4.549929931640625,-0.3421072180300951,1.2016917380649597,0.05084828983619809
1740773079830998000,4.559998046875,0.31082536005973815,1.1553589528918267,0.06585884849596768
1740773079841066800,4.570066650390625,0.816514536049962,1.116268613127619,0.06706110042519867
1740773079851136000,4.580135986328125,1.2808873667895793,1.0747793224629014,-0.004513422303833067
1740773079861204000,4.590203857421875,1.6250181996017694,1.0183283172488211,-0.16922979112137107
1740773079871272700,4.600272705078125,1.8569459640353918,0.9627709729388355,-0.2965883065231144
1740773079881341000,4.6103408203125,1.9980635767310857,0.840233192224428,-0.5399184855893254
1740773079891410000,4.620409912109375,2.037410667735338,0.7993490278460085,-0.6592462912812829
1740773079901479000,4.63047900390625,1.8690297850608824,0.8545716603089123,-0.7216442952662706
1740773079911547000,4.640546875,1.5773089384436607,0.9340062854211777,-0.7549433382779359
1740773079921616100,4.6506162109375,1.1554431240439413,1.042851640869677,-0.7424848387211561
1740773079931684900,4.660684814453125,0.7639946597397327,1.1461332247111946,-0.699262148392573
1740773079941752800,4.6707529296875,0.4781850829929113,1.2416713548190892,-0.6614259003426879
1740773079951822000,4.680822021484375,0.2925327475219965,1.273778411567211,-0.677241382177174
1740773079961890800,4.690890869140625,0.15356617538034914,1.2443410124197603,-0.6750469408728182
1740773079971958800,4.700958740234375,0.08680617679357529,1.172043691841513,-0.5687746507827193
1740773079982028000,4.711028076171875,0.11048925019800662,1.092837614788115,-0.48664136117100715
1740773079992096000,4.721095947265625,0.14137889398038386,1.0184645839143545,-0.4370032508421689
1740773080002165000,4.7311650390625,0.18652268856465815,0.91729400087744,-0.34978739726915953
1740773080012234000,4.74123388671875,0.2714391060888767,0.7931529496848583,-0.28953444248884913
1740773080022302000,4.751302001953125,0.33645722944438455,0.6353466525167226,-0.23026830678880214
1740773080032371000,4.761370849609375,0.4069833025664091,0.4660625373922288,-0.15909304904304444
1740773080042440000,4.77143994140625,0.4676841472446918,0.30368301402442155,-0.10959493170678615
1740773080052508000,4.7815078125,0.5358551816731691,0.17426972151733933,-0.04118709284774959
1740773080062577000,4.791576904296875,0.6210854874521493,0.0766934366453439,-0.028705066284909844
1740773080072646000,4.80164599609375,0.6568482902288436,-0.01498589914254844,-0.07758139846101403
1740773080082714000,4.811714111328125,0.6848159090846777,-0.07578677012920379,-0.13440116392225027
1740773080092782800,4.821782958984375,0.6186643977850675,-0.08196889283023774,-0.155849683207646
1740773080102850800,4.831850830078125,0.4390905054450035,-0.027153599059209225,-0.14796623648144303
1740773080112920000,4.841920166015625,0.20831191104650496,0.043168256727606054,-0.1429655055847019
1740773080122989000,4.851989013671875,0.029702479824423787,0.0315502996481955,-0.11236147381067275
1740773080133056800,4.862056884765625,-0.013116671204566955,-0.015291384895145893,-0.13800328006744383
1740773080143126000,4.8721259765625,-0.01723696600496769,-0.01017075394578278,-0.15923337082918732
1740773080153195000,4.882195068359375,0.0607762480020523,-0.037537630429491396,-0.18761972655374556
1740773080163263000,4.892262939453125,0.181274851039052,-0.13659998914077878,-0.19826222619712353
1740773080173332000,4.90233203125,0.35775077736377714,-0.260106322626397,-0.20268881046772003
1740773080183401000,4.91240087890625,0.5401520020842552,-0.3769207572579384,-0.17060659589990973
1740773080193469000,4.922468994140625,0.6491191572815179,-0.4765978138014674,-0.15405735643077642
1740773080203538000,4.932537841796875,0.7161240705400705,-0.5371504821807146,-0.12866145122647285
1740773080213606000,4.94260595703125,0.7065624614685774,-0.5412867052026092,-0.09361132676377892
1740773080223675100,4.952675048828125,0.5932195754051208,-0.5133860871683806,-0.057558126205764705
1740773080233744000,4.962743896484375,0.4217787206381559,-0.48355015369001775,-0.022590419329516588
1740773080243812000,4.97281201171875,0.23281214605271816,-0.4705074610371142,-0.00740410224404186
1740773080253881000,4.982881103515625,0.08413666532337664,-0.485684096978791,0.005801087494194507
1740773080263949800,4.99294970703125,0.054204468396306035,-0.5040410069243982,0.015001462037861346
1740773080274018000,5.00301806640625,0.11585574566721915,-0.5352477538319305,0.028636640691198405
1740773080284087000,5.013087158203125,0.19548983887434004,-0.5631122411068529,0.0759204795114696
1740773080294156000,5.023156005859375,0.2527665543228388,-0.6052830112297087,0.10552841292023658
1740773080304224000,5.03322412109375,0.34345921716094013,-0.6734811528608202,0.09470131395757198
1740773080314293000,5.04329296875,0.4259434391021728,-0.7141492633357643,0.04149776623211801
1740773080324361000,5.05336083984375,0.400084775224328,-0.7249491820305586,0.10387012431919575
1740773080334430000,5.063429931640625,0.430469392094016,-0.7547397785298526,0.08851867979988455
1740773080344499000,5.0734990234375,0.37929976134896276,-0.7908001029483973,0.044599093248322605
1740773080354567200,5.083567138671875,0.2376116552889347,-0.7376240277517586,0.0017380758389830588
1740773080364636000,5.093635986328125,0.032633272579312325,-0.6591169658131897,-0.02960069995038211
1740773080374705200,5.103705078125,-0.20364976445436475,-0.6086910661075264,-0.03322977716773748
1740773080384773000,5.113773193359375,-0.4075152174860239,-0.5690224149987101,-0.07722498623877763
1740773080394841900,5.123841796875,-0.5196259314060211,-0.5368308217722922,-0.16475282837040722
1740773080404911000,5.1339111328125,-0.5665805748045444,-0.518878693235293,-0.24014767657257616
1740773080414979000,5.14397900390625,-0.5386988806664943,-0.5092850815903395,-0.28530498822554945
1740773080425047800,5.1540478515625,-0.467249262958765,-0.5279929238654673,-0.3704859749700874
1740773080435116000,5.164115966796875,-0.41743221586644647,-0.5426724970052018,-0.38678091088458894
1740773080445185000,5.17418505859375,-0.36416473605930805,-0.5052072376921772,-0.37760179832465945
1740773080455254000,5.18425390625,-0.2982709989130497,-0.4718790416512638,-0.400068481676653
1740773080465322000,5.194322021484375,-0.2832423566073179,-0.5979015226762742,-0.4188976122438907
1740773080475391000,5.204390869140625,-0.25636662464141846,-0.9300936420220881,-0.45039128633402287
1740773080485460000,5.2144599609375,-0.06650573156476021,-1.2788652133122085,-0.39227125192917883
1740773080495528000,5.22452783203125,-0.04552840998768806,-1.25985831502527,-0.280554724958539
1740773080505597000,5.234596923828125,-0.4568120400965214,-0.891129632051289,-0.19752105244100093
1740773080515666000,5.244666015625,-1.206948270353675,-0.6345569634437561,0.02112184461429715
1740773080525734000,5.25473388671875,-1.7770891679883003,-0.5675270618744194,0.1896311029087752
1740773080535803100,5.26480322265625,-2.3568512959271666,-0.48416466885916887,0.27997999381050465
1740773080545871000,5.27487109375,-2.8034458933919666,-0.26867767855152486,0.3732783821675926
1740773080555939800,5.28493994140625,-3.0416666204899547,0.059804334229975935,0.4101622248634696
1740773080566009000,5.295009033203125,-3.268376358014345,0.40938985225148494,0.3823232738886028
1740773080576077000,5.3050771484375,-3.3560435355514286,0.657254240681231,0.35757622451446947
1740773080586145800,5.315145751953125,-3.163419022980332,0.8187395916882901,0.35207134348787367
1740773080596215000,5.325215087890625,-2.6722943789154288,0.9136565211579203,0.3264734494380653
1740773080606283000,5.335282958984375,-1.9673785156100987,0.9705291858501732,0.25616540298089385
1740773080616352000,5.34535205078125,-1.250572308024764,1.003620504395291,0.09344159622006118
1740773080626420000,5.355419921875,-0.6028016427427529,0.9868730024076998,-0.04986227447353303
1740773080636489000,5.365489013671875,0.005251344656944275,0.9434929295603185,-0.1315793844997883
1740773080646558000,5.375557861328125,0.6096101537138223,0.8394755057249218,-0.19199673606157303
1740773080656626000,5.3856259765625,1.1876403432935476,0.7562533248979598,-0.22718071603700518
1740773080666695000,5.39569482421875,1.7080314138531685,0.8331419187892228,-0.20824564087726175
1740773080676764000,5.405763916015625,2.063607185265422,0.8264427864767611,-0.20149302481189368
1740773080686831900,5.415831787109375,2.2472078489035368,0.7217489977497608,-0.2541705759018659
1740773080696901000,5.425901123046875,2.261629757487774,0.5870807073239237,-0.22698592411726712
1740773080706969900,5.435969970703125,2.035609755793214,0.5409546967692673,-0.15609649757556615
1740773080717037800,5.446037841796875,1.7065817995667456,0.5483797322034836,-0.05284377450235188
1740773080727107000,5.456107177734375,1.3726526272952555,0.645281917206198,0.03371924118511378
1740773080737175000,5.466175048828125,1.0493144071429967,0.7893981271959841,0.1338916800301522
1740773080747243800,5.476243896484375,0.7522527840197086,0.985142671483755,0.26217224218025803
1740773080757313000,5.48631298828125,0.452801050889492,1.1647528041809796,0.35827385138981044
1740773080767381000,5.496381103515625,0.10742109479904174,1.2963631683409214,0.39357919272258873
1740773080777450000,5.506449951171875,-0.2565951727002859,1.3949854551345109,0.34132505467645824
1740773080787519000,5.51651904296875,-0.5991857903331518,1.4447300215125083,0.2791679467752576
1740773080797587000,5.5265869140625,-0.8907219280332327,1.4701538011044264,0.25352307177856565
1740773080807656000,5.536656005859375,-1.024132619613409,1.44435417393744,0.24647534522414205
1740773080817724000,5.546723876953125,-0.9458791671097279,1.3485866920530796,0.3095983755480498
1740773080827793000,5.55679296875,-0.7058996136456728,1.1712862976029514,0.3788119047667831
1740773080837862000,5.56686181640625,-0.42699148685038085,1.0093920735340565,0.4392008339516818
1740773080847929900,5.576929931640625,-0.18044541447758675,0.8897631660036742,0.4959229111921042
1740773080857999000,5.5869990234375,0.020931728869676588,0.7761401478245854,0.5199309057019651
1740773080868068000,5.597068115234375,0.2360176640957594,0.6394579602930694,0.45726986686661836
1740773080878135800,5.6071357421875,0.47016544266641136,0.4836003860399127,0.3061459700718522
1740773080888205000,5.617205078125,0.6765221279919147,0.330578838930279,0.18507877336665987
1740773080898274000,5.627274169921875,0.9467775772541761,0.18541282762661576,0.09080861736796796
1740773080908341800,5.637341796875,1.240475276902318,0.052436143549531695,0.019601576244458557
1740773080918411000,5.647410888671875,1.5155331580102442,-0.07480177767984568,-0.02800955830141902
1740773080928479700,5.657479736328125,1.663208521786332,-0.19792546852342782,-0.06041742462702095
1740773080938548500,5.667548583984375,1.7849807980209589,-0.3113117553371936,-0.1331537211444229
1740773080948617700,5.67761767578125,1.7300772414445875,-0.3130210434731096,-0.23035167422331868
1740773080958685700,5.687685791015625,1.5297411315828562,-0.31058504849784074,-0.2713250512551516
1740773080968754400,5.69775439453125,1.293085169583559,-0.31867950762622055,-0.32530550163723526
1740773080978823700,5.70782373046875,0.9749112003266811,-0.2651295576158911,-0.33979558008685706
1740773080988891600,5.7178916015625,0.6844125889807939,-0.20864728048071263,-0.2591498986843973
1740773080998960600,5.727960693359375,0.46201019326150417,-0.14812193849980831,-0.1719714545123279
1740773081009028600,5.738028564453125,0.30227146672606464,-0.15213117414116858,-0.11849003969356417
1740773081019097600,5.74809765625,0.24770459475815296,-0.1447607184384018,-0.04777779634967446
1740773081029166600,5.75816650390625,0.23749825804233549,-0.1176079230967909,0.03529262798167765
1740773081039234600,5.768234619140625,0.22998773628175256,-0.11993709669671952,0.08399433424323796
1740773081049303600,5.778303466796875,0.2701671864569187,-0.14435929803065956,0.10750548514686524
1740773081059372500,5.78837255859375,0.3381353917896747,-0.21322160265892742,0.09275171425975859
1740773081069440500,5.7984404296875,0.36090135034918785,-0.25472302215285597,0.07553286843337118
1740773081079509800,5.808509765625,0.3854144448369741,-0.3397994525443762,0.08782697120867669
1740773081089578800,5.818578857421875,0.3911760771036148,-0.38934491615369915,0.1470208453901112
1740773081099646500,5.828646484375,0.4563163655340671,-0.4136275628864765,0.19742460632920264
1740773081109715700,5.8387158203125,0.5338625465512276,-0.44677265744544564,0.2325492573328316
1740773081119783700,5.84878369140625,0.5923387009173632,-0.48490628100670874,0.22789858198277652
1740773081129852400,5.858852294921875,0.6035258653640747,-0.5653213685236871,0.21152203219942747
1740773081139921700,5.868921630859375,0.6495335833013057,-0.627303192923218,0.1860875850830227
1740773081149989600,5.87898974609375,0.7782365355819463,-0.7191299743577837,0.14043218771480023
1740773081160058600,5.88905859375,0.9058271427065133,-0.8413399113573133,0.0828401957720518
1740773081170127600,5.899127685546875,1.0055927543163299,-0.9672841395143419,0.029744930726662275
1740773081180195600,5.909195556640625,1.032517586120963,-1.0757528436701744,0.013466580620780587
1740773081190264600,5.9192646484375,0.9682985041886567,-1.116730239289999,0.02224573407769203
1740773081200332500,5.92933251953125,0.817474905514717,-1.0845943217735736,0.07111169099025427
1740773081210401500,5.939401611328125,0.5335743772596121,-1.058480952482298,0.11161438177041709
1740773081220470800,5.949470703125,0.14770108273923396,-1.079780857077241,0.15909597165249287
1740773081230538500,5.95953857421875,-0.2211246308684349,-1.1221679002992808,0.2194828550107777
1740773081240607700,5.969607666015625,-0.5385059884428978,-1.1193861606262623,0.23294088699892163
1740773081250676700,5.9796767578125,-0.7243623220533132,-1.090346090233326,0.17347908259630201
1740773081260744400,5.989744384765625,-0.8607026373445987,-1.1622941589824856,0.09257343508340418
1740773081270813700,5.999813720703125,-0.9677473000466823,-1.1892956362199039,0.01729724482484162
1740773081280881700,6.009881591796875,-1.0826911915659905,-1.2017619537569582,-0.0003006634470075369
1740773081290950700,6.01995068359375,-1.1812304762512444,-1.188527355261147,-0.017650953633338212
1740773081301019600,6.03001953125,-1.210502747964859,-1.1538960407324135,-0.045585693132877345
1740773081311087600,6.040087646484375,-1.1768068145900965,-1.146026987857744,-0.09167349056899547
1740773081321156900,6.050156982421875,-1.1385931115299464,-1.124489328984171,-0.17238485761880873
1740773081331225600,6.0602255859375,-1.0974971310317516,-1.1610778419952839,-0.2668964942231774
1740773081341293600,6.07029345703125,-0.9579244096904993,-1.3967816909015178,-0.3924471930179745
1740773081351362800,6.08036279296875,-0.7271879008680582,-1.6105219106070696,-0.4782529605973512
1740773081361431600,6.090431640625,-0.7668763526558876,-1.5591709319457412,-0.526050996017456
1740773081371499500,6.10049951171875,-1.080479945257306,-1.2817729174524546,-0.44828978401012715
1740773081381568800,6.11056884765625,-1.3328250592976807,-0.8800444666743278,-0.3904680018994957
1740773081391636700,6.12063671875,-1.684838754314184,-0.41977074181661006,-0.3620221710726619
1740773081401705700,6.130705810546875,-2.173765011551976,-0.014218641097098588,-0.2930770835317671
1740773081411774700,6.140774658203125,-2.68040520465672,0.36998752392865714,-0.20847930350266397
1740773081421842700,6.1508427734375,-3.142995243632793,0.8084219766177236,-0.17854630285799503
1740773081431911700,6.16091162109375,-3.585061550018191,1.097833815640211,-0.17793281060215085
1740773081441980700,6.170980712890625,-3.8064948084443806,1.3773621201604604,-0.09882540815025567
1740773081452048600,6.181048583984375,-3.8125615611374375,1.6941550103224814,-0.0666407561212778
1740773081462117600,6.19111767578125,-3.5784529455333947,1.9742706132113932,0.015963000546395777
1740773081472185600,6.201185546875,-3.042545156890154,2.164434142496437,0.21510884117763487
1740773081482254800,6.2112548828125,-2.2399141847640274,2.174348364397883,0.34504893403779713
1740773081492323600,6.221323486328125,-1.2901748350948095,2.026050046417862,0.354381008669734
1740773081502391600,6.2313916015625,-0.3667769643843174,1.8547312105953693,0.30281814082339403
1740773081512460800,6.241460693359375,0.4382061238259077,1.6794060617409645,0.2224909507855773
1740773081522529500,6.251529541015625,1.1759820542037487,1.4777666141957044,0.15298304173015057
1740773081532597500,6.261597412109375,1.7486971862405538,1.1622815186966209,0.12724756584055721
1740773081542666800,6.271666748046875,2.507393739572167,0.8965241845712065,-0.010411869225278496
1740773081552734700,6.281734619140625,3.1137510289698835,0.7671358803749084,-0.21766579565145075
1740773081562803700,6.2918037109375,3.370015946802497,0.6809231394298374,-0.39668548817485566
1740773081572872700,6.301872802734375,3.416422308668494,0.5480503541186451,-0.48876200658679003
1740773081582940700,6.311940673828125,3.186864780497551,0.5445827510733157,-0.5612301171546802
1740773081593009700,6.322009765625,2.6253742223083973,0.6725923142623156,-0.609182356755808
1740773081603078700,6.33207861328125,1.7985194940298794,0.8138240548569708,-0.5360302825117483
1740773081613146600,6.342146728515625,0.939849239295721,1.000041403799504,-0.4599999494176358
1740773081623215600,6.352215576171875,0.048073418295383454,1.2474214427784085,-0.45434996083192525
1740773081633283600,6.36228369140625,-0.6576181055575608,1.3928668555453418,-0.37331549930758773
1740773081643352800,6.372352783203125,-1.072829722765088,1.3535603888124226,-0.2706384572304785
1740773081653421600,6.382421630859375,-1.166622689706087,1.1743884283367543,-0.21668336048536002
1740773081663489500,6.392489501953125,-0.9654425302356481,0.9458240759216249,-0.26099852222576736
1740773081673558800,6.402558837890625,-0.7054992161512375,0.7728036238130181,-0.23515381380803882
1740773081683627500,6.41262744140625,-0.24506255581676958,0.6205987999137491,-0.18076704764738677
1740773081693695500,6.422695556640625,0.28632921670675276,0.43337424669004976,-0.22736958967261015
1740773081703764700,6.4327646484375,0.557978166154027,0.2944561898652464,-0.22898535430617628
1740773081713832700,6.442832763671875,0.7249293082863092,0.15525105972737072,-0.1926210785049945
1740773081723901700,6.452901611328125,0.9191624250978231,0.061297641527652734,-0.1865008420590311
1740773081733970700,6.462970703125,0.9910387437850237,-0.08002506528608501,-0.26010873377919197
1740773081744038700,6.47303857421875,0.9013543812066316,-0.14282485500499606,-0.2610278944507241
1740773081754107600,6.483107666015625,0.7745844428151846,-0.20305464810542762,-0.17963066402859984
1740773081764176600,6.4931767578125,0.6694856534838676,-0.2545740421362221,-0.1317975572951138
1740773081774244600,6.50324462890625,0.6132026252478361,-0.27028767103143037,-0.07047273549959063
1740773081784313600,6.513313720703125,0.5457125588208437,-0.2515099053252488,-0.07104271740727126
1740773081794382600,6.523382568359375,0.5178419705986976,-0.1636286466460675,-0.08230944989621639
1740773081804450800,6.533450927734375,0.42760231222510336,-0.08456775021702051,-0.019254443307220936
1740773081814519600,6.54351953125,0.295014042943716,0.0019477000016719101,0.02311491812765598
1740773081824587500,6.55358740234375,0.2006423993319273,0.05406513299085199,0.030008257837966082
1740773081834656800,6.56365673828125,0.17339198883473872,0.039669089500233526,0.0546869181510061
1740773081844725500,6.5737255859375,0.36424773816764355,-0.10477942118383943,0.03144830057844519
1740773081854793500,6.58379345703125,0.5510889911621809,-0.19567673974856734,-0.011295227931067346
1740773081864862700,6.59386279296875,0.84965926528275,-0.3188606363467872,-0.05441343497186899
1740773081874931500,6.603931396484375,1.1080343071371317,-0.4064209194432944,-0.09060184274949133
1740773081884999700,6.613999755859375,1.2864987769305705,-0.49997649743184447,-0.13577983186431228
1740773081895068700,6.624068603515625,1.3920821349084376,-0.5902113334998488,-0.1596760365627706
1740773081905136600,6.63413671875,1.4421031801402568,-0.6569034544821828,-0.16204663815163076
1740773081915205600,6.64420556640625,1.3519319108277559,-0.7047975706879049,-0.12695128630772232
1740773081925274600,6.654274658203125,1.1836767003595827,-0.7337244630299509,-0.084946374271065
1740773081935342600,6.664342529296875,0.9873983414560555,-0.74104859537296,-0.04899060620553791
1740773081945411600,6.67441162109375,0.8033610399663448,-0.6932296632952988,-0.043297947521880265
1740773081955480600,6.68448046875,0.640776860871911,-0.6540187658913433,-0.036470951046049596
1740773081965548500,6.694548583984375,0.5226105001747607,-0.6381902053795755,-0.016634031675755976
1740773081975617500,6.704617431640625,0.3963876742720604,-0.6411977896977216,0.021355580304935572
1740773081985685500,6.714685546875,0.2939139727473259,-0.6822977887839079,0.04355718297995627
1740773081995754500,6.72475439453125,0.23259938008487224,-0.7296882663164287,0.06193593943119049
1740773082005823500,6.734823486328125,0.09977321039438247,-0.713642775118351,0.08358626489900052
1740773082015891500,6.744891357421875,-0.13141981002390385,-0.7119601557936519,0.16009148549586533
1740773082025960700,6.754960693359375,-0.35724867306053637,-0.720820996184647,0.21730733760260043
1740773082036029700,6.76502978515625,-0.5416314269870519,-0.7595392877660692,0.19841829354166984
1740773082046097400,6.775097412109375,-0.6423147379636764,-0.8154879694812,0.10918934658057987
1740773082056166700,6.785166748046875,-0.6546458117485046,-0.8689706264089793,0.09011164807975292
1740773082066234600,6.795234619140625,-0.6078536654353142,-0.8843193675145506,0.13489939576797186
1740773082076303400,6.805303466796875,-0.49817806970775125,-0.9560936871320008,0.17556151489354668
1740773082086372600,6.81537255859375,-0.376098919481039,-1.042206328703463,0.1750370526280254
1740773082096440600,6.825440673828125,-0.2950713260889053,-1.0719391306009143,0.11275668367333709
1740773082106509600,6.835509521484375,-0.2571650815427303,-1.0741306492958218,0.0547854831546545
1740773082116578600,6.84557861328125,-0.33718086754381654,-1.0181925620399415,-0.06804010152518748
1740773082126646500,6.855646484375,-0.5172656320154667,-0.9897105639211833,-0.2681283010404557
1740773082136715800,6.8657158203125,-0.6239648422807454,-1.1637040988456457,-0.5075464212294668
1740773082146783500,6.875783447265625,-0.6090075116455554,-1.2999927570149301,-0.6416359619192779
1740773082156852500,6.8858525390625,-0.6403051517069339,-1.2753905229389666,-0.5898506834939122
1740773082166921700,6.895921630859375,-0.8685153569221497,-0.9765091370426118,-0.4124696980882436
1740773082176989400,6.905989501953125,-1.1669237184792756,-0.4284672584913671,-0.3886122910302132
1740773082187058700,6.91605859375,-1.90234344111979,-0.11520137341171502,0.04617452587150037
1740773082197127700,6.926127685546875,-2.911886394366622,0.17072002967912703,0.12695398972146213
1740773082207195600,6.936195556640625,-3.6382208932757374,0.40406120457462963,0.2752648018568754
1740773082217264600,6.9462646484375,-4.0736850249171255,0.6119750927468761,0.33217377997152503
1740773082227332600,6.95633251953125,-4.314872785127163,0.7988526956964284,0.40964974529668685
1740773082237401600,6.966401611328125,-4.343498575630783,1.1184390159692614,0.5275896037615835
1740773082247470600,6.976470703125,-4.058406791764497,1.363064130216837,0.6681839232355355
1740773082257538600,6.98653857421875,-3.6261131068527694,1.613954515404254,0.8213051313273608
1740773082267607800,6.99660791015625,-3.159547734504938,1.4627676363758741,0.9586068389967083
1740773082277676500,7.006676513671875,-2.5407272693753242,1.4201537986606358,0.7835247051179408
1740773082287744500,7.01674462890625,-1.577041811940074,1.949863609446585,0.17913462413996456
1740773082297813800,7.026813720703125,-0.6558417435348034,1.855996115964651,0.2280795645728707
1740773082307881500,7.036881591796875,0.10339432350099086,1.5127813750840722,0.23180282287970183
1740773082317950500,7.046950439453125,0.9666659345507621,1.215122882046178,0.14361732055693863
1740773082328019700,7.057019775390625,1.8415543336361646,1.0071195254921912,0.0696475367218256
1740773082338087700,7.067087646484375,2.5191163260698315,0.8410627749163657,0.06016958734579384
1740773082348156700,7.07715673828125,2.891702853515744,0.6682968090254813,0.11601203220747411
1740773082358225700,7.0872255859375,3.0235581323474645,0.694529055456072,0.18172208334989845
1740773082368293600,7.097293701171875,2.9041303734123707,0.7031583521135151,0.34987989785820245
1740773082378362600,7.107362548828125,2.492701781874895,0.6744494133710861,0.5843136537633836
1740773082388430600,7.1174306640625,1.9880249977976083,0.7925316759813577,0.8188436365846544
1740773082398499600,7.12749951171875,1.5069289957940577,1.035609341591224,0.9714927701853215
1740773082408568600,7.137568603515625,1.0098965889900922,1.2910621393233537,0.9725707016151398
1740773082418636500,7.147636474609375,0.45520694298744196,1.4608920517623423,0.8980173457384109
1740773082428705800,7.157705810546875,-0.10677928976416587,1.4951111322283743,0.7647180786434561
1740773082438774500,7.1677744140625,-0.45909927425086494,1.4941365881077944,0.577359158450365
1740773082448842500,7.177842529296875,-0.6079039343178272,1.5895383054196834,0.3299087576489895
1740773082458911700,7.187911865234375,-0.6545189704984427,1.6705433947190642,0.2153411520961672
1740773082468979700,7.197979736328125,-0.5827624787986279,1.661453787073493,0.2503382311973721
1740773082479048400,7.20804833984375,-0.3850076176017523,1.4896271478593348,0.36609227005578576
1740773082489117700,7.21811767578125,0.02490004797875881,1.147124939162284,0.43156215576678514
1740773082499185700,7.228185546875,0.47806934765875336,0.8327752774339169,0.39252793010398745
1740773082509254700,7.238254638671875,0.9508967030107974,0.5754723217904567,0.3377062065921724
1740773082519323600,7.24832373046875,1.431854757848382,0.3208540021210909,0.2242977079465985
1740773082529391600,7.2583916015625,1.7989935412824152,0.13705211682245136,0.07979965903237461
1740773082539460600,7.268460693359375,2.0414029522418975,0.01450469149686396,-0.08264123913384974
1740773082549528600,7.278528564453125,2.122107889550924,-0.09966280882246792,-0.2188543478488922
1740773082559597600,7.28859765625,2.046450883281231,-0.19282997201532123,-0.30368169885016977
1740773082569666600,7.29866650390625,1.859936962544918,-0.2741112479075789,-0.36336489091850815
1740773082579734500,7.308734619140625,1.6424673470526934,-0.3254794699646532,-0.3779925146752968
1740773082589803800,7.3188037109375,1.352549165943265,-0.3511834547374397,-0.3514734506599605
1740773082599872500,7.32887255859375,1.006094274097681,-0.2957368773255497,-0.3803945343157276
1740773082609940500,7.3389404296875,0.702903938961029,-0.22004078115448356,-0.40885187291726466
1740773082620009700,7.349009765625,0.49655251433253283,-0.16037337117716668,-0.44917222940046336
1740773082630077700,7.35907763671875,0.34012159717082974,-0.09959668478369713,-0.4821322131834924
1740773082640146400,7.369146484375,0.22672084344029425,-0.07638254406526684,-0.45932884522303935
1740773082650215700,7.379215576171875,0.1883773765206337,-0.09429828611463308,-0.3451918131072074
1740773082660283600,7.38928369140625,0.2238596087902784,-0.1634296169426292,-0.1807774594435468
1740773082670352600,7.3993525390625,0.3127911071747541,-0.2900161615911871,-0.02944379235561937
1740773082680421600,7.409421630859375,0.44772623184323307,-0.3997606578364968,0.09940222165752202
1740773082690489600,7.419489501953125,0.4974561851739883,-0.4343709295772016,0.20428090196475385
1740773082700558600,7.42955859375,0.4174316313445568,-0.4630792107325047,0.29418241442516446
1740773082710626600,7.43962646484375,0.3234375888735056,-0.4995332837089896,0.3638296588860452
1740773082720695600,7.449695556640625,0.22620938678681848,-0.5415229981765151,0.4293078009687364
1740773082730764500,7.4597646484375,0.1864858636856079,-0.5279693237941712,0.4868532503560185
1740773082740832500,7.46983251953125,0.22543957145810126,-0.5492565150380134,0.5231778517339378
1740773082750901800,7.47990185546875,0.32646307417452336,-0.6086909930422901,0.5118766324535012
1740773082760969700,7.4899697265625,0.4592296226322651,-0.637934988509491,0.47521907279416914
1740773082771038500,7.50003857421875,0.5831354037642479,-0.6644602996025234,0.45549635438807307
1740773082781107700,7.510107666015625,0.7061059498727321,-0.6994744029037654,0.4202475655481219
1740773082791175700,7.52017578125,0.8207289388746023,-0.7507591844610869,0.3762992643587291
1740773082801244400,7.530244384765625,0.8867834195405244,-0.8296839603550732,0.35742286058366296
1740773082811313700,7.540313720703125,0.8718670054376125,-0.8720538332466036,0.3233518833514303
1740773082821381600,7.550381591796875,0.7838841860800981,-0.9182049051772803,0.2860411204803735
1740773082831450600,7.56045068359375,0.631738983413577,-0.9750950324609875,0.22822306469678877
1740773082841518600,7.5705185546875,0.37958851516246794,-1.0201253567334263,0.14527465930990874
1740773082851587600,7.580587646484375,0.05426350510716438,-1.0542053940549492,0.07031067680567503
1740773082861656600,7.590656494140625,-0.2719616686582565,-1.0043752682853488,0.020202683942764997
1740773082871724500,7.600724609375,-0.5583703803420067,-0.9899629312470555,0.033863618091866374
1740773082881793500,7.61079345703125,-0.7860112612366675,-0.9448225707288831,0.04964833946190774
1740773082891862500,7.620862548828125,-0.9714163439482449,-0.8935017680101096,0.061550154983997345
1740773082901930500,7.630930419921875,-1.1930600302547216,-0.8237072970982641,0.0431435606777668
1740773082911999700,7.640999755859375,-1.4273147763311862,-0.7550963368825614,0.011760215094313025
1740773082922067700,7.651067626953125,-1.6156775398045777,-0.8851529687944799,-0.037132264498993754
1740773082932136700,7.66113671875,-1.6357587893247603,-1.1441283146295695,-0.04702208261154592
1740773082942205700,7.671205810546875,-1.5312667337149382,-1.1778161377631127,-0.10699505140669643
1740773082952273700,7.681273681640625,-1.6843343119233847,-1.010128351919353,0.022468656113371253
1740773082962342700,7.6913427734375,-1.6521908686876297,-0.9586672639470547,0.07398713682871312
1740773082972411600,7.70141162109375,-1.739222670930624,-0.9307182767264545,-0.03464800993520766
1740773082982480000,7.71147998046875,-1.9579870024085044,-0.64377436218746,-0.05932824115082621
1740773082992548600,7.721548583984375,-2.5159189913332463,-0.05989077040441334,0.046348311535827816
1740773083002616600,7.731616455078125,-3.279626066303253,0.5394765870407223,0.2352158096609637
1740773083012685800,7.741685791015625,-3.991787662953138,1.0296052788708359,0.27206801510956136
1740773083022754600,7.751754638671875,-4.681002099257707,1.6030936603024601,0.2105510865417309
1740773083032822500,7.761822509765625,-4.905321142253279,2.1609400167703625,0.12696856623608618
1740773083042891800,7.771891845703125,-4.484055631834268,2.5246786363720894,0.05975039381934329
1740773083052960500,7.78196044921875,-3.5040789648115633,2.589745567305386,0.06681516284011305
1740773083063028700,7.79202880859375,-2.1148247468054295,2.3258438709840177,0.19765096243098376
1740773083073097700,7.80209765625,-0.7181880173325538,2.008863203164935,0.2139011824209243
1740773083083165700,7.812165771484375,0.6174298875540495,1.7989653381012378,0.14982154549192636
1740773083093234700,7.822234619140625,1.8131863172858953,1.5281876185305416,0.2262107384936884
1740773083103303700,7.8323037109375,2.786071564742923,1.166602231439948,0.3239562789853662
1740773083113371600,7.84237158203125,3.4126650019615887,1.0105098985828458,0.24235932474005967
1740773083123440600,7.852440673828125,3.512453409925103,0.9001238164983689,0.27767368962951
1740773083133509600,7.862509521484375,3.4255379275381563,0.8901185553126036,0.40533926168642936
1740773083143577900,7.872577880859375,3.089706721037626,0.900089183576405,0.39768377849720415
1740773083153646600,7.882646484375,2.453122051158547,1.1317150424540041,0.297120148377493
1740773083163714600,7.892714599609375,1.666366109034419,1.3785172815449536,0.21286256008818744
1740773083173783800,7.90278369140625,0.8089496537536383,1.634361635877937,0.2079537452585995
1740773083183852800,7.912852783203125,0.03728139064610004,1.8376918129891155,0.23105814199224112
1740773083193920500,7.92292041015625,-0.6858294700413942,1.951170162000507,0.2510823275629431
1740773083203989800,7.93298974609375,-1.098714105606079,2.0026962049677968,0.33049481390863655
1740773083214057700,7.9430576171875,-1.0320201579928399,1.8941218484804032,0.4365176592823118
1740773083224126700,7.953126708984375,-0.576283053651452,1.6387030260831117,0.4833029374632984
1740773083234195700,7.96319580078125,0.07311784318089484,1.3293836866721511,0.5415085312597453
1740773083244263700,7.973263671875,0.7286234866291285,1.0719792434155941,0.5713258696354925
1740773083254332700,7.983332763671875,1.2224398539960384,0.8870736346587538,0.5433057899400592
1740773083264401700,7.993401611328125,1.591193086889386,0.6973511271394789,0.5450177084244787
1740773083274469600,8.0034697265625,1.849287558236718,0.5065954771801829,0.569498581143096
1740773083284538600,8.01353857421875,1.9841104547023771,0.36356253238245845,0.5566204679347574
1740773083294606600,8.023606689453125,1.9196330140948294,0.2299690315812826,0.5508373544886708
1740773083304675800,8.03367578125,1.7437591453164816,0.14850100094527005,0.548730956793949
1740773083314744800,8.043744873046874,1.480557121697068,0.177708975251019,0.48986171145699914
1740773083324812500,8.0538125,1.3065695050567387,0.1640289710752666,0.45379101177491243
1740773083334881800,8.0638818359375,1.1268752012073993,0.15029752897322177,0.33763599090017377
1740773083344950800,8.07395068359375,0.9526882626026868,0.16715923192501067,0.27992190694771707
1740773083355018500,8.0840185546875,0.8944844954371451,0.10267755353376269,0.22078020134493706
1740773083365087700,8.094087646484375,0.7484972308784723,0.05225574548132717,0.1950068045977503
1740773083375155700,8.10415576171875,0.631532062664628,0.020521467568352818,0.23499906163774428
1740773083385224700,8.114224609375,0.5521370389103889,0.0014235299970954656,0.22003464367464184
1740773083395293700,8.124293701171876,0.4425841927796602,-0.05208608800284564,0.20676080914698539
1740773083405361700,8.134361572265625,0.3914677535265684,-0.13541983944550157,0.1891835783369839
1740773083415431000,8.144430908203125,0.3375432711154222,-0.2479918142016977,0.13042962994277477
1740773083425498600,8.15449853515625,0.25246260294020173,-0.2891121254235506,0.07729337529987096
1740773083435567600,8.164567626953126,0.2661462603777647,-0.3793318369876593,0.047917350950837136
1740773083445636900,8.174636962890625,0.37665304623246193,-0.45865277259238063,0.011741072002425789
1740773083455704600,8.18470458984375,0.4704787463992834,-0.5305271185182034,-0.0032440599551424383
1740773083465773800,8.19477392578125,0.5345359157681465,-0.5789094566322863,0.007445932091772556
1740773083475842800,8.2048427734375,0.5379138677686452,-0.5985976882468909,0.028946473825350403
1740773083485910500,8.21491064453125,0.47623687153458594,-0.6174762839790433,0.03426989733781665
1740773083495979800,8.224979736328125,0.36775370046198363,-0.6794582545090466,0.03372669383920729
1740773083506047700,8.2350478515625,0.25073709432184693,-0.7578083723202347,-0.014691884632036089
1740773083516116700,8.24511669921875,0.14678747502565384,-0.7926702807344496,-0.03256999808475375
1740773083526185700,8.255185791015625,0.05834872859418392,-0.8115045258682221,-0.012500877393782138
1740773083536253700,8.265253662109375,-0.024590835899114608,-0.8476707218140364,-0.04721731292270124
1740773083546323000,8.275322998046875,-0.06016133097410201,-0.9097396399751305,-0.10970584473535418
1740773083556391700,8.2853916015625,-0.08087035700380801,-0.9675491471260785,-0.17594130799137056
1740773083566459600,8.295459716796875,-0.12230828280746936,-0.9797053758006542,-0.2264924415118992
1740773083576529000,8.30552880859375,-0.1556599327892065,-1.01889698398225,-0.2469718965694308
1740773083586596600,8.3155966796875,-0.17069851196706293,-1.0777267010264098,-0.269254090199992
1740773083596665600,8.32566552734375,-0.15869126330912112,-1.0967058345235883,-0.2926571045540273
1740773083606734800,8.33573486328125,-0.15206395412385462,-1.0858173607625066,-0.3215508252788335
1740773083616802800,8.345802734375,-0.2040700356930494,-1.0897224053770302,-0.35856092470288276
1740773083626871800,8.355871826171875,-0.2952712325751781,-1.1163527112144975,-0.3414350178569555
1740773083636939800,8.365939697265626,-0.40024902587532996,-1.1134327321145683,-0.3002653876006603
1740773083647008800,8.3760087890625,-0.4173702565461397,-1.0763600157830864,-0.29431795043833553
1740773083657077800,8.386077880859375,-0.4014233303517103,-0.9752690007884055,-0.31787206370085475
1740773083667145700,8.396145751953124,-0.37696167379021644,-0.8202833870641887,-0.31298765266016126
1740773083677214700,8.406214599609376,-0.4994102418512106,-0.6861519799940288,-0.25834815384745596
1740773083687283700,8.41628369140625,-0.7094067449837923,-0.5987015139475464,-0.1786196603551507
1740773083697351700,8.4263515625,-0.853825737312436,-0.5960819060336798,-0.1422816880390048
1740773083707421000,8.4364208984375,-0.8715566243141889,-0.8430517567764967,-0.23170352722369134
1740773083717488600,8.446488525390626,-0.6277320858597755,-1.1847949637997894,-0.2399780190940946
1740773083727557600,8.4565576171875,-0.36541853551268577,-1.2798369809538126,-0.07366941264905034
1740773083737627000,8.466626953125,-0.275586288896203,-1.0986733352042735,0.21244265417568384
1740773083747694800,8.47669482421875,-0.5030079740822315,-0.798800234856829,0.5730991629183292
1740773083757763600,8.486763671875,-1.0810796647161245,-0.5814234852798282,0.8495126964189111
1740773083767832800,8.496832763671875,-1.8664876993626356,-0.29112010424509643,1.0221348699249326
1740773083777900800,8.50690087890625,-2.8173481620162724,0.10065993010103702,1.1553830644197762
1740773083787969800,8.5169697265625,-3.697868429508805,0.6542307281415909,1.2631092796452343
1740773083798037800,8.527037841796876,-4.457674405387044,1.2816498755946755,1.392057000467181
1740773083808106800,8.537106689453125,-4.980154557180405,1.602973394923657,1.4447919808328151
1740773083818175700,8.54717578125,-5.035359142529964,1.7071897023320197,1.3201453182056546
1740773083828243700,8.55724365234375,-4.5093402952164405,1.7251023756414652,1.010978539007902
1740773083838312700,8.567312744140626,-3.578383971950412,1.6697709490418433,0.6221241828501224
1740773083848381000,8.577380859375,-2.480845339864492,1.630649191226065,0.27692849728539587
1740773083858449700,8.58744970703125,-1.2201806768923997,1.6688152557522058,-0.06217588566690683
1740773083868519000,8.597518798828125,0.05207505515217781,1.6233882603123784,-0.3692790103331208
1740773083878587000,8.6075869140625,1.2149790165960788,1.47782126699239,-0.560552838947624
1740773083888655600,8.617655517578125,2.1295622972100974,1.2857523424774409,-0.7074927280560136
1740773083898724900,8.627724853515625,2.740799175342917,1.1574644007384776,-0.8358460631813853
1740773083908792800,8.637792724609374,3.0944039389431475,1.063124394373968,-0.892423690449819
1740773083918861600,8.647861572265626,3.1320699449926614,0.9439088168848305,-0.8218455218143761
1740773083928929000,8.657928955078125,2.8249013538748025,0.8521461867276579,-0.6482393787723034
1740773083938998000,8.667998046875,2.2484037806898356,0.883781607376039,-0.4178152968998998
1740773083949066800,8.678066650390624,1.6021774222403764,1.0149923046939073,-0.15325776701830326
1740773083959135000,8.688135009765626,1.0311650024682282,1.1849318149872123,0.09688384562842547
1740773083969204000,8.698203857421875,0.545898436781764,1.398976278336346,0.21053967009857297
1740773083979273000,8.70827294921875,0.06307575711607932,1.6286235306173562,0.20745807069614527
1740773083989341000,8.7183408203125,-0.44539457402527327,1.8188754688382147,0.13137962414398788
1740773083999410000,8.728409912109376,-0.8467290570497512,1.9398910814866424,-0.026569588626176116
1740773084009478100,8.73847802734375,-1.0596446624994278,1.9676202154114841,-0.18018822484612465
1740773084019547000,8.748546875,-1.0299538731127977,1.916910603393614,-0.2093241568289697
1740773084029615900,8.758615966796874,-0.7944003193974495,1.7440867698356508,-0.10049874818995594
1740773084039684000,8.76868408203125,-0.3542272794127464,1.4895564207106828,0.02579933490604162
1740773084049752800,8.7787529296875,0.2089817731320858,1.2591095424845813,0.10886150286570191
1740773084059820800,8.78882080078125,0.6469838988184928,1.0681708641085772,0.12022548518404363
1740773084069890000,8.79889013671875,0.9579273322999476,0.8901851177427917,0.13327223295755683
1740773084079959000,8.808958984375,1.239740532886982,0.6567004792559892,0.19621033516861497
1740773084090026800,8.81902685546875,1.4808563969045876,0.45040253838039934,0.23482129391804335
1740773084100096000,8.829095947265625,1.69486155115664,0.2463615095861256,0.23689546984359622
1740773084110165000,8.8391650390625,1.8715759624123571,0.07837371788248419,0.2380991465449333
1740773084120233000,8.84923291015625,1.9564555550575256,-0.10197999972365795,0.2065676977276802
1740773084130302000,8.859302001953125,1.9297937581032514,-0.22641280040442943,0.13769604074917732
1740773084140370000,8.869369873046875,1.86927703782022,-0.2531825877778232,0.09837671453468501
1740773084150439000,8.87943896484375,1.7178116341114043,-0.2634478150740266,0.12306750367693603
1740773084160508000,8.8895078125,1.5056979926943779,-0.27426600007787344,0.1612475967284292
1740773084170576000,8.899575927734375,1.2780319773584603,-0.2900288749422878,0.13078838025256992
1740773084180644900,8.909644775390625,1.0542688146799801,-0.2837748560488224,0.08250285357646643
1740773084190713900,8.9197138671875,0.8583645497858524,-0.2610785286594182,0.0798420368693769
1740773084200782000,8.929781982421876,0.7041939787715673,-0.24827633023150264,0.11426606532298028
1740773084210851000,8.93985107421875,0.6298650062352419,-0.23592085265778004,0.17531375067755578
1740773084220918800,8.949918701171875,0.574638209053874,-0.29584252965711055,0.25669702563956376
1740773084230988000,8.959988037109374,0.5376315436959266,-0.37524515219591553,0.3240382581803947
1740773084241057000,8.97005712890625,0.5260621019333601,-0.4053910649389028,0.35865722468420863
1740773084251124700,8.980124755859375,0.497467875611782,-0.47945853699482976,0.43462052042409777
1740773084261194000,8.990194091796875,0.5050070389449596,-0.5968976063307374,0.5208497010473162
1740773084271262000,9.000261962890624,0.525325604352355,-0.6771241124730557,0.5399518033370375
1740773084281331000,9.0103310546875,0.4811784195899963,-0.7295951812054962,0.6117957541245966
1740773084291400000,9.02039990234375,0.4140642007380724,-0.7885484515640884,0.6272969093129038
1740773084301468000,9.030468017578125,0.32758652524650095,-0.8707029300943017,0.5807307537753135
1740773084311537200,9.040537109375,0.26689678648412224,-0.9296258053146302,0.5494828711397945
1740773084321606000,9.05060595703125,0.22007190694510936,-0.9357606548078358,0.5113425255768
1740773084331673900,9.060673828125,0.22524375662505625,-0.9112436878625303,0.43111930737011134
1740773084341743000,9.0707431640625,0.26253683770895003,-0.9205144242286681,0.2874675000216812
1740773084351810800,9.080810791015624,0.30446283929049966,-0.9946469243448227,0.15860716522224247
1740773084361880000,9.090880126953126,0.33214813407361504,-1.0834033584233373,0.044888650779426095
1740773084371949000,9.100948974609375,0.35198271535634995,-1.1866164801385253,-0.015421952472254632
1740773084382017000,9.11101708984375,0.34699557459354397,-1.2927750807210803,-0.026766280242055653
1740773084392086000,9.1210859375,0.2638900058835745,-1.3764661942340433,-0.025743732261285183
1740773084402154000,9.131154052734376,0.17794249174594878,-1.3854969112992286,-0.039305370754376054
1740773084412223000,9.141222900390625,-0.08869768962860107,-1.320682639952749,-0.0671538202099502
1740773084422292000,9.1512919921875,-0.41650107249617574,-1.2609887803599238,-0.06559606937393546
1740773084432360000,9.16135986328125,-0.6968880396723747,-1.1981165099266915,-0.08546616036146878
1740773084442429200,9.17142919921875,-0.9585954408198595,-1.1117383492868393,-0.08673530351445079
1740773084452498000,9.181497802734375,-1.2365870372921228,-1.0475233590077608,-0.07915536977946758
1740773084462566000,9.19156591796875,-1.5421429325163363,-0.9534434648841619,-0.1162698794260621
1740773084472635100,9.20163525390625,-1.8290993412107228,-0.860078587162122,-0.18423618506267667
1740773084482702800,9.211702880859375,-2.009199303251505,-0.932502602859959,-0.28624899107739327
1740773084492771800,9.221771728515625,-2.01709794754684,-1.1873881220981477,-0.3744946991547942
1740773084502841000,9.231841064453125,-1.9452742358297108,-1.3436851837471127,-0.41681978305652734
1740773084512909000,9.241908935546874,-1.964291655510664,-1.2736666217558086,-0.44955476244464515
1740773084522978000,9.25197802734375,-2.2158868279665707,-1.0354545163556932,-0.46520416699722406
1740773084533047000,9.262047119140625,-2.508572720223665,-0.7585279918316751,-0.542672898864001
1740773084543115000,9.272114990234375,-2.9305186141222714,-0.5190222664244473,-0.583179096775502
1740773084553184000,9.28218408203125,-3.4009739796459675,-0.09756086810715496,-0.44494536895304915
1740773084563252000,9.292251953125,-3.871015503671765,0.5252290851753205,-0.17198986695185303
1740773084573321000,9.302321044921875,-4.285237525320053,1.1457104692544788,0.09639043608829378
1740773084583390000,9.312389892578125,-4.615495900124311,1.6983229436568914,0.15945442970134316
1740773084593458000,9.3224580078125,-4.745301845210791,2.1950151587210596,0.03889540171399712
1740773084603527200,9.332527099609376,-4.54582030635178,2.5142992811769247,-0.06194806826040149
1740773084613595100,9.34259521484375,-3.8914989042520522,2.669908945083618,-0.12318966875188052
1740773084623663900,9.352663818359375,-2.7982787198871373,2.6497154673606156,-0.14127097662650048
1740773084633733000,9.362733154296874,-1.4818267032414674,2.4232570742487907,-0.13363354055061935
1740773084643801000,9.372801025390626,-0.09270634074807166,2.1771556769035754,-0.2853767382875085
1740773084653869800,9.382869873046875,1.1977373744159936,2.0294909806519748,-0.3911828721705824
1740773084663939000,9.39293896484375,2.387228314012289,1.779699496617168,-0.49642939940951764
1740773084674007000,9.403007080078124,3.3980683213323353,1.4863016566984355,-0.6894551131926476
1740773084684076000,9.413075927734376,4.089085423144698,1.0152965483374894,-0.8248993564270436
1740773084694144000,9.42314404296875,4.475112446922064,1.024772378821671,-0.9936617857649922
1740773084704213000,9.433212890625,4.717899459022283,1.0369143597751855,-0.9459387152772396
1740773084714282000,9.443281982421874,4.446225959655642,1.1086167832002043,-0.9417178827118128
1740773084724350000,9.453349853515626,3.870450855526328,1.2300764863543212,-0.9503095507726073
1740773084734419000,9.4634189453125,2.9690479590028525,1.466198633737862,-0.9454909715097397
1740773084744487200,9.473487060546875,1.9688433274656534,1.6841138010405003,-0.8123012292038649
1740773084754556000,9.483555908203124,1.0397253255426884,1.81824097032696,-0.539577636262402
1740773084764625200,9.493625244140626,0.25688743364512917,1.8384902698904275,-0.38363852120563385
1740773084774693000,9.503693115234375,-0.277591198977828,1.6703434882327912,-0.2901047897227108
1740773084784761900,9.513761962890625,-0.4736626371324062,1.4319335221730172,-0.1298641780797392
1740773084794830000,9.523830078125,-0.37577217174470423,1.2795350753977894,0.057854953727871174
1740773084804899000,9.533899169921876,-0.14608897136747837,1.1881754730835556,0.17450747579596937
1740773084814967800,9.5439677734375,0.11932955925762653,1.0695433945707977,0.19088840949349103
1740773084825036000,9.5540361328125,0.2630781049787998,0.9689574064888059,0.14918883707895875
1740773084835105000,9.56410498046875,0.29859423951804637,0.849479378671199,0.14391308863312005
1740773084845174000,9.574174072265626,0.21178104846179485,0.8213806807816028,0.21132658269256352
1740773084855242000,9.584241943359375,0.44277007074058056,0.8093392375931143,0.251462485986948
1740773084865311000,9.59431103515625,0.6423351962298155,0.5924594046875834,0.15718319683372972
1740773084875379200,9.604379150390624,0.651517450594902,0.38351621000021696,0.17572481569647788
1740773084885448000,9.614447998046876,0.6895347543001175,0.2312159629024565,0.2428692835561931
1740773084895517000,9.624516845703125,0.7596107455670833,0.02046308844462037,0.18939327556490898
1740773084905585200,9.634585205078125,0.8343827856957912,-0.1401619194060564,0.08129837315753102
1740773084915654000,9.64465380859375,0.876556624558568,-0.2092025762759149,-0.06279752469658852
1740773084925723600,9.6547236328125,0.9130255297780037,-0.21908348042964934,-0.15937471552863716
1740773084935791600,9.66479150390625,0.9454027817696332,-0.21377163775712252,-0.18333879783153534
1740773084945860600,9.674860595703125,0.8839005575805902,-0.24227672449052332,-0.132221481795609
1740773084955928600,9.684928466796874,0.7309165660023689,-0.3183941878788173,-0.048610301651060575
1740773084965997600,9.69499755859375,0.6199813256025314,-0.40522184585183857,0.014893033227324486
1740773084976066600,9.705066650390625,0.5962053132176399,-0.44743981611728667,-0.02072247003316879
1740773084986134500,9.715134521484375,0.6067156013160944,-0.4569648925706744,-0.1399890470571816
1740773084996203800,9.725203857421874,0.612770079049468,-0.5248465886637568,-0.17333967412561177
1740773085006271500,9.735271484375,0.7904653180360793,-0.6690944622091949,-0.2056657804518938
1740773085016340500,9.745340576171875,1.0086468811899423,-0.8372013502478599,-0.22362053933739662
1740773085026409700,9.75540966796875,1.132099657857418,-0.9205613321103155,-0.23737550844550132
1740773085036477400,9.7654775390625,1.080556517624855,-0.9321585386626422,-0.17468904290795326
1740773085046546700,9.775546630859376,0.8660539352446794,-0.8962545007843523,-0.026167875957489012
1740773085056615700,9.78561572265625,0.5491606534481048,-0.8752871891446411,0.07395254043936729
1740773085066683600,9.79568359375,0.22242519207298755,-0.8263224480327218,0.14956702274158595
1740773085076752600,9.805752685546874,0.05117079978883266,-0.7172224602360278,0.20057532544508574
1740773085086820600,9.815820556640626,-0.022133505874872207,-0.6844339240297674,0.23761793889924882
1740773085096889600,9.8258896484375,-0.07403145089447498,-0.7388423175003379,0.27692513628453014
1740773085106958600,9.83595849609375,-0.07015548624396324,-0.7915745944522321,0.2754205769404769
1740773085117026600,9.846026611328124,-0.016034604477882384,-0.84911858253479,0.2585501061603427
1740773085127095800,9.856095703125,-0.026478257080912587,-0.885080561145395,0.23109759721979498
1740773085137163500,9.86616357421875,-0.05419686961174011,-0.8774368414591998,0.19335311910659073
1740773085147232500,9.876232421875,-0.08319733864665031,-0.8618484463788568,0.17361060002148151
1740773085157301800,9.8863017578125,-0.10608955393433571,-0.8520653765764087,0.1667065197214484
1740773085167369700,9.89636962890625,-0.1689145511597395,-0.8352189442589879,0.13036270218640564
1740773085177438500,9.9064384765625,-0.25632687715291974,-0.8352902559295297,0.09205182236209511
1740773085187506700,9.916506591796875,-0.3075000150293112,-0.871367093091458,0.06445712847188115
1740773085197575700,9.92657568359375,-0.3110708592534065,-0.9125649995941668,0.03339008229598403
1740773085207644700,9.936644775390626,-0.2640864052385092,-0.9211850169666111,-0.011691899098455905
1740773085217712600,9.946712646484375,-0.2401297755897045,-0.9027269116688519,-0.040538931137323375
1740773085227781600,9.95678173828125,-0.284819981187582,-0.867563828350976,-0.038988340694457294
1740773085237850600,9.9668505859375,-0.33210371040999886,-0.8448223466455936,-0.029934973406046627
1740773085247918600,9.976918701171876,-0.416312271925807,-0.8369994710002094,-0.06606310236379503
1740773085257987600,9.986987548828125,-0.5552537096261978,-0.8661565919015556,-0.09646028645411134
1740773085268055600,9.9970556640625,-0.6124415777474641,-1.105874937146157,-0.19221476272642612
1740773085278124500,10.00712451171875,-0.5032897136330604,-1.506510039729625,-0.3077190646074712
1740773085288193800,10.01719384765625,-0.424490317684412,-1.6421528742760418,-0.2654793209016323
1740773085298261800,10.02726171875,-0.4081564379990101,-1.4452404552526772,-0.08254340478256345
1740773085308330500,10.03733056640625,-0.8436001113742589,-1.0241785045817493,0.060592561998218296
1740773085318399700,10.047399658203124,-1.6820429861158133,-0.641157019295916,0.2708583835914731
1740773085328467700,10.0574677734375,-2.5562077471017837,-0.4013942503876984,0.4576217490442097
1740773085338536400,10.067536376953125,-3.263271728351712,-0.235627641864866,0.563107784127444
1740773085348604700,10.077604736328125,-3.7837294344067574,-0.04117372190952301,0.6834368758164345
1740773085358673700,10.087673583984374,-4.168022181737423,0.3039543783117086,0.784345081590116
1740773085368742700,10.09774267578125,-4.458850463429093,0.7048366605892777,0.9196353033065795
1740773085378810600,10.107810546875,-4.455810365080834,1.1752255367480218,0.9859352831661701
1740773085388879600,10.117879638671875,-4.251196724030375,1.6411245541416108,0.9113801006585359
1740773085398947800,10.12794775390625,-3.8523324305117126,1.9058331829316912,0.7834092620447277
1740773085409016600,10.1380166015625,-3.2330063539475202,1.9971115367032586,0.5863188561059535
1740773085419085600,10.14808544921875,-2.378202711513638,2.0030909033738076,0.3741742350287735
1740773085429153800,10.15815380859375,-1.3324135558873413,1.88281690287292,0.1812194675900042
1740773085439222500,10.168222412109374,-0.27465046935081483,1.6678284366719425,-0.03938552331849932
1740773085449290500,10.17829052734375,0.7642302220612764,1.4703507849812507,-0.1353505736015737
1740773085459359700,10.18835986328125,1.7779758876949547,1.373389563267678,-0.15410817330256105
1740773085469428500,10.198428466796875,2.6393267598152157,1.3679576013468204,-0.1505650938682258
1740773085479496700,10.20849658203125,3.216896346145868,1.350321114630252,-0.09749445180743932
1740773085489565700,10.218565673828126,3.4035376926541328,1.3129095217332243,0.040921500714123246
1740773085499634400,10.228634521484375,3.1742765170812604,1.2809125012308358,0.22305092275589702
1740773085509702700,10.23870263671875,2.5045418572723865,1.3858800653979182,0.4202550182022154
1740773085519771600,10.248771728515624,1.5954180111080407,1.5968839920073747,0.7001863505654037
1740773085529839600,10.258839599609376,0.821775817579031,1.7453262485027312,0.8940966651633381
1740773085539908600,10.26890869140625,0.2238087553858757,1.7864596384018658,0.7984564629204571
1740773085549977600,10.2789775390625,-0.27043957365751264,1.6795495618648826,0.6494450282350183
1740773085560045600,10.289045654296874,-0.5770294881045818,1.5726659349434078,0.5024459562852979
1740773085570114600,10.299114501953126,-0.6224117676198482,1.5930720325037837,0.3118957657702267
1740773085580182500,10.3091826171875,-0.5035919114500284,1.657746895379573,0.13647241723835468
1740773085590251800,10.319251708984375,-0.34904958451390267,1.615037196074426,0.0539652528129518
1740773085600320500,10.329320556640624,-0.2184539503544569,1.4439333181768654,0.04533201063275337
1740773085610388500,10.339388427734375,-0.015418518406152725,1.1957254500716923,0.11040478678494692
1740773085620457700,10.349457763671875,0.3082213150411844,0.9070004242695867,0.18442630080729722
1740773085630526500,10.3595263671875,0.6557160713285207,0.645890550623834,0.21094342859387397
1740773085640594400,10.369594482421874,1.0035422515273094,0.4553602338530123,0.17474486474841833
1740773085650663700,10.37966357421875,1.3482143516093492,0.3222670837894082,0.12202522808238864
1740773085660731600,10.389731689453125,1.623054790574312,0.2014255125336349,0.061127984049171205
1740773085670800600,10.399800537109375,1.799717763903737,0.04577902374789118,-0.033990970798581835
1740773085680869600,10.40986962890625,1.8653163174957035,-0.11278291409313677,-0.15574804946407675
1740773085690937600,10.4199375,1.7823598018676041,-0.20725100381672382,-0.2503912034936249
1740773085701006600,10.430006591796875,1.6106483134657144,-0.23653204335868358,-0.26286110122725365
1740773085711074600,10.440074462890625,1.4350152677059174,-0.2571263569675386,-0.21119769561588764
1740773085721143600,10.4501435546875,1.2297557299673556,-0.2907633997619152,-0.22881387019678948
1740773085731212500,10.460212646484376,1.004359997650981,-0.2860395861104131,-0.2799557361520827
1740773085741280500,10.470280517578125,0.7545511240899563,-0.21921572850719093,-0.2712209332935512
1740773085751349800,10.480349853515625,0.5194616807550192,-0.13724471678510308,-0.2817037488631904
1740773085761417700,10.490417724609374,0.3735392981261015,-0.11890841123610735,-0.2913267327331006
1740773085771486500,10.500486572265626,0.2991659019261598,-0.12500833554640411,-0.2630573544517159
1740773085781555700,10.5105556640625,0.32520167593657967,-0.11391279490590095,-0.18782631850913165
1740773085791623700,10.520623779296875,0.4113894285708666,-0.13361658941581844,-0.07579334600046277
1740773085801692400,10.5306923828125,0.529814732465148,-0.17851809967681764,0.016558043830096722
1740773085811761700,10.54076171875,0.5584346777498722,-0.20642434373423457,0.06062821783348918
1740773085821829600,10.55082958984375,0.5116021994262934,-0.22944354640245437,0.12988792428150772
1740773085831898600,10.560898681640625,0.5047586171418428,-0.2667730139739811,0.20488398242443798
1740773085841966600,10.570966552734374,0.5248866284132003,-0.3001620733566582,0.26282383795678615
1740773085852035600,10.58103564453125,0.5399094255000353,-0.31556466354131696,0.30262787894830107
1740773085862104600,10.5911044921875,0.5903717847585678,-0.325237477902323,0.3256966198466718
1740773085872172500,10.601172607421875,0.6635539253473282,-0.3764828042320907,0.32209801083281636
1740773085882241500,10.611241455078124,0.6940566156387329,-0.4317252373740077,0.3356827379405498
1740773085892309800,10.621309814453125,0.6667138506829738,-0.46417307038381694,0.36940555932223795
1740773085902378500,10.63137841796875,0.6701905868828296,-0.5210512880340218,0.3562378885827958
1740773085912447700,10.64144775390625,0.7018915470480919,-0.5986015607044101,0.3096666915439069
1740773085922515700,10.651515625,0.717861269596219,-0.6557704318642615,0.2756901876620948
1740773085932584200,10.661584228515625,0.6933703869402408,-0.6943078139208256,0.2515538175322115
1740773085942653200,10.671653076171875,0.6292869140863419,-0.6955817793793976,0.21936843485087154
1740773085952721400,10.681721435546875,0.4938111066699028,-0.6868138049036264,0.1678919301137328
1740773085962790100,10.6917900390625,0.30171500188708306,-0.6946135188691318,0.060881023550778623
1740773085972858000,10.701858154296875,0.08139233505129814,-0.7368684601441026,-0.046099780134856695
1740773085982927400,10.71192724609375,-0.10781564707458019,-0.7616573028333484,-0.12069456400051712
1740773085992996000,10.72199609375,-0.21965981901288031,-0.7438648949027061,-0.2508453770019114
1740773086003064000,10.73206396484375,-0.3200952927082777,-0.7306352648429573,-0.38031639104560017
1740773086013133300,10.74213330078125,-0.4327507810294628,-0.7044459077060222,-0.45282165528610346
1740773086023201300,10.752201171875,-0.5800865375876426,-0.7140319205664097,-0.5088390183232724
1740773086033270300,10.762270263671875,-0.6814297737777233,-0.9284317732244729,-0.6034049423981458
1740773086043339300,10.77233935546875,-0.6431938588857651,-1.3006899454988539,-0.7232897243857384
1740773086053407200,10.7824072265625,-0.638712329557538,-1.4482071961037815,-0.7374087775658815
1740773086063476200,10.792476318359375,-0.7418518015146255,-1.4000140969514845,-0.6760515148054808
1740773086073545200,10.802545166015625,-0.959109235560894,-1.191877396341413,-0.5385105184875428
1740773086083613200,10.81261328125,-1.4149918858528137,-0.8523260002739727,-0.30902832057513296
1740773086093682200,10.82268212890625,-2.316572477030754,-0.24309184026569128,-0.07984086782559752
1740773086103750100,10.832750244140625,-3.723077689567208,0.2901610499545932,0.2199843747921288
1740773086113819400,10.8428193359375,-5.254256160476803,0.6651764119826257,0.4380898770350963
1740773086123888000,10.85288818359375,-6.522728866851329,1.1940668692097067,0.3908337664719671
1740773086133956000,10.8629560546875,-7.187530746433138,1.7013550048291681,0.336566900363937
1740773086144025300,10.873025390625,-7.271000472280383,2.1647090139150618,0.2923586330641061
1740773086154093300,10.88309326171875,-6.785780668345093,2.574390761785209,0.2837167691860348
1740773086164162000,10.893162109375,-5.82023526225686,2.7255758872479197,0.3396006420366466
1740773086174231300,10.903231201171875,-4.25864762455821,2.518130529902875,0.3386644571650773
1740773086184299300,10.91329931640625,-2.463172905051708,2.185418478336185,0.144533777814731
1740773086194368300,10.9233681640625,-0.9348439783543347,1.942405694656074,-0.08825484123192727
1740773086204437200,10.933437255859374,0.44267830080389975,1.7663601225726306,-0.19120456277057526
1740773086214505200,10.943505126953125,1.9012994850248097,1.4510883044980465,-0.18369009548723697
1740773086224574200,10.95357421875,3.26260420435369,1.2716232793599367,-0.3873293385475874
1740773086234642200,10.96364208984375,4.216210750845074,1.2232086464114487,-0.6484777906380593
1740773086244711200,10.973711181640626,4.804481179410219,1.0046817769512533,-0.80178940673545
1740773086254780400,10.983780517578126,4.913486913052201,0.6962409739404917,-1.0254591920420526
1740773086264848100,10.99384814453125,4.678779162511229,0.5906681373566389,-1.1501911948651076
1740773086274917400,11.00391748046875,4.140184911262989,0.6867274417944252,-1.2337430460378527
1740773086284985300,11.0139853515625,3.231630389419198,0.9585749825537204,-1.2825931477941572
1740773086295054000,11.02405419921875,2.0808944201529025,1.3426765912264584,-1.2051955084022135
1740773086305123300,11.034123291015625,0.9420791903048753,1.7739055695161223,-0.9776766464520246
1740773086315191300,11.04419140625,-0.22844459849298,2.1266823578596115,-0.7608118649851531
1740773086325260300,11.05426025390625,-1.2939812416404486,2.3665436917714775,-0.6091547380965203
1740773086335328300,11.064328369140625,-1.991802178248763,2.381475011182576,-0.39260508699342606
1740773086345397200,11.074397216796875,-2.3692612801671027,2.1399800847195087,-0.11046250832155347
1740773086355466200,11.08446630859375,-2.3144266971737144,1.734830281190574,0.1620145625129342
1740773086365534200,11.0945341796875,-1.8148703248500824,1.3803843905910849,0.29969445584490895
1740773086375603200,11.104603271484375,-0.9388584746927022,1.2813232739888132,0.3005826368562877
1740773086385672400,11.11467236328125,-0.050480479437112806,1.255863400170207,0.20744915673732756
1740773086395740200,11.124740234375,0.5770183821886777,1.1496350222870706,0.17182357047423719
1740773086405809200,11.13480908203125,1.0867945352315902,0.9317850291751325,0.1271361413553357
1740773086415877400,11.14487744140625,1.4596832604944705,0.6894621274553239,0.0737082102894783
1740773086425946000,11.154946044921875,1.6950877611279487,0.5069054199121892,0.013245412150770425
1740773086436015400,11.165015380859375,1.7953396949499845,0.3957984762072563,0.01027545642927289
1740773086446083300,11.175083251953126,1.8474708642035722,0.3433765073135495,-0.021546792028099296
1740773086456152300,11.18515234375,1.739427253592014,0.3127328011162579,-0.10750263560265302
1740773086466220300,11.19522021484375,1.4972691870450974,0.2997116992406547,-0.09760755679309367
1740773086476289300,11.205289306640625,1.1472826139420271,0.3375383026793599,-0.03167348763644695
1740773086486358300,11.215358154296876,0.7519558468997478,0.4076644166983664,0.027213877879083154
1740773086496426200,11.22542626953125,0.44302726037204265,0.44065497828274963,0.07777940525114536
1740773086506495200,11.2354951171875,0.19101883094012737,0.5027687584988773,0.06702917091697454
1740773086516563200,11.245563232421874,0.05477905341386795,0.4821300212264061,0.08227803184464573
1740773086526632200,11.255632080078126,0.04375029439926147,0.4099884757317602,0.07754194323346018
1740773086536701200,11.265701171875,0.16397592571377753,0.25202362700104713,0.07965732795223593
1740773086546769400,11.275769287109375,0.384560458356142,0.12100523738488554,0.10037307598367333
1740773086556838400,11.28583837890625,0.6509744297593831,0.00034720600247383117,0.1547822731718421
1740773086566907100,11.2959072265625,0.7914531600296497,-0.07259308865442872,0.2036667155891657
1740773086576975400,11.305975341796875,0.8402005320638418,-0.08291749879196286,0.25722090338319537
1740773086587044400,11.31604443359375,0.7936117993682622,-0.10045943909287453,0.3085051004186272
1740773086597112000,11.326112060546874,0.6418950512468814,-0.10796689211353659,0.345163244599849
1740773086607181300,11.336181396484376,0.4570680606842041,-0.09058116528764366,0.370164560995996
1740773086617250300,11.346250244140625,0.27862229559123514,-0.05248305143117905,0.3445191014774143
1740773086627318300,11.356318359375,0.08813304148316382,-0.045523295421153305,0.282179111289978
1740773086637387300,11.36638720703125,-0.13281798638403414,-0.08205927452743053,0.23611469472944735
1740773086647455200,11.376455322265626,-0.19438450798094273,-0.053004006565362215,0.17987609015703201
1740773086657524200,11.386524169921875,0.01579728859066963,-0.09964169296920299,-0.017691870165616273
1740773086667593200,11.39659326171875,0.009008066841959953,-0.00007642623707652092,-0.1377189101681113
1740773086677661200,11.4066611328125,0.0077472531259059904,0.04502703633680939,-0.13210706163570285
1740773086687730400,11.41673046875,-0.026328619477152822,0.014964344897866248,-0.12676102443262935
1740773086697799200,11.426799072265625,-0.061496963492035865,-0.052566784191876645,-0.09760857970640063
1740773086707867400,11.436867431640625,-0.038602410116791726,-0.10189444033205508,-0.0787463505871594
1740773086717936400,11.446936279296875,0.020564649122953412,-0.12175050279423594,-0.04803367080688476
1740773086728004000,11.457004150390626,0.12805004132986067,-0.1722172459669411,-0.09522650687545538
1740773086738073300,11.4670732421875,0.2014005242228508,-0.21340660383701324,-0.1418435888826847
1740773086748142300,11.477142333984375,0.40612171730101104,-0.36155031577721236,-0.16801117257922887
1740773086758210300,11.487210205078124,0.5393184738695621,-0.36455899607390163,-0.23711641911789774
1740773086768279300,11.497279296875,0.48541561876833433,-0.3912419819466769,-0.17310703441351652
1740773086778347300,11.50734716796875,0.3905067995399236,-0.46294309019744395,-0.12422770656272768
1740773086788416300,11.517416259765625,0.21709493696093557,-0.4970025961875915,-0.16035101321488618
1740773086798485200,11.5274853515625,0.06662088237702846,-0.4878704645745456,-0.17284940639063714
1740773086808553200,11.53755322265625,-0.07198036358356476,-0.4754531738109886,-0.13574088809341192
1740773086818622500,11.54762255859375,-0.18363515042960643,-0.4330851275503635,-0.14469751700907946
1740773086828690200,11.557690185546875,-0.28459610930383206,-0.45066140851229425,-0.154642572440207
1740773086838759200,11.56775927734375,-0.39601416478455065,-0.5298949580945074,-0.2219362395122647
1740773086848828400,11.577828369140626,-0.40465690544545646,-0.7628069112598895,-0.3465960538819432
1740773086858896100,11.587896240234375,-0.23350772710144518,-1.022525622808188,-0.37579175322800873
1740773086868965000,11.597965087890625,-0.1252560266971588,-1.0562725557178259,-0.2756448872156441
1740773086879034400,11.608034423828125,-0.28589316337704657,-0.8218921374350786,-0.13026669446602462
1740773086889102300,11.618102294921876,-0.6779027686953544,-0.5543797032706439,0.07455328281149268
1740773086899171300,11.62817138671875,-1.2293693609982728,-0.36497912118211384,0.28551980002000926
1740773086909239300,11.6382392578125,-1.8802607886493206,-0.1801340104408562,0.4152078178152442
1740773086919308300,11.648308349609374,-2.5221938338190317,0.10082476527392864,0.45526597969830035
1740773086929377300,11.658377197265626,-3.0180133577018973,0.4102181928344071,0.46096652942746874
1740773086939445200,11.6684453125,-3.232154121032357,0.6365307477347553,0.37038872514069077
1740773086949514200,11.67851416015625,-3.1562481084376572,0.7283072602868079,0.28374767578095195
1740773086959582200,11.688582275390624,-2.7759423849165437,0.7408383866883814,0.17252558126375078
1740773086969651200,11.698651123046876,-2.0812772819906473,0.726880442354083,0.0747552351243794
1740773086979720400,11.708720458984375,-1.4271931957781314,0.7797372955337166,-0.04663885544762015
1740773086989788400,11.718788330078125,-1.0117027616292238,0.9681757545918226,-0.14008242442905902
1740773086999857200,11.728857177734374,-0.7956587950259446,1.173170065522939,-0.22610388058573005
1740773087009925400,11.73892529296875,-0.5997714812666177,1.2433992015250026,-0.2905740146696567
1740773087019994400,11.748994384765625,-0.40488077732920646,1.249781742168963,-0.3553383093945682
1740773087030063000,11.75906298828125,-0.1280541329830885,1.271237641043216,-0.3861648248128593
1740773087040131300,11.76913134765625,0.20573592307865618,1.254231415054202,-0.3435089015215635
1740773087050200300,11.779200439453126,0.4511100290626287,1.1709653950855134,-0.2237346672363579
1740773087060269300,11.789269287109375,0.6839099001556634,0.9798740834310651,-0.0952753144532442
1740773087070337300,11.799337158203125,1.0051771592527627,1.0212797144003212,-0.09174816324040293
1740773087080406300,11.80940625,1.1129571504920721,1.0923851948454975,0.0056713236346840855
1740773087090474200,11.81947412109375,1.0895873808205128,1.1487393886215984,0.17744477135688067
1740773087100543200,11.829543212890625,0.9601637130498886,1.276071637070924,0.33316914768442507
1740773087110612200,11.8396123046875,0.8018418675750494,1.4594684487000107,0.49292248726710675
1740773087120680400,11.849680419921874,0.5542231975346803,1.599539474952221,0.6701157680809497
1740773087130749200,11.859749267578126,0.26354513796865936,1.7136200276404618,0.8001973152384162
1740773087140817200,11.869817138671875,0.044216742867231366,1.8562221798054872,0.8329749647244811
1740773087150886400,11.879886474609375,-0.05561433519423008,1.9765505408421158,0.7894163935050368
1740773087160955100,11.889955078125,-0.12433365115523337,2.0274676581308246,0.7211625030986965
1740773087171023400,11.9000234375,-0.14924889670312405,2.023264653483033,0.6782740862257778
1740773087181092400,11.91009228515625,-0.11254910533726215,2.022986567194015,0.6363762878254056
1740773087191161000,11.9201611328125,0.025681553745269772,2.033524473951757,0.6269068870820105
1740773087201229300,11.930229248046874,0.20546879657506942,1.9884034757211804,0.6191510122582317
1740773087211298300,11.94029833984375,0.3461456797659397,1.8984376658529043,0.5811269865512848
1740773087221366300,11.9503662109375,0.40106209582388397,1.7329541120551526,0.6281771992787718
1740773087231435300,11.960435302734375,0.38692075774669643,1.6142722030512988,0.6187000536203384
1740773087241504300,11.970504150390624,0.3617956688404083,1.529178237003088,0.5564673231996595
1740773087251572500,11.980572509765626,0.2499287005484104,1.4328211186625062,0.4604281847670674
1740773087261641200,11.99064111328125,0.10424246476292609,1.3722383474059403,0.3369942589305341
1740773087271709200,12.000709228515625,0.13371113583147526,1.379770350345969,0.15080204442925751
1740773087281778400,12.0107783203125,0.17582827607095242,1.3487585414886474,-0.06878098302036523
1740773087291847200,12.02084716796875,0.2239087086290121,1.3179444471605122,-0.24585706719532607
1740773087301915100,12.0309150390625,0.48318917489051816,1.2727633893057704,-0.3716440589640289
1740773087311984400,12.040984375,0.7939251031011343,1.1902578323155641,-0.4869773151271045
1740773087322052400,12.05105224609375,1.0022826068550348,1.0978015208058058,-0.549723548027873
1740773087332121300,12.061121337890626,1.1148474942833184,1.0255614833727478,-0.6034810033090412
1740773087342190300,12.0711904296875,1.1270768612593411,0.9759705001212656,-0.6513229509361088
1740773087352258300,12.08125830078125,1.0724410157084465,0.9038323156274854,-0.6800057323239743
1740773087362327300,12.091327392578124,0.9956155501812696,0.8350454873882234,-0.672013345330581
1740773087372395300,12.101395263671876,0.8914619327455758,0.8057434050582348,-0.6092134094811975
1740773087382464300,12.11146435546875,0.7356207981705665,0.7497932620383798,-0.5474466891370713
1740773087392533200,12.121533203125,0.5462590867877006,0.5935255726143718,-0.5390673486527056
1740773087402601200,12.131601318359374,0.35630876186192034,0.3652649523861706,-0.5597348736282438
1740773087412670500,12.14167041015625,0.27082302001714703,0.17434052173122763,-0.5709283216852694
1740773087422739200,12.1517392578125,0.20484394267499445,0.1405243960428983,-0.6023842941135168
1740773087432807200,12.16180712890625,-0.023160510835051534,0.388710636838153,-0.5752231693349779
1740773087442876400,12.17187646484375,-0.5508978525042534,0.8333218054007738,-0.572783374967426
1740773087452944400,12.1819443359375,-1.2137661336749792,1.0760575987704097,-0.6697714846879244
1740773087463013000,12.19201318359375,-1.7861784833729266,1.0042322065528482,-0.8306947448328137
1740773087473082400,12.202082275390625,-2.1885160059601065,0.8846379319444299,-1.0363311530597508
1740773087483150300,12.212150390625,-2.472225395557284,0.9709812404666095,-1.210940116468817
1740773087493219300,12.22221923828125,-2.6755390599250792,1.1750165701724589,-1.353125212265551
1740773087503287300,12.232287353515625,-2.6905425677895543,1.2561425093725322,-1.5996629552014172
1740773087513356300,12.242356201171875,-2.5396727918863293,1.3052280273199082,-1.9097564938552676
1740773087523425300,12.25242529296875,-2.160506886050105,1.237619887471199,-2.152526700951159
1740773087533493200,12.2624931640625,-1.7024936534702777,1.141834504603967,-2.2802780515953898
1740773087543562200,12.272562255859375,-1.0598433999419212,1.0302408733606339,-2.3929088438667354
1740773087553631200,12.28263134765625,-0.4169815494894981,0.8655548266161233,-2.6332842647805808
1740773087563699200,12.29269921875,0.13724457065463067,0.8222931925166398,-2.915518613389134
1740773087573768400,12.3027685546875,0.5198112248450517,0.815449171840772,-3.1357045021027323
1740773087583836400,12.31283642578125,0.7993301770150661,0.8382173954226076,-3.29034649002105
1740773087593905200,12.3229052734375,1.044444170758128,0.907103811578825,-3.4457919032767412
1740773087603974400,12.332974365234374,1.2128063487321137,0.9489591590769588,-3.568140810355544
1740773087614042400,12.34304248046875,1.3060387591809033,1.0624852196875958,-3.5567867649093268
1740773087624111000,12.353111083984375,1.2762041774094104,1.2592612259149552,-3.5154163513839243
1740773087634179300,12.363179443359375,1.099070663958788,1.5004451867327093,-3.4247131671518085
1740773087644248300,12.373248291015624,0.8208551956027745,1.6575965271234512,-3.2313200082957745
1740773087654317300,12.3833173828125,0.5627741682589054,1.7677590295851229,-3.068729983982444
1740773087664385300,12.39338525390625,0.33547172553837296,1.9431033215314149,-2.9684020623147487
1740773087674454300,12.403454345703125,0.04976911629736423,2.1229006473638115,-2.8187054218441245
1740773087684522200,12.413522216796874,-0.1582306600600481,2.2582246252194045,-2.67221839106977
1740773087694591200,12.42359130859375,-0.2799760482877493,2.4032176180437204,-2.50468448061347
1740773087704660200,12.43366015625,-0.3979384108453989,2.575118199276924,-2.3110779712677
1740773087714728400,12.443728515625,-0.5606494311898946,2.720124051582813,-2.1342484091997145
1740773087724797200,12.453797119140624,-0.7629056954592466,2.790233360597491,-1.9482703489057718
