time,seconds_elapsed,z,y,x
1740773075290052600,0.019052490234375,0.018552333116531372,-0.2282256782054901,-0.16365216672420502
1740773075300120800,0.029120849609375,0.035957466810941696,-0.2785678207874298,-0.13380275666713715
1740773075310189800,0.03918994140625,0.03891810029745102,-0.29911595582962036,-0.09723542630672455
1740773075320257500,0.049257568359375,0.05049659311771393,-0.29015883803367615,-0.0864032432436943
1740773075330326800,0.059326904296875,0.053848180919885635,-0.28283727169036865,-0.11869487166404724
1740773075340395800,0.069395751953125,0.05964360758662224,-0.2771681845188141,-0.14880262315273285
1740773075350463700,0.079463623046875,0.06413130462169647,-0.2728937864303589,-0.15821076929569244
1740773075360532700,0.08953271484375,0.050805121660232544,-0.26038986444473267,-0.15030716359615326
1740773075370600700,0.0996005859375,0.02383049577474594,-0.22341108322143555,-0.1305377185344696
1740773075380670000,0.109669921875,0.00460151256993413,-0.1804642677307129,-0.1040358692407608
1740773075390738700,0.11973876953125,-0.004336855374276638,-0.13666033744812012,-0.06438060104846954
1740773075400806700,0.129806640625,0.00307680806145072,-0.05396718531847,-0.04701722040772438
1740773075410876000,0.1398759765625,0.005659008864313364,0.00601998483762145,-0.045302409678697586
1740773075420943600,0.149943603515625,0.011050119996070862,0.04049259424209595,-0.05213554948568344
1740773075431012900,0.160012939453125,0.007406115997582674,0.04018233343958855,-0.06576348096132278
1740773075441081900,0.170081787109375,0.0050086164847016335,0.025501424446702003,-0.09038997441530228
1740773075451149800,0.18014990234375,0.004684244282543659,0.004838756751269102,-0.12690964341163635
1740773075461218800,0.19021875,0.0012787734158337116,-0.015722982585430145,-0.14980915188789368
1740773075471286800,0.200286865234375,-0.001774008385837078,-0.020483117550611496,-0.15133380889892578
1740773075481355800,0.210355712890625,-0.001312140841037035,-0.03110421821475029,-0.13596923649311066
1740773075491424800,0.2204248046875,-0.007731157820671797,-0.037404194474220276,-0.1005992665886879
1740773075501492700,0.23049267578125,-0.017501970753073692,-0.04034964367747307,-0.060027826577425
1740773075511562000,0.24056201171875,-0.02759907953441143,-0.02435922622680664,-0.023863699287176132
1740773075521629700,0.250629638671875,-0.021965280175209045,-0.006556537002325058,-0.015461241826415062
1740773075531698700,0.26069873046875,-0.015343330800533295,0.007107077166438103,-0.03827254846692085
1740773075541768000,0.270767822265625,-0.022466782480478287,0.006435691844671965,-0.08801908791065216
1740773075551835600,0.280835693359375,-0.03993179649114609,-0.02900964953005314,-0.13093113899230957
1740773075561904600,0.290904541015625,-0.060724690556526184,-0.07478326559066772,-0.1575837880373001
1740773075571974000,0.300973876953125,-0.07057492434978485,-0.08312055468559265,-0.16581055521965027
1740773075582041900,0.311041748046875,-0.06765497475862503,-0.07675451040267944,-0.15468496084213257
1740773075592110800,0.32111083984375,-0.055171944200992584,-0.06610692292451859,-0.13231655955314636
1740773075602178800,0.3311787109375,-0.0326383113861084,-0.04155179485678673,-0.1109490692615509
1740773075612247800,0.341247802734375,-0.015487821772694588,-0.0033972193486988544,-0.09739810228347778
1740773075622316800,0.35131689453125,-0.0027053013909608126,0.0466955192387104,-0.09513431042432785
1740773075632384800,0.361384765625,-0.0029154247604310513,0.07572877407073975,-0.11751604825258255
1740773075642453800,0.371453857421875,-0.004036199767142534,0.10061173886060715,-0.15847796201705933
1740773075652521700,0.381521728515625,0.002485615201294422,0.11812335252761841,-0.2034560889005661
1740773075662590700,0.3915908203125,0.00992147158831358,0.12792286276817322,-0.2400624006986618
1740773075672660000,0.401659912109375,0.012350006960332394,0.13301429152488708,-0.2653626799583435
1740773075682728000,0.41172802734375,0.009766475297510624,0.1270381510257721,-0.2751031816005707
1740773075692796700,0.421796630859375,0.010690592229366302,0.11691920459270477,-0.2767048180103302
1740773075702865000,0.431864990234375,0.008838764391839504,0.09103526920080185,-0.2764541804790497
1740773075712934000,0.441933837890625,0.00031425151973962784,0.07149938493967056,-0.25783124566078186
1740773075723002600,0.452002685546875,-0.012372233904898167,0.05460282787680626,-0.21199196577072144
1740773075733070800,0.46207080078125,-0.021204873919487,0.05865562707185745,-0.15477687120437622
1740773075743139800,0.472139892578125,-0.022875148802995682,0.06396623700857162,-0.09869305044412613
1740773075753207800,0.482207763671875,-0.019653256982564926,0.06180322542786598,-0.05082007125020027
1740773075763276800,0.49227685546875,-0.030327782034873962,0.043913304805755615,-0.008360393345355988
1740773075773345800,0.502345703125,-0.04691821336746216,0.04291195422410965,0.015591278672218323
1740773075783413800,0.512413818359375,-0.04807577282190323,0.04052495211362839,0.024987606331706047
1740773075793482800,0.522482666015625,-0.05260767415165901,0.03336957097053528,0.02591092512011528
1740773075803550700,0.53255078125,-0.05679402872920036,0.014573099091649055,0.02816719189286232
1740773075813620000,0.542619873046875,-0.05847528204321861,0.009146111086010933,0.02515968307852745
1740773075823688700,0.552688720703125,-0.06016363576054573,0.010943240486085415,0.00953223742544651
1740773075833756700,0.562756591796875,-0.05572228133678436,0.01894790306687355,-0.0022056447342038155
1740773075843826000,0.572825927734375,-0.04655773937702179,0.03646256774663925,-0.003331628628075123
1740773075853894700,0.582894775390625,-0.036288052797317505,0.031229987740516663,0.016712386161088943
1740773075863962600,0.592962646484375,-0.026351772248744965,0.024146780371665955,0.044877998530864716
1740773075874031900,0.603031982421875,-0.024491554126143456,0.036840472370386124,0.07273093611001968
1740773075884099800,0.613099853515625,-0.012275046668946743,0.05071206018328667,0.08982322365045547
1740773075894168800,0.6231689453125,-0.0020242733880877495,0.03989989310503006,0.09344219416379929
1740773075904237800,0.63323779296875,0.0010471832938492298,0.025507131591439247,0.08897414803504944
1740773075914305800,0.643305908203125,0.004648842848837376,0.01908145472407341,0.08875656872987747
1740773075924372200,0.653372314453125,0.006939471699297428,-0.0016364692710340023,0.09120631217956543
1740773075934440200,0.663440185546875,0.010817034170031548,-0.02425416372716427,0.1042022705078125
1740773075944509000,0.673509033203125,0.00916813313961029,-0.039698000997304916,0.12978710234165192
1740773075954578200,0.683578125,0.0056620812974870205,-0.03527741879224777,0.1396743655204773
1740773075964646100,0.693646240234375,-0.0009297747164964676,-0.032882172614336014,0.14195989072322845
1740773075974715100,0.703715087890625,-0.0017987641040235758,-0.030347108840942383,0.1445852369070053
1740773075984783000,0.713783203125,-0.0047475011087954044,-0.010091624222695827,0.1514003723859787
1740773075994852000,0.72385205078125,-0.003411393379792571,0.028813963755965233,0.13944651186466217
1740773076004921000,0.733921142578125,0.003699126187711954,0.06386780738830566,0.11900081485509872
1740773076014989000,0.743989013671875,0.012678772211074829,0.06627370417118073,0.09147012233734131
1740773076025058000,0.75405810546875,0.012627851217985153,0.049720849841833115,0.06613561511039734
1740773076035127000,0.764126953125,0.0020511061884462833,0.03766977787017822,0.040656089782714844
1740773076045195000,0.774195068359375,0.008623462170362473,0.04132312163710594,0.02414250373840332
1740773076055264300,0.78426416015625,0.023145945742726326,0.029894165694713593,0.012020326219499111
1740773076065332200,0.794332275390625,0.023556895554065704,0.009262082166969776,0.01748770847916603
1740773076075401000,0.80440087890625,0.015309085138142109,0.008394158445298672,0.031183280050754547
1740773076085470200,0.81447021484375,0.015200464054942131,0.011399826034903526,0.04857633262872696
1740773076095538200,0.8245380859375,0.014830019325017929,0.0237576924264431,0.05706489086151123
1740773076105607000,0.83460693359375,0.012824698351323605,0.03858735412359238,0.06059142202138901
1740773076115675100,0.844675048828125,0.011694985441863537,0.03662034124135971,0.058770883828401566
1740773076125744000,0.854744140625,0.003554918337613344,0.058762677013874054,0.06627871096134186
1740773076135813000,0.864813232421875,0.00019028084352612495,0.11364137381315231,0.10117597132921219
1740773076145881000,0.874881103515625,0.0017241104505956173,0.1612352430820465,0.12583807110786438
1740773076155950000,0.8849501953125,0.0029986994341015816,0.21331869065761566,0.14978761970996857
1740773076166018300,0.895018310546875,0.002698149997740984,0.24261265993118286,0.16828814148902893
1740773076176087000,0.905087158203125,0.0039602224715054035,0.2346884310245514,0.18809035420417786
1740773076186156000,0.915156005859375,0.005367822013795376,0.23239679634571075,0.1884385049343109
1740773076196224300,0.925224365234375,0.014483289793133736,0.22901563346385956,0.18068577349185944
1740773076206293000,0.93529296875,0.02235550433397293,0.18502874672412872,0.14686454832553864
1740773076216362200,0.9453623046875,0.023899871855974197,0.12922167778015137,0.10983036458492279
1740773076226430200,0.95543017578125,0.021570701152086258,0.08816983550786972,0.08077671378850937
1740773076236499000,0.9654990234375,0.01869954727590084,0.05710432678461075,0.06576847285032272
1740773076246567200,0.975567138671875,0.014943599700927734,0.025420160964131355,0.06331510096788406
1740773076256636200,0.98563623046875,0.016630979254841805,0.010682227090001106,0.06198139116168022
1740773076266705200,0.995705078125,0.009002801030874252,0.009356520138680935,0.05279520899057388
1740773076276773000,1.005773193359375,0.0008442061953246593,0.019382789731025696,0.03455948084592819
1740773076286842000,1.015842041015625,-0.007757983636111021,0.019719664007425308,0.02255222573876381
1740773076296910000,1.02591015625,-0.011220891959965229,0.018303927034139633,0.01732097938656807
1740773076306979000,1.03597900390625,-0.006410424131900072,0.018216842785477638,0.007729870732873678
1740773076317048000,1.046048095703125,-0.005043956451117992,0.01721043325960636,0.003735395148396492
1740773076327116300,1.0561162109375,-0.004480237141251564,0.014264860190451145,0.002367330715060234
1740773076337185000,1.06618505859375,0.0006884257309138775,0.03073704242706299,-0.0036319727078080177
1740773076347254000,1.07625390625,0.0024445559829473495,0.049289803951978683,-0.009784962050616741
1740773076357322200,1.086322265625,0.004122613929212093,0.058619122952222824,-0.016863375902175903
1740773076367391200,1.09639111328125,0.002901187166571617,0.06959842145442963,-0.00738600455224514
1740773076377459000,1.106458984375,0.013185515999794006,0.02882196009159088,0.004005666822195053
1740773076387528200,1.116528076171875,0.013588538393378258,0.005782939027994871,0.02039143815636635
1740773076397597200,1.12659716796875,0.01264125294983387,0.006517438683658838,0.029898658394813538
1740773076407665200,1.1366650390625,0.014166625216603279,0.013699200004339218,0.03809493035078049
1740773076417734100,1.146734130859375,0.013049429282546043,0.019992515444755554,0.02925616130232811
1740773076427802000,1.156802001953125,0.011008025147020817,0.03182333707809448,0.01158948801457882
1740773076437871000,1.16687109375,0.00708652101457119,0.0487021841108799,-0.006110945716500282
1740773076447940000,1.176940185546875,0.0018538250587880611,0.06421218067407608,-0.0074488138779997826
1740773076458008000,1.187008056640625,0.005262138321995735,0.07195106148719788,-0.0034458180889487267
1740773076468077000,1.1970771484375,0.003423534333705902,0.07315758615732193,-0.0007531186565756798
1740773076478145000,1.20714501953125,-0.003226645290851593,0.06957191228866577,0.0033622654154896736
1740773076488214300,1.21721435546875,-0.0036358078941702843,0.0551861897110939,0.008369256742298603
1740773076498283300,1.227283203125,-0.00455699535086751,0.03115888312458992,0.013681463897228241
1740773076508351000,1.23735107421875,-0.016241421923041344,0.005871763918548822,0.02592196688055992
1740773076518420200,1.247420166015625,-0.024494025856256485,0.0030991467647254467,0.04992663487792015
1740773076528489200,1.2574892578125,-0.03017912060022354,0.022511612623929977,0.06329119205474854
1740773076538557000,1.267556884765625,-0.012548994272947311,0.020215433090925217,0.06872937083244324
1740773076548626200,1.277626220703125,-0.01593116484582424,0.04090911149978638,0.06357986479997635
1740773076558694100,1.287694091796875,-0.02416858822107315,0.11020615696907043,0.05122332647442818
1740773076568763100,1.29776318359375,-0.005310538690537214,0.10422789305448532,0.03572102636098862
1740773076578832100,1.30783203125,0.007505657617002726,0.08070605248212814,0.031672753393650055
1740773076588900000,1.317900146484375,0.008432808332145214,0.08914551138877869,0.026017654687166214
1740773076598969300,1.32796923828125,0.00555046834051609,0.10992428660392761,0.0308598130941391
1740773076609037000,1.338037109375,0.00028040027245879173,0.11161484569311142,0.03755379468202591
1740773076619106000,1.34810595703125,-0.005845935549587011,0.09401588141918182,0.03329433500766754
1740773076629175300,1.35817529296875,-0.014625785872340202,0.07559506595134735,0.024880118668079376
1740773076639243000,1.368242919921875,-0.016917435452342033,0.06424467265605927,0.025236181914806366
1740773076649312300,1.378312255859375,-0.01570725254714489,0.03250150382518768,0.03568587079644203
1740773076659381200,1.38838134765625,-0.00924429390579462,0.018621375784277916,0.041660405695438385
1740773076669449200,1.39844921875,-0.0015125144273042679,0.008547710254788399,0.045163594186306
1740773076679518200,1.408518310546875,0.00146916089579463,-0.010471254587173462,0.03770674020051956
1740773076689586200,1.418586181640625,0.001322306226938963,-0.014951921068131924,0.018389901146292686
1740773076699655200,1.4286552734375,-0.006983560509979725,-0.006828747224062681,0.008390529081225395
1740773076709724200,1.43872412109375,-0.007677205838263035,-0.003311368403956294,0.001696883700788021
1740773076719792000,1.448792236328125,-0.0002062404528260231,-0.0027707465924322605,-0.0023252880200743675
1740773076729861400,1.458861328125,0.000015129800885915756,-0.012955201789736748,-0.004306104965507984
1740773076739930000,1.46893017578125,0.004422395024448633,-0.010447036474943161,-0.006848092190921307
1740773076749998000,1.478998046875,0.00895354337990284,-0.0015636598691344261,-0.01067409012466669
1740773076760067300,1.4890673828125,0.004932702053338289,-0.00890333205461502,-0.021381594240665436
1740773076770135000,1.499135009765625,-0.0036072968505322933,-0.022675983607769012,-0.02864028327167034
1740773076780204000,1.5092041015625,-0.007430796977132559,-0.02843533642590046,-0.0358598455786705
1740773076790273300,1.519273193359375,-0.004513423889875412,-0.038302887231111526,-0.04705719277262688
1740773076800341200,1.52934130859375,0.002688828855752945,-0.04332055151462555,-0.05791543051600456
1740773076810410000,1.539409912109375,0.003770893905311823,-0.02171487733721733,-0.06407123059034348
1740773076820478200,1.549478271484375,0.0133108701556921,-0.0010617985390126705,-0.054572004824876785
1740773076830547200,1.559547119140625,0.02170325070619583,-0.00851690024137497,-0.03676501661539078
1740773076840616200,1.5696162109375,0.02837100625038147,-0.01784994825720787,-0.0175298023968935
1740773076850684200,1.57968408203125,0.02759382128715515,-0.0020823092199862003,-0.001653820276260376
1740773076860753200,1.589753173828125,0.019372910261154175,0.011618854478001595,0.0029819440096616745
1740773076870822100,1.599822265625,0.016493238508701324,0.00783488154411316,0.0036796415224671364
1740773076880890000,1.60989013671875,0.014835420064628124,0.004974912386387587,-0.004775628447532654
1740773076890959000,1.619958984375,0.00896074902266264,0.0012053633108735085,-0.02202220819890499
1740773076901027300,1.63002734375,0.007663256488740444,-0.009865930303931236,-0.031017037108540535
1740773076911096000,1.640095947265625,0.0019721868447959423,-0.014823263511061668,-0.03804437816143036
1740773076921163800,1.650163818359375,0.000038465484976768494,-0.028039200231432915,-0.0383695513010025
1740773076931231700,1.660231689453125,0.006746154744178057,-0.028670236468315125,-0.03582610934972763
1740773076941301000,1.670301025390625,0.013521503657102585,-0.029149338603019714,-0.0311724990606308
1740773076951369700,1.68036962890625,0.01628834567964077,-0.034906044602394104,-0.027277488261461258
1740773076961438000,1.69043798828125,0.018850306048989296,-0.02783428505063057,-0.027938485145568848
1740773076971507000,1.7005068359375,0.0241819079965353,-0.01794983446598053,-0.02432447299361229
1740773076981574700,1.71057470703125,0.029555633664131165,-0.009894570335745811,-0.02523607388138771
1740773076991644000,1.720643798828125,0.02776356413960457,-0.0053104739636182785,-0.019003763794898987
1740773077001713000,1.730712890625,0.02169634774327278,0.010610967874526978,-0.017296146601438522
1740773077011780900,1.74078076171875,0.01378757506608963,0.01800457015633583,-0.02000603824853897
1740773077021849900,1.750849853515625,0.006178125273436308,0.010520822368562222,-0.020610041916370392
1740773077031917800,1.760917724609375,0.007535835262387991,0.004522586707025766,-0.02433072030544281
1740773077041986800,1.77098681640625,0.0023724986240267754,0.02030208148062229,-0.032304756343364716
1740773077052055800,1.781055908203125,0.008313212543725967,0.033184587955474854,-0.04062926769256592
1740773077062123800,1.791123779296875,0.007660737726837397,0.033184587955474854,-0.04070356860756874
1740773077072193000,1.801193115234375,0.006998531520366669,0.007413191255182028,-0.037828072905540466
1740773077082261800,1.81126171875,0.008790306746959686,0.0011734054423868656,-0.032266587018966675
1740773077092329700,1.821329833984375,0.01099531352519989,0.0019137561321258545,-0.028341688215732574
1740773077102399000,1.83139892578125,0.011182533577084541,-0.009569528512656689,-0.025321930646896362
1740773077112466700,1.841466796875,0.011604956351220608,-0.02473609335720539,-0.02532096579670906
1740773077122536000,1.851535888671875,0.011140766553580761,-0.03165312111377716,-0.030710935592651367
1740773077132605000,1.86160498046875,0.011453723534941673,-0.035376906394958496,-0.03326493874192238
1740773077142673000,1.8716728515625,0.019406188279390335,-0.04557894170284271,-0.04128291457891464
1740773077152742000,1.881741943359375,0.01778080128133297,-0.04476570710539818,-0.048884447664022446
1740773077162811000,1.891810791015625,0.015902474522590637,-0.03489523380994797,-0.045134980231523514
1740773077172878800,1.90187890625,0.014996210113167763,-0.019182205200195312,-0.04271261766552925
1740773077182947800,1.91194775390625,0.02100430056452751,-0.004177689552307129,-0.040867313742637634
1740773077193015800,1.922015869140625,0.025562286376953125,0.009038113057613373,-0.0412413626909256
1740773077203085000,1.9320849609375,0.023741748183965683,0.012413670308887959,-0.04076545685529709
1740773077213153800,1.94215380859375,0.025829575955867767,-0.0019423742778599262,-0.03646504878997803
1740773077223221800,1.9522216796875,0.034293100237846375,-0.017544768750667572,-0.03679234907031059
1740773077233291000,1.962291015625,0.033698540180921555,-0.015079736709594727,-0.03152666240930557
1740773077243359000,1.97235888671875,0.030653215944767,-0.0042609116062521935,-0.019266266375780106
1740773077253427700,1.982427734375,0.03190767765045166,0.006490522995591164,-0.011948807165026665
1740773077263497000,1.9924970703125,0.03589150309562683,0.007244996726512909,-0.007095729932188988
1740773077273565000,2.00256494140625,0.035199202597141266,0.008488014340400696,-0.009780429303646088
1740773077283634000,2.012634033203125,0.02848883718252182,0.0034618303179740906,-0.01887592300772667
1740773077293703000,2.022702880859375,0.02593046985566616,-0.007188116665929556,-0.036316681653261185
1740773077303771000,2.03277099609375,0.028261534869670868,-0.008782817050814629,-0.047761350870132446
1740773077313839900,2.04283984375,0.024978816509246826,-0.01203787513077259,-0.05615796893835068
1740773077323907800,2.052907958984375,0.023910891264677048,-0.013361997902393341,-0.05830661207437515
1740773077333976800,2.062976806640625,0.022212140262126923,-0.014862172305583954,-0.05376019328832626
1740773077344045800,2.0730458984375,0.018618205562233925,-0.010462896898388863,-0.04543914645910263
1740773077354113800,2.08311376953125,0.017509985715150833,-0.0029923373367637396,-0.036546237766742706
1740773077364183000,2.09318310546875,0.021323632448911667,0.018555566668510437,-0.025724751874804497
1740773077374251800,2.103251708984375,0.024323824793100357,0.04188936948776245,0.0003299294039607048
1740773077384319700,2.11331982421875,0.023299040272831917,0.021702345460653305,0.0005882559344172478
1740773077394389000,2.123388916015625,0.02669362723827362,0.014711935073137283,-0.012257471680641174
1740773077404457000,2.13345703125,0.015721138566732407,-0.0019437405280768871,-0.023940490558743477
1740773077414525700,2.143525634765625,0.01149309054017067,-0.0331631563603878,-0.033592406660318375
1740773077424595000,2.153594970703125,0.009532738476991653,-0.04476229101419449,-0.03324725851416588
1740773077434663000,2.163662841796875,0.004536941647529602,-0.033939577639102936,-0.027051344513893127
1740773077444732000,2.17373193359375,0.01322044339030981,-0.002218399429693818,-0.02640632539987564
1740773077454801000,2.18380078125,0.027905134484171867,0.01755288802087307,-0.029689911752939224
1740773077464868900,2.193868896484375,0.03141917660832405,0.015847399830818176,-0.032163720577955246
1740773077474937900,2.203937744140625,0.032465897500514984,0.014641817659139633,-0.03167077898979187
1740773077485005800,2.214005859375,0.0346829779446125,-0.00330309453420341,-0.02866753190755844
1740773077495074800,2.22407470703125,0.03566339239478111,-0.02419387549161911,-0.020520640537142754
1740773077505143800,2.234143798828125,0.028158070519566536,-0.03881702572107315,-0.016986889764666557
1740773077515211800,2.244211669921875,0.018707435578107834,-0.04861121252179146,-0.01140992809087038
1740773077525281000,2.254281005859375,0.012665524147450924,-0.0542355440557003,-0.014303452335298061
1740773077535349800,2.264349853515625,0.008529352024197578,-0.04809309542179108,-0.01937452331185341
1740773077545417700,2.274417724609375,0.0005555818788707256,-0.0426756925880909,-0.03135102242231369
1740773077555487000,2.284487060546875,-0.005585354287177324,-0.02981637232005596,-0.051737673580646515
1740773077565555000,2.294554931640625,-0.008896728977560997,-0.023756349459290504,-0.07387121021747589
1740773077575623700,2.304623779296875,-0.00969913974404335,-0.02646649442613125,-0.08393017947673798
1740773077585693000,2.31469287109375,-0.015318941324949265,-0.038599587976932526,-0.07843554764986038
1740773077595761000,2.324760986328125,-0.018083933740854263,-0.0415603443980217,-0.05903949216008186
1740773077605830000,2.334829833984375,-0.01643330603837967,-0.03529392555356026,-0.02929437905550003
1740773077615899000,2.34489892578125,-0.012842453084886074,-0.02975589595735073,0.001629074104130268
1740773077625966800,2.354966796875,-0.013095187023282051,-0.024431705474853516,0.010980498045682907
1740773077636035800,2.365035888671875,-0.01763763278722763,-0.013806615024805069,0.007999297231435776
1740773077646103800,2.375103759765625,-0.02051731012761593,-0.003731610020622611,-0.003923940472304821
1740773077656172800,2.3851728515625,-0.020574074238538742,0.0021842210553586483,-0.022583086043596268
1740773077666241800,2.39524169921875,-0.021254245191812515,0.009387273341417313,-0.0313161239027977
1740773077676309800,2.405309814453125,-0.02438589185476303,0.021421119570732117,-0.03501978516578674
1740773077686379000,2.41537890625,-0.020495546981692314,0.02746010571718216,-0.03188604116439819
1740773077696447700,2.42544775390625,-0.018033063039183617,0.03463014215230942,-0.03159566968679428
1740773077706515700,2.435515625,-0.016158729791641235,0.02911207266151905,-0.03182496502995491
1740773077716585000,2.4455849609375,-0.01807902567088604,0.01408810168504715,-0.03396173194050789
1740773077726653700,2.45565380859375,-0.02025269716978073,0.0003749532625079155,-0.03732583671808243
1740773077736721700,2.4657216796875,-0.025000300258398056,-0.008942514657974243,-0.04573116451501846
1740773077746791000,2.475791015625,-0.02724641002714634,-0.023941436782479286,-0.06195327267050743
1740773077756859000,2.48585888671875,-0.03282102197408676,-0.028874505311250687,-0.07464438676834106
1740773077766928000,2.495927978515625,-0.03607354313135147,-0.03641977533698082,-0.07845483720302582
1740773077776996900,2.505996826171875,-0.03800802305340767,-0.038658734411001205,-0.07377707213163376
1740773077787064800,2.51606494140625,-0.03729429841041565,-0.03219923749566078,-0.06774048507213593
1740773077797133800,2.5261337890625,-0.03478961065411568,-0.03179324045777321,-0.06195039302110672
1740773077807201800,2.536201904296875,-0.03720376640558243,-0.0323551669716835,-0.05264078080654144
1740773077817270800,2.546270751953125,-0.03975358605384827,-0.00926235131919384,-0.04271905869245529
1740773077827339800,2.55633984375,-0.045394428074359894,-0.011315383017063141,-0.03429681062698364
1740773077837407700,2.56640771484375,-0.03734127804636955,-0.011280893348157406,-0.0322825163602829
1740773077847477000,2.57647705078125,-0.042174383997917175,-0.01596912182867527,-0.031082233414053917
1740773077857545700,2.586545654296875,-0.04808717966079712,-0.029623553156852722,-0.03625398874282837
1740773077867613700,2.59661376953125,-0.043054867535829544,-0.04526163265109062,-0.044056251645088196
1740773077877683000,2.606682861328125,-0.04156184196472168,-0.056111615151166916,-0.052661411464214325
1740773077887752000,2.616751953125,-0.04673156887292862,-0.062370575964450836,-0.0583491250872612
1740773077897819600,2.626819580078125,-0.05215492472052574,-0.0642947182059288,-0.05719311907887459
1740773077907889000,2.636888916015625,-0.05456721410155296,-0.06090424582362175,-0.04244240000844002
1740773077917957400,2.646957275390625,-0.05346783623099327,-0.040384434163570404,-0.03437720984220505
1740773077928026000,2.657026123046875,-0.05212560296058655,-0.012380761094391346,-0.03856050223112106
1740773077938095400,2.667095458984375,-0.05467903986573219,0.018989145755767822,-0.029231183230876923
1740773077948163300,2.677163330078125,-0.05496586114168167,0.03468582034111023,-0.026426874101161957
1740773077958232000,2.687232177734375,-0.05575644224882126,0.03082619607448578,-0.012190046720206738
1740773077968301300,2.69730126953125,-0.05853358656167984,0.017677104100584984,-0.0005541639402508736
1740773077978369300,2.707369384765625,-0.06100029870867729,0.0021816492080688477,0.010315252467989922
1740773077988438300,2.717438232421875,-0.06661903858184814,-0.012912082485854626,0.02239242196083069
1740773077998506200,2.72750634765625,-0.0685194656252861,-0.024620138108730316,0.03231349587440491
1740773078008575200,2.7375751953125,-0.07106944173574448,-0.028842313215136528,0.038925591856241226
1740773078018644200,2.747644287109375,-0.0794152021408081,-0.028898123651742935,0.04951909929513931
1740773078028712200,2.757712158203125,-0.09055573493242264,-0.03486813232302666,0.05831072852015495
1740773078038781200,2.76778125,-0.1015491932630539,-0.042396195232868195,0.0595015287399292
1740773078048850200,2.77785009765625,-0.12235407531261444,-0.04676084965467453,0.05409478023648262
1740773078058918100,2.787918212890625,-0.13832633197307587,-0.04896783083677292,0.05148126557469368
1740773078068987400,2.7979873046875,-0.15043573081493378,-0.061044201254844666,0.06179089471697807
1740773078079055400,2.808055419921875,-0.16152460873126984,-0.0624648854136467,0.0844482034444809
1740773078089124000,2.8181240234375,-0.17210961878299713,-0.050127528607845306,0.10739772766828537
1740773078099193300,2.828193359375,-0.18607458472251892,-0.03569012135267258,0.11801835894584656
1740773078109261300,2.83826123046875,-0.19903671741485596,-0.028943268582224846,0.12281791120767593
1740773078119330000,2.848330078125,-0.20141108334064484,-0.014737024903297424,0.11632640659809113
1740773078129399300,2.8583994140625,-0.20105023682117462,0.015289049595594406,0.11160142719745636
1740773078139467300,2.86846728515625,-0.19868256151676178,0.02294844388961792,0.10169041901826859
1740773078149536300,2.878536376953125,-0.20100164413452148,0.02499481849372387,0.08534766733646393
1740773078159605200,2.888605224609375,-0.2052849680185318,0.03594588115811348,0.039208874106407166
1740773078169673200,2.898673095703125,-0.2233356088399887,0.034041453152894974,-0.03594526648521423
1740773078179742500,2.908742431640625,-0.2451489269733429,-0.011343222111463547,-0.12387324869632721
1740773078189810200,2.91881005859375,-0.27575528621673584,-0.05650696903467178,-0.1918693482875824
1740773078199879200,2.928879150390625,-0.3031570017337799,-0.11642144620418549,-0.2226734459400177
1740773078209948400,2.938948486328125,-0.32721519470214844,-0.17039494216442108,-0.2128831297159195
1740773078220016000,2.94901611328125,-0.3437131643295288,-0.20978106558322906,-0.16871026158332825
1740773078230085400,2.95908544921875,-0.35131940245628357,-0.19785331189632416,-0.10676299780607224
1740773078240154400,2.969154296875,-0.34735164046287537,-0.14282801747322083,-0.07121814042329788
1740773078250222000,2.97922216796875,-0.32113760709762573,-0.07541009783744812,-0.07863876968622208
1740773078260291300,2.989291259765625,-0.2954825460910797,-0.03681117668747902,-0.13485369086265564
1740773078270360300,2.9993603515625,-0.27687662839889526,0.02312246337532997,-0.19916130602359772
1740773078280428300,3.00942822265625,-0.282349556684494,0.06428416073322296,-0.24326568841934204
1740773078290497300,3.019497314453125,-0.27508339285850525,0.10078144818544388,-0.26749032735824585
1740773078300565200,3.029565185546875,-0.26926276087760925,0.1304224133491516,-0.259660005569458
1740773078310634500,3.039634521484375,-0.272046834230423,0.13280941545963287,-0.23054952919483185
1740773078320703200,3.049703125,-0.280608594417572,0.11576759070158005,-0.18003687262535095
1740773078330771200,3.059771240234375,-0.2914164960384369,0.08505122363567352,-0.1317542940378189
1740773078340840400,3.06984033203125,-0.29954278469085693,0.03161579743027687,-0.09387552738189697
1740773078350909200,3.0799091796875,-0.3084297478199005,-0.030166875571012497,-0.07523899525403976
1740773078360977200,3.08997705078125,-0.30182427167892456,-0.08198130875825882,-0.07595331966876984
1740773078371046400,3.10004638671875,-0.2931264042854309,-0.1078062504529953,-0.08879747241735458
1740773078381115100,3.110115234375,-0.28483787178993225,-0.12085374444723129,-0.10618968307971954
1740773078391183400,3.120183349609375,-0.2769823372364044,-0.11216997355222702,-0.11508490890264511
1740773078401252400,3.13025244140625,-0.268838107585907,-0.0797642320394516,-0.11294542998075485
1740773078411320300,3.1403203125,-0.26370272040367126,-0.04373059421777725,-0.0997190997004509
1740773078421389300,3.150389404296875,-0.25844162702560425,-0.009805649518966675,-0.08881928771734238
1740773078431458300,3.160458251953125,-0.24930883944034576,0.018066460266709328,-0.0843406543135643
1740773078441526300,3.1705263671875,-0.24125918745994568,0.017877884209156036,-0.08892814815044403
1740773078451595300,3.18059521484375,-0.228086918592453,0.010743275284767151,-0.09353196620941162
1740773078461664300,3.190664306640625,-0.2148296982049942,0.007962428033351898,-0.10250287503004074
1740773078471732500,3.200732421875,-0.20072638988494873,0.0016925479285418987,-0.10654742270708084
1740773078481801200,3.21080126953125,-0.17958037555217743,0.0031393091194331646,-0.1044766902923584
1740773078491870200,3.2208701171875,-0.1559879630804062,0.017780035734176636,-0.09720093011856079
1740773078501938400,3.2309384765625,-0.1333744078874588,0.03896626830101013,-0.07186106592416763
1740773078512007200,3.241007080078125,-0.11385078728199005,0.06193337216973305,-0.04192740470170975
1740773078522075100,3.2510751953125,-0.0904202088713646,0.06393487751483917,-0.016698291525244713
1740773078532144400,3.261144287109375,-0.06498809158802032,0.06089487671852112,0.0010125283151865005
1740773078542213000,3.271213134765625,-0.041014473885297775,0.06073080748319626,0.010208574123680592
1740773078552281300,3.28128125,-0.014169543981552124,0.0642499104142189,0.019216183573007584
1740773078562350300,3.291350341796875,0.011438025161623955,0.06225056201219559,0.022570984438061714
1740773078572419000,3.301419189453125,0.03465626388788223,0.06353447586297989,0.03661756217479706
1740773078582487300,3.3114873046875,0.050339870154857635,0.08416398614645004,0.05389973521232605
1740773078592556300,3.321556396484375,0.06546954810619354,0.09893494099378586,0.08371222764253616
1740773078602624300,3.331624267578125,0.07482154667377472,0.09909339994192123,0.11535432934761047
1740773078612693200,3.341693359375,0.07957741618156433,0.08772463351488113,0.13781462609767914
1740773078622762200,3.35176220703125,0.08089926093816757,0.07676797360181808,0.15021167695522308
1740773078632830500,3.36183056640625,0.07812291383743286,0.06480319052934647,0.15654119849205017
1740773078642899200,3.371899169921875,0.0762598067522049,0.04971372336149216,0.16227315366268158
1740773078652968200,3.38196826171875,0.07173429429531097,0.029054783284664154,0.17363260686397552
1740773078663036400,3.392036376953125,0.07204999029636383,0.019501902163028717,0.19007889926433563
1740773078673105200,3.402105224609375,0.08245176821947098,0.024862047284841537,0.2201899290084839
1740773078683174400,3.41217431640625,0.10553466528654099,0.05593724921345711,0.2492433339357376
1740773078693242400,3.422242431640625,0.13891500234603882,0.11628634482622147,0.24974320828914642
1740773078703311000,3.43231103515625,0.16105934977531433,0.17904534935951233,0.2154735028743744
1740773078713380400,3.44238037109375,0.168985977768898,0.24183283746242523,0.1499461531639099
1740773078723448300,3.4524482421875,0.1765691637992859,0.2878122925758362,0.05700758099555969
1740773078733517000,3.46251708984375,0.17418670654296875,0.30314624309539795,-0.04349132999777794
1740773078743585300,3.472585205078125,0.157104954123497,0.28065043687820435,-0.12990815937519073
1740773078753654300,3.482654296875,0.12396272271871567,0.22245953977108002,-0.17186439037322998
1740773078763723300,3.49272314453125,0.09229055047035217,0.13767674565315247,-0.17277838289737701
1740773078773791200,3.502791259765625,0.05386219546198845,0.052230555564165115,-0.13230526447296143
1740773078783860200,3.512860107421875,0.015366857871413231,-0.005867782048881054,-0.07756209373474121
1740773078793929200,3.52292919921875,0.002453455701470375,-0.033593419939279556,-0.022165952250361443
1740773078803997200,3.5329970703125,-0.022696292027831078,-0.07001227140426636,-0.0029190964996814728
1740773078814066200,3.543066162109375,-0.060639943927526474,-0.07568667083978653,0.005890640430152416
1740773078824135400,3.553135498046875,-0.0859382376074791,-0.07145396620035172,0.017035139724612236
1740773078834203100,3.563203125,-0.11252457648515701,-0.07008536905050278,0.0635075643658638
1740773078844272400,3.5732724609375,-0.14063677191734314,-0.060531266033649445,0.13554829359054565
1740773078854340400,3.58334033203125,-0.16893206536769867,-0.03848481923341751,0.21787139773368835
1740773078864409000,3.5934091796875,-0.18642590939998627,-0.006765533704310656,0.30063900351524353
1740773078874478300,3.603478271484375,-0.19781118631362915,0.017323290929198265,0.35914331674575806
1740773078884546300,3.61354638671875,-0.19954822957515717,0.0360579751431942,0.3968730866909027
1740773078894615300,3.623615234375,-0.20432116091251373,0.047041650861501694,0.4194295406341553
1740773078904684300,3.633684326171875,-0.19455954432487488,0.05789361149072647,0.4139804244041443
1740773078914752300,3.643752197265625,-0.1749325841665268,0.06791455298662186,0.38622790575027466
1740773078924821000,3.653821044921875,-0.15398263931274414,0.07501360774040222,0.3446538746356964
1740773078934889700,3.6638896484375,-0.13680098950862885,0.06435510516166687,0.29344528913497925
1740773078944958000,3.6739580078125,-0.12290135025978088,0.034068573266267776,0.23458603024482727
1740773078955027000,3.68402685546875,-0.10549892485141754,-0.01674826629459858,0.18076114356517792
1740773078965095000,3.694094970703125,-0.08522549271583557,-0.07208994030952454,0.14655731618404388
1740773078975164000,3.704163818359375,-0.056616488844156265,-0.10825087130069733,0.13067661225795746
1740773078985233000,3.71423291015625,-0.016899138689041138,-0.12470494210720062,0.13310277462005615
1740773078995301000,3.724301025390625,0.026917049661278725,-0.12405886501073837,0.14512215554714203
1740773079005369900,3.734369873046875,0.07881338894367218,-0.09432641416788101,0.16083963215351105
1740773079015438800,3.74443896484375,0.13428357243537903,-0.05737319216132164,0.17577357590198517
1740773079025507000,3.754507080078125,0.1844174563884735,-0.03274548798799515,0.1681833565235138
1740773079035575800,3.764575927734375,0.23478344082832336,-0.030931340530514717,0.13750745356082916
1740773079045645000,3.77464501953125,0.27958858013153076,-0.03970098868012428,0.08206331729888916
1740773079055713000,3.784713134765625,0.3126269578933716,-0.03520956635475159,0.02069290727376938
1740773079065781800,3.79478173828125,0.33388039469718933,-0.027982693165540695,-0.03646065667271614
1740773079075850000,3.80485009765625,0.34367552399635315,-0.020839564502239227,-0.08130243420600891
1740773079085919000,3.8149189453125,0.3530440032482147,-0.014613465406000614,-0.10574217140674591
1740773079095987700,3.82498779296875,0.3497779071331024,-0.02257498726248741,-0.11650054901838303
1740773079106056000,3.835055908203125,0.33588844537734985,-0.00834023579955101,-0.10636691004037857
1740773079116125000,3.845125,0.30968424677848816,-0.005543384701013565,-0.08804090321063995
1740773079126194000,3.85519384765625,0.3073200285434723,-0.011430338025093079,-0.08441796898841858
1740773079136262000,3.865261962890625,0.29927167296409607,-0.03344482555985451,-0.0839708223938942
1740773079146331000,3.875330810546875,0.25132492184638977,-0.08730430901050568,-0.0665932446718216
1740773079156399900,3.88539990234375,0.2148401439189911,-0.12801365554332733,-0.04002555087208748
1740773079166467800,3.8954677734375,0.1830102652311325,-0.17747534811496735,-0.005020596086978912
1740773079176536800,3.905536865234375,0.14709992706775665,-0.22061535716056824,0.028056396171450615
1740773079186605800,3.915605712890625,0.11217255145311356,-0.23721034824848175,0.0451776497066021
1740773079196673800,3.925673828125,0.07771071791648865,-0.22650709748268127,0.04737981781363487
1740773079206743000,3.935742919921875,0.048020139336586,-0.205576092004776,0.04495822638273239
1740773079216811000,3.94581103515625,0.02602349780499935,-0.18591263890266418,0.03344377875328064
1740773079226879700,3.955879638671875,0.01276305690407753,-0.1691105216741562,0.012084750458598137
1740773079236949000,3.965948974609375,0.0005942750722169876,-0.1384764462709427,-0.009229060262441635
1740773079247017000,3.976016845703125,-0.0036348775029182434,-0.09159214794635773,-0.029155876487493515
1740773079257085700,3.986085693359375,-0.007549191825091839,-0.04202406480908394,-0.04867471382021904
1740773079267155000,3.996155029296875,-0.009058632887899876,0.0155339315533638,-0.07030216604471207
1740773079277223000,4.006222900390625,0.0034481044858694077,0.058645717799663544,-0.09360002726316452
1740773079287292000,4.0162919921875,0.012048734351992607,0.06325045228004456,-0.1295853555202484
1740773079297361000,4.02636083984375,0.0029883943498134613,0.09558841586112976,-0.14852283895015717
1740773079307428900,4.036428955078125,0.006048489827662706,0.11646612733602524,-0.15403713285923004
1740773079317497900,4.046497802734375,0.012654459103941917,0.1203620582818985,-0.14257089793682098
1740773079327565800,4.05656591796875,0.016429368406534195,0.1308060586452484,-0.12086057662963867
1740773079337634800,4.066634765625,0.012775776907801628,0.13564236462116241,-0.0931493267416954
1740773079347703800,4.076703857421875,0.010787321254611015,0.13299357891082764,-0.06183365732431412
1740773079357771800,4.086771728515625,0.012890418991446495,0.1314055472612381,-0.031591325998306274
1740773079367841000,4.096841064453125,0.012823916971683502,0.1297229528427124,-0.0011866865679621696
1740773079377910000,4.106909912109375,0.007737279869616032,0.11823886632919312,0.032149963080883026
1740773079387977700,4.116977783203125,0.002911535557359457,0.08137351274490356,0.05824807286262512
1740773079398047000,4.127046875,-0.015034441836178303,0.03989904001355171,0.07128851115703583
1740773079408116000,4.137115966796875,-0.03514629602432251,-0.006810156628489494,0.06386001408100128
1740773079418183700,4.14718359375,-0.04706394299864769,-0.06342043727636337,0.046914320439100266
1740773079428253000,4.1572529296875,-0.06068190187215805,-0.115107461810112,0.017166759818792343
1740773079438321000,4.16732080078125,-0.06723141670227051,-0.13678398728370667,-0.013020970858633518
1740773079448390000,4.177389892578125,-0.07210329920053482,-0.14646457135677338,-0.03279220685362816
1740773079458459000,4.187458984375,-0.07566101849079132,-0.14795248210430145,-0.043111689388751984
1740773079468526800,4.19752685546875,-0.08194394409656525,-0.12495288997888565,-0.04915173724293709
1740773079478596000,4.20759619140625,-0.09068683534860611,-0.09089238941669464,-0.05169905349612236
1740773079488664800,4.217664794921875,-0.09973767399787903,-0.05497448146343231,-0.05640238896012306
1740773079498732800,4.22773291015625,-0.10163917392492294,-0.00561145693063736,-0.07387698441743851
1740773079508802000,4.237802001953125,-0.0967353954911232,0.035472605377435684,-0.10810625553131104
1740773079518870800,4.247870849609375,-0.09974290430545807,0.07900863140821457,-0.1532984972000122
1740773079528939000,4.25793896484375,-0.10097478330135345,0.09078407287597656,-0.18813976645469666
1740773079539008000,4.268008056640625,-0.11540405452251434,0.07498087733983994,-0.20415601134300232
1740773079549076000,4.278075927734375,-0.13219702243804932,0.033027417957782745,-0.20511740446090698
1740773079559145000,4.28814501953125,-0.14977069199085236,-0.019499970600008965,-0.18713493645191193
1740773079569214000,4.2982138671875,-0.17114819586277008,-0.08887875825166702,-0.1642795205116272
1740773079579282000,4.308281982421875,-0.19220314919948578,-0.14929310977458954,-0.12602534890174866
1740773079589351000,4.318350830078125,-0.20709927380084991,-0.19383183121681213,-0.0767541155219078
1740773079599420000,4.328419921875,-0.2194233238697052,-0.17748507857322693,-0.007658405229449272
1740773079609488000,4.33848779296875,-0.23698736727237701,-0.13708747923374176,0.08036914467811584
1740773079619556900,4.348556884765625,-0.24259226024150848,-0.09689132869243622,0.1696241945028305
1740773079629625900,4.3586259765625,-0.2510797679424286,-0.07973188906908035,0.24192479252815247
1740773079639694000,4.368694091796875,-0.25122490525245667,-0.07859764993190765,0.2777616083621979
1740773079649762800,4.3787626953125,-0.246527761220932,-0.09633255749940872,0.27234792709350586
1740773079659830800,4.388830810546875,-0.24988840520381927,-0.1390075832605362,0.22759482264518738
1740773079669900000,4.398900146484375,-0.26304545998573303,-0.21281015872955322,0.14757192134857178
1740773079679968800,4.40896875,-0.2770041525363922,-0.28090375661849976,0.055965572595596313
1740773079690036700,4.41903662109375,-0.28625768423080444,-0.3120230436325073,-0.015189922414720058
1740773079700106000,4.42910595703125,-0.2944338619709015,-0.319847971200943,-0.05180758982896805
1740773079710174700,4.4391748046875,-0.3108801245689392,-0.33460384607315063,-0.04731864109635353
1740773079720243000,4.449242919921875,-0.3089304268360138,-0.3285433053970337,-0.01526856329292059
1740773079730312000,4.45931201171875,-0.29121658205986023,-0.2991115152835846,0.017402037978172302
1740773079740381000,4.469380859375,-0.27306872606277466,-0.22517523169517517,0.04201444238424301
1740773079750449000,4.479448974609375,-0.25876495242118835,-0.11621320992708206,0.054481327533721924
1740773079760518000,4.489517822265625,-0.2522985339164734,-0.020090671256184578,0.06072457879781723
1740773079770585900,4.4995859375,-0.25521793961524963,0.04766429215669632,0.08061841130256653
1740773079780654800,4.50965478515625,-0.2679707705974579,0.06370371580123901,0.13611388206481934
1740773079790723800,4.519723876953125,-0.28867292404174805,0.06170806661248207,0.2180921882390976
1740773079800792000,4.5297919921875,-0.2994174659252167,0.032488130033016205,0.31493112444877625
1740773079810860800,4.53986083984375,-0.3156144917011261,-0.011263208463788033,0.3902377784252167
1740773079820930000,4.549929931640625,-0.3464711904525757,-0.0140507398173213,0.4476211667060852
1740773079830998000,4.559998046875,-0.3641641438007355,0.004272719379514456,0.4750135838985443
1740773079841066800,4.570066650390625,-0.36506640911102295,0.03102310560643673,0.47771748900413513
1740773079851136000,4.580135986328125,-0.3634239733219147,0.06259568780660629,0.45390570163726807
1740773079861204000,4.590203857421875,-0.3668453097343445,0.08175020664930344,0.41911232471466064
1740773079871272700,4.600272705078125,-0.3746359944343567,0.08018188923597336,0.36349257826805115
1740773079881341000,4.6103408203125,-0.36844494938850403,0.0704142153263092,0.2973191440105438
1740773079891410000,4.620409912109375,-0.3591354191303253,0.03500044345855713,0.22057615220546722
1740773079901479000,4.63047900390625,-0.3576560318470001,0.0023972252383828163,0.1309725046157837
1740773079911547000,4.640546875,-0.3671422302722931,-0.01921035908162594,0.05079168826341629
1740773079921616100,4.6506162109375,-0.3800838589668274,-0.03425855189561844,-0.0061759911477565765
1740773079931684900,4.660684814453125,-0.3862174451351166,-0.05040101706981659,-0.054566796869039536
1740773079941752800,4.6707529296875,-0.39079993963241577,-0.04851895943284035,-0.08934768289327621
1740773079951822000,4.680822021484375,-0.39941245317459106,-0.030815627425909042,-0.11061753332614899
1740773079961890800,4.690890869140625,-0.398411363363266,-0.012365248054265976,-0.11322024464607239
1740773079971958800,4.700958740234375,-0.3943919241428375,0.022501694038510323,-0.10745604336261749
1740773079982028000,4.711028076171875,-0.37476202845573425,0.07853034138679504,-0.10133317112922668
1740773079992096000,4.721095947265625,-0.3429436981678009,0.13178221881389618,-0.09760509431362152
1740773080002165000,4.7311650390625,-0.3037259876728058,0.18551602959632874,-0.09963682293891907
1740773080012234000,4.74123388671875,-0.2682957053184509,0.22232674062252045,-0.10733772814273834
1740773080022302000,4.751302001953125,-0.23575082421302795,0.22601203620433807,-0.11619009077548981
1740773080032371000,4.761370849609375,-0.20649729669094086,0.19274891912937164,-0.12045519053936005
1740773080042440000,4.77143994140625,-0.18371422588825226,0.12614911794662476,-0.1218498945236206
1740773080052508000,4.7815078125,-0.16966696083545685,0.03085123561322689,-0.1162562146782875
1740773080062577000,4.791576904296875,-0.16153553128242493,-0.07621289789676666,-0.11285162717103958
1740773080072646000,4.80164599609375,-0.15398922562599182,-0.17137938737869263,-0.11927218735218048
1740773080082714000,4.811714111328125,-0.14315922558307648,-0.24418088793754578,-0.14035509526729584
1740773080092782800,4.821782958984375,-0.12572285532951355,-0.28711119294166565,-0.1711856871843338
1740773080102850800,4.831850830078125,-0.1187799870967865,-0.3055535852909088,-0.19259963929653168
1740773080112920000,4.841920166015625,-0.11125451326370239,-0.31681233644485474,-0.20826563239097595
1740773080122989000,4.851989013671875,-0.09927747398614883,-0.30560919642448425,-0.21235810220241547
1740773080133056800,4.862056884765625,-0.10979662835597992,-0.2621927559375763,-0.19092386960983276
1740773080143126000,4.8721259765625,-0.11261318624019623,-0.19818927347660065,-0.15062464773654938
1740773080153195000,4.882195068359375,-0.11007760465145111,-0.1319318413734436,-0.10020654648542404
1740773080163263000,4.892262939453125,-0.10980383306741714,-0.06744073331356049,-0.05674055963754654
1740773080173332000,4.90233203125,-0.10732085257768631,-0.011618334800004959,-0.03064163774251938
1740773080183401000,4.91240087890625,-0.09964589029550552,0.027506165206432343,-0.031109288334846497
1740773080193469000,4.922468994140625,-0.0897064134478569,0.05043398588895798,-0.05036992207169533
1740773080203538000,4.932537841796875,-0.07484491169452667,0.05100523307919502,-0.07728809118270874
1740773080213606000,4.94260595703125,-0.05330505222082138,0.041122641414403915,-0.10732445120811462
1740773080223675100,4.952675048828125,-0.032692983746528625,0.030764272436499596,-0.1273394376039505
1740773080233744000,4.962743896484375,-0.016081927344202995,0.028819488361477852,-0.13355150818824768
1740773080243812000,4.97281201171875,-0.004187717568129301,0.024315815418958664,-0.12410767376422882
1740773080253881000,4.982881103515625,0.011590703390538692,0.02434646524488926,-0.09824765473604202
1740773080263949800,4.99294970703125,0.023051615804433823,0.03678422421216965,-0.06833263486623764
1740773080274018000,5.00301806640625,0.032212670892477036,0.050724148750305176,-0.03271321952342987
1740773080284087000,5.013087158203125,0.041180599480867386,0.06102072820067406,-0.0021041780710220337
1740773080294156000,5.023156005859375,0.04827228561043739,0.0686633288860321,0.019193220883607864
1740773080304224000,5.03322412109375,0.05271656811237335,0.10354620963335037,0.047712747007608414
1740773080314293000,5.04329296875,0.05924477055668831,0.10497403889894485,0.06250973790884018
1740773080324361000,5.05336083984375,0.07755133509635925,0.09976410120725632,0.0530022569000721
1740773080334430000,5.063429931640625,0.09123825281858444,0.09507481753826141,0.020299796015024185
1740773080344499000,5.0734990234375,0.09739761054515839,0.07564146816730499,-0.0187181755900383
1740773080354567200,5.083567138671875,0.09616778045892715,0.06444753706455231,-0.04767990857362747
1740773080364636000,5.093635986328125,0.10124855488538742,0.043667688965797424,-0.04630598425865173
1740773080374705200,5.103705078125,0.1067904531955719,0.011029969900846481,-0.03518539294600487
1740773080384773000,5.113773193359375,0.10199064016342163,-0.025469452142715454,-0.014629519544541836
1740773080394841900,5.123841796875,0.08976374566555023,-0.06253981590270996,0.0050228191539645195
1740773080404911000,5.1339111328125,0.07705061137676239,-0.07834354043006897,0.02755449339747429
1740773080414979000,5.14397900390625,0.07185758650302887,-0.060237523168325424,0.05495460331439972
1740773080425047800,5.1540478515625,0.07325521111488342,-0.00418890081346035,0.08497322350740433
1740773080435116000,5.164115966796875,0.08400924503803253,0.07336034625768661,0.13086995482444763
1740773080445185000,5.17418505859375,0.09775381535291672,0.16347478330135345,0.18164098262786865
1740773080455254000,5.18425390625,0.10766646265983582,0.25462186336517334,0.23528771102428436
1740773080465322000,5.194322021484375,0.12415729463100433,0.33650580048561096,0.27640265226364136
1740773080475391000,5.204390869140625,0.18001386523246765,0.40531858801841736,0.2837391793727875
1740773080485460000,5.2144599609375,0.22405989468097687,0.4646413028240204,0.23508134484291077
1740773080495528000,5.22452783203125,0.23263292014598846,0.5173348188400269,0.16930323839187622
1740773080505597000,5.234596923828125,0.22583626210689545,0.493560791015625,0.10913284868001938
1740773080515666000,5.244666015625,0.24940261244773865,0.4407636225223541,0.03421655297279358
1740773080525734000,5.25473388671875,0.2763628363609314,0.37708985805511475,-0.06890716403722763
1740773080535803100,5.26480322265625,0.27474433183670044,0.27621355652809143,-0.16299381852149963
1740773080545871000,5.27487109375,0.2605595290660858,0.20180697739124298,-0.23804275691509247
1740773080555939800,5.28493994140625,0.23879997432231903,0.14220452308654785,-0.2690679430961609
1740773080566009000,5.295009033203125,0.22102683782577515,0.06738035380840302,-0.22793062031269073
1740773080576077000,5.3050771484375,0.21035660803318024,-0.004859861917793751,-0.11731245368719101
1740773080586145800,5.315145751953125,0.2038600891828537,-0.07925047725439072,0.023525094613432884
1740773080596215000,5.325215087890625,0.20481571555137634,-0.1355326771736145,0.16146604716777802
1740773080606283000,5.335282958984375,0.2047981321811676,-0.16141220927238464,0.26908227801322937
1740773080616352000,5.34535205078125,0.19516421854496002,-0.171186164021492,0.36323440074920654
1740773080626420000,5.355419921875,0.1836678832769394,-0.1688401848077774,0.4499194920063019
1740773080636489000,5.365489013671875,0.17331881821155548,-0.16625438630580902,0.5398603081703186
1740773080646558000,5.375557861328125,0.15012694895267487,-0.1595967411994934,0.628064751625061
1740773080656626000,5.3856259765625,0.13846787810325623,-0.12737369537353516,0.6670176386833191
1740773080666695000,5.39569482421875,0.12320902943611145,-0.0823148712515831,0.6530637145042419
1740773080676764000,5.405763916015625,0.08932628482580185,-0.03368756175041199,0.599329948425293
1740773080686831900,5.415831787109375,0.0549672469496727,0.03001285344362259,0.5075563788414001
1740773080696901000,5.425901123046875,0.03891327604651451,0.09535565227270126,0.39108172059059143
1740773080706969900,5.435969970703125,0.04937790334224701,0.159921333193779,0.25855910778045654
1740773080717037800,5.446037841796875,0.0750950500369072,0.2299555391073227,0.11829179525375366
1740773080727107000,5.456107177734375,0.10150987654924393,0.2825108766555786,-0.019617602229118347
1740773080737175000,5.466175048828125,0.13168704509735107,0.2977792024612427,-0.15301355719566345
1740773080747243800,5.476243896484375,0.16795237362384796,0.28780806064605713,-0.26122844219207764
1740773080757313000,5.48631298828125,0.2100811004638672,0.26851916313171387,-0.3450731337070465
1740773080767381000,5.496381103515625,0.24562551081180573,0.2494109570980072,-0.40113958716392517
1740773080777450000,5.506449951171875,0.274322509765625,0.21767744421958923,-0.422976016998291
1740773080787519000,5.51651904296875,0.2963135540485382,0.17887838184833527,-0.3995814919471741
1740773080797587000,5.5265869140625,0.3146046996116638,0.12721757590770721,-0.33545994758605957
1740773080807656000,5.536656005859375,0.33017298579216003,0.08025218546390533,-0.22959691286087036
1740773080817724000,5.546723876953125,0.33542317152023315,0.05109832435846329,-0.11169429123401642
1740773080827793000,5.55679296875,0.3230823576450348,0.03229480981826782,-0.0025299955159425735
1740773080837862000,5.56686181640625,0.2935086786746979,0.0034559606574475765,0.074041947722435
1740773080847929900,5.576929931640625,0.24008244276046753,-0.039249956607818604,0.11619046330451965
1740773080857999000,5.5869990234375,0.18084967136383057,-0.10565734654664993,0.12569881975650787
1740773080868068000,5.597068115234375,0.11317741870880127,-0.16360719501972198,0.1101909726858139
1740773080878135800,5.6071357421875,0.05451144650578499,-0.21571312844753265,0.08098520338535309
1740773080888205000,5.617205078125,-0.006626211106777191,-0.25671836733818054,0.051543161273002625
1740773080898274000,5.627274169921875,-0.05891472101211548,-0.28495892882347107,0.026741351932287216
1740773080908341800,5.637341796875,-0.09042657166719437,-0.2963375747203827,-0.00522004347294569
1740773080918411000,5.647410888671875,-0.10656800866127014,-0.2953738868236542,-0.05106757581233978
1740773080928479700,5.657479736328125,-0.10915766656398773,-0.27707210183143616,-0.12312259525060654
1740773080938548500,5.667548583984375,-0.09996657818555832,-0.21338194608688354,-0.19253750145435333
1740773080948617700,5.67761767578125,-0.08127091825008392,-0.14890415966510773,-0.25593140721321106
1740773080958685700,5.687685791015625,-0.04514545202255249,-0.0675634816288948,-0.3070053458213806
1740773080968754400,5.69775439453125,-0.00624226126819849,0.0022899056784808636,-0.3327346742153168
1740773080978823700,5.70782373046875,0.028575293719768524,0.05864667147397995,-0.3296617865562439
1740773080988891600,5.7178916015625,0.06262966990470886,0.08838112652301788,-0.31079035997390747
1740773080998960600,5.727960693359375,0.08276397734880447,0.0814044252038002,-0.2813314199447632
1740773081009028600,5.738028564453125,0.10512068122625351,0.0553366094827652,-0.25495707988739014
1740773081019097600,5.74809765625,0.12244091928005219,0.03495675325393677,-0.23534302413463593
1740773081029166600,5.75816650390625,0.1344536542892456,0.015070930123329163,-0.20850101113319397
1740773081039234600,5.768234619140625,0.1413448452949524,-0.01376497931778431,-0.1880442053079605
1740773081049303600,5.778303466796875,0.1501748263835907,-0.046549826860427856,-0.17136110365390778
1740773081059372500,5.78837255859375,0.13680921494960785,-0.06889624893665314,-0.156455859541893
1740773081069440500,5.7984404296875,0.10897465795278549,-0.08083493262529373,-0.1363961398601532
1740773081079509800,5.808509765625,0.08089166134595871,-0.09781739860773087,-0.11765296757221222
1740773081089578800,5.818578857421875,0.0422087199985981,-0.1054055467247963,-0.10551135241985321
1740773081099646500,5.828646484375,0.006348130758851767,-0.1035800650715828,-0.11166509985923767
1740773081109715700,5.8387158203125,-0.029555276036262512,-0.08745089173316956,-0.12779267132282257
1740773081119783700,5.84878369140625,-0.06523839384317398,-0.06198401749134064,-0.15195882320404053
1740773081129852400,5.858852294921875,-0.0969017818570137,-0.05197133123874664,-0.17946529388427734
1740773081139921700,5.868921630859375,-0.12319986522197723,-0.05254283547401428,-0.19970497488975525
1740773081149989600,5.87898974609375,-0.14098046720027924,-0.061835404485464096,-0.21291212737560272
1740773081160058600,5.88905859375,-0.15012024343013763,-0.05797582119703293,-0.23239466547966003
1740773081170127600,5.899127685546875,-0.1521463841199875,-0.04431966319680214,-0.2556754946708679
1740773081180195600,5.909195556640625,-0.14821858704090118,-0.010319763794541359,-0.2806471288204193
1740773081190264600,5.9192646484375,-0.1388663649559021,0.04177672788500786,-0.30475670099258423
1740773081200332500,5.92933251953125,-0.12747015058994293,0.1008383110165596,-0.3273273706436157
1740773081210401500,5.939401611328125,-0.11761485785245895,0.1452409327030182,-0.34206506609916687
1740773081220470800,5.949470703125,-0.11177781969308853,0.16784490644931793,-0.3486666679382324
1740773081230538500,5.95953857421875,-0.11168114840984344,0.147687166929245,-0.33863720297813416
1740773081240607700,5.969607666015625,-0.10906725376844406,0.10657808929681778,-0.3219258785247803
1740773081250676700,5.9796767578125,-0.11327452212572098,0.07141104340553284,-0.2890496850013733
1740773081260744400,5.989744384765625,-0.12571127712726593,0.0311918742954731,-0.24796509742736816
1740773081270813700,5.999813720703125,-0.13781960308551788,-0.007938220165669918,-0.19241847097873688
1740773081280881700,6.009881591796875,-0.1509162187576294,-0.05688714236021042,-0.12616106867790222
1740773081290950700,6.01995068359375,-0.1684749722480774,-0.10661155730485916,-0.05290176719427109
1740773081301019600,6.03001953125,-0.1876288503408432,-0.16170449554920197,0.011881434358656406
1740773081311087600,6.040087646484375,-0.20764276385307312,-0.20656970143318176,0.05706329643726349
1740773081321156900,6.050156982421875,-0.23146893084049225,-0.2344837486743927,0.09725431352853775
1740773081331225600,6.0602255859375,-0.2465304285287857,-0.2524190843105316,0.14298345148563385
1740773081341293600,6.07029345703125,-0.2476339340209961,-0.2534388303756714,0.18990617990493774
1740773081351362800,6.08036279296875,-0.24638225138187408,-0.24333159625530243,0.213795006275177
1740773081361431600,6.090431640625,-0.2510114014148712,-0.2424272894859314,0.2213820517063141
1740773081371499500,6.10049951171875,-0.24658681452274323,-0.24728436768054962,0.21110756695270538
1740773081381568800,6.11056884765625,-0.23384346067905426,-0.2481340616941452,0.13494838774204254
1740773081391636700,6.12063671875,-0.22177161276340485,-0.2935558557510376,0.0028976723551750183
1740773081401705700,6.130705810546875,-0.20470526814460754,-0.37349289655685425,-0.1498456597328186
1740773081411774700,6.140774658203125,-0.18221060931682587,-0.4299828112125397,-0.2863054871559143
1740773081421842700,6.1508427734375,-0.1566219925880432,-0.4150637984275818,-0.3526723384857178
1740773081431911700,6.16091162109375,-0.15769177675247192,-0.33770403265953064,-0.3392585217952728
1740773081441980700,6.170980712890625,-0.16866044700145721,-0.19697460532188416,-0.2364969253540039
1740773081452048600,6.181048583984375,-0.17175184190273285,-0.04737098887562752,-0.07866522669792175
1740773081462117600,6.19111767578125,-0.18007545173168182,0.06841833889484406,0.09596192091703415
1740773081472185600,6.201185546875,-0.18181635439395905,0.16799259185791016,0.24784280359745026
1740773081482254800,6.2112548828125,-0.18476687371730804,0.24160076677799225,0.3509305715560913
1740773081492323600,6.221323486328125,-0.20350807905197144,0.3001463711261749,0.42083561420440674
1740773081502391600,6.2313916015625,-0.2330176681280136,0.3309897780418396,0.5029897093772888
1740773081512460800,6.241460693359375,-0.25628572702407837,0.2983434200286865,0.5975644588470459
1740773081522529500,6.251529541015625,-0.2671208679676056,0.20052216947078705,0.696113646030426
1740773081532597500,6.261597412109375,-0.27831757068634033,0.03297126293182373,0.7332309484481812
1740773081542666800,6.271666748046875,-0.2994203269481659,-0.04755288362503052,0.7534930109977722
1740773081552734700,6.281734619140625,-0.3343902826309204,-0.13072367012500763,0.7265322208404541
1740773081562803700,6.2918037109375,-0.34272500872612,-0.1891113519668579,0.6371372938156128
1740773081572872700,6.301872802734375,-0.32960760593414307,-0.2185209095478058,0.47194141149520874
1740773081582940700,6.311940673828125,-0.3356844186782837,-0.1920272558927536,0.28472304344177246
1740773081593009700,6.322009765625,-0.3627074956893921,-0.13058705627918243,0.10356204211711884
1740773081603078700,6.33207861328125,-0.38938719034194946,-0.0693584606051445,-0.044033221900463104
1740773081613146600,6.342146728515625,-0.4254743456840515,-0.0471719354391098,-0.14832927286624908
1740773081623215600,6.352215576171875,-0.4626384973526001,-0.07606320083141327,-0.21450074017047882
1740773081633283600,6.36228369140625,-0.4725707769393921,-0.10721073299646378,-0.24417981505393982
1740773081643352800,6.372352783203125,-0.46120643615722656,-0.1115088164806366,-0.25026580691337585
1740773081653421600,6.382421630859375,-0.4429347515106201,-0.04432632029056549,-0.22167089581489563
1740773081663489500,6.392489501953125,-0.42797231674194336,0.07301775366067886,-0.1418406367301941
1740773081673558800,6.402558837890625,-0.4064452052116394,0.14660115540027618,-0.08042868226766586
1740773081683627500,6.41262744140625,-0.37060803174972534,0.23498812317848206,-0.024907108396291733
1740773081693695500,6.422695556640625,-0.34422463178634644,0.30104491114616394,0.013875176198780537
1740773081703764700,6.4327646484375,-0.3105998933315277,0.3171140253543854,0.03987696021795273
1740773081713832700,6.442832763671875,-0.26392319798469543,0.31003135442733765,0.0456850491464138
1740773081723901700,6.452901611328125,-0.23186415433883667,0.2767508924007416,0.03869311884045601
1740773081733970700,6.462970703125,-0.19838209450244904,0.20210328698158264,0.03532635420560837
1740773081744038700,6.47303857421875,-0.16061687469482422,0.11693087220191956,0.015043716877698898
1740773081754107600,6.483107666015625,-0.10842930525541306,0.04173332080245018,-0.007317248731851578
1740773081764176600,6.4931767578125,-0.06171296164393425,-0.02415914461016655,-0.029365848749876022
1740773081774244600,6.50324462890625,-0.00044800667092204094,-0.05109888315200806,-0.044051848351955414
1740773081784313600,6.513313720703125,0.037685152143239975,-0.04497002810239792,-0.05206311494112015
1740773081794382600,6.523382568359375,0.07469456642866135,-0.005443655885756016,-0.04901698976755142
1740773081804450800,6.533450927734375,0.09412366151809692,0.019513780251145363,-0.04573379084467888
1740773081814519600,6.54351953125,0.10650309920310974,0.024926921352744102,-0.039580024778842926
1740773081824587500,6.55358740234375,0.11293792724609375,0.0000949278473854065,-0.04850266873836517
1740773081834656800,6.56365673828125,0.1238132119178772,-0.030306121334433556,-0.04829494655132294
1740773081844725500,6.5737255859375,0.10071107000112534,-0.0376611053943634,-0.030100105330348015
1740773081854793500,6.58379345703125,0.08136454224586487,-0.031899359077215195,-0.002891652286052704
1740773081864862700,6.59386279296875,0.07012978941202164,-0.00829362589865923,0.03310820460319519
1740773081874931500,6.603931396484375,0.06739232689142227,0.008829700760543346,0.06964730471372604
1740773081884999700,6.613999755859375,0.07562296092510223,0.016882291063666344,0.0897199958562851
1740773081895068700,6.624068603515625,0.08839788287878036,0.015851113945245743,0.06551159173250198
1740773081905136600,6.63413671875,0.10114000737667084,0.014028755947947502,0.014763012528419495
1740773081915205600,6.64420556640625,0.10535472631454468,-0.003092441475018859,-0.04165072739124298
1740773081925274600,6.654274658203125,0.11735828220844269,-0.013707831501960754,-0.09334321320056915
1740773081935342600,6.664342529296875,0.1363423615694046,-0.0037808993365615606,-0.1174061968922615
1740773081945411600,6.67441162109375,0.1561833918094635,0.016311580315232277,-0.12074585258960724
1740773081955480600,6.68448046875,0.1765986531972885,0.042970091104507446,-0.10718610137701035
1740773081965548500,6.694548583984375,0.19551722705364227,0.07323571294546127,-0.09401635825634003
1740773081975617500,6.704617431640625,0.2114972621202469,0.09948515892028809,-0.08986928313970566
1740773081985685500,6.714685546875,0.2319541722536087,0.1302296370267868,-0.10491859167814255
1740773081995754500,6.72475439453125,0.24666225910186768,0.16833733022212982,-0.13723260164260864
1740773082005823500,6.734823486328125,0.25357019901275635,0.1973736435174942,-0.16537253558635712
1740773082015891500,6.744891357421875,0.2658308446407318,0.21026493608951569,-0.1840231865644455
1740773082025960700,6.754960693359375,0.27440667152404785,0.22412456572055817,-0.17581777274608612
1740773082036029700,6.76502978515625,0.27751296758651733,0.23910723626613617,-0.14225928485393524
1740773082046097400,6.775097412109375,0.27787914872169495,0.27348893880844116,-0.08890855312347412
1740773082056166700,6.785166748046875,0.27066436409950256,0.29248207807540894,-0.015634067356586456
1740773082066234600,6.795234619140625,0.26512575149536133,0.2758733928203583,0.049903977662324905
1740773082076303400,6.805303466796875,0.26325568556785583,0.22044637799263,0.11135615408420563
1740773082086372600,6.81537255859375,0.2670285105705261,0.1483156830072403,0.14446884393692017
1740773082096440600,6.825440673828125,0.2616276144981384,0.08248235285282135,0.15025269985198975
1740773082106509600,6.835509521484375,0.2551017105579376,0.03232703357934952,0.1366601139307022
1740773082116578600,6.84557861328125,0.2585925757884979,0.008372431620955467,0.11952054500579834
1740773082126646500,6.855646484375,0.2733687162399292,0.0009531411342322826,0.1280669867992401
1740773082136715800,6.8657158203125,0.29031866788864136,0.03741741180419922,0.14408642053604126
1740773082146783500,6.875783447265625,0.30188870429992676,0.12128167599439621,0.11583264172077179
1740773082156852500,6.8858525390625,0.32127732038497925,0.22711941599845886,0.035431280732154846
1740773082166921700,6.895921630859375,0.3105024993419647,0.3020802140235901,-0.0935325175523758
1740773082176989400,6.905989501953125,0.3076164424419403,0.371351957321167,-0.28098443150520325
1740773082187058700,6.91605859375,0.28181764483451843,0.41028815507888794,-0.4517795145511627
1740773082197127700,6.926127685546875,0.2740556001663208,0.36856362223625183,-0.553641676902771
1740773082207195600,6.936195556640625,0.2766028642654419,0.3071957528591156,-0.6002861261367798
1740773082217264600,6.9462646484375,0.2783818542957306,0.26677271723747253,-0.5781621932983398
1740773082227332600,6.95633251953125,0.28659871220588684,0.2291945517063141,-0.5039650797843933
1740773082237401600,6.966401611328125,0.3353324234485626,0.1964762955904007,-0.3859465718269348
1740773082247470600,6.976470703125,0.35139888525009155,0.16214869916439056,-0.2283741533756256
1740773082257538600,6.98653857421875,0.33232107758522034,0.13078013062477112,-0.03528059646487236
1740773082267607800,6.99660791015625,0.40071868896484375,0.06544755399227142,0.17686642706394196
1740773082277676500,7.006676513671875,0.3217732608318329,-0.008470077067613602,0.3999197483062744
1740773082287744500,7.01674462890625,0.20987680554389954,-0.032763123512268066,0.5944483280181885
1740773082297813800,7.026813720703125,0.18044513463974,-0.11767828464508057,0.7755693793296814
1740773082307881500,7.036881591796875,0.1719246655702591,-0.24675223231315613,0.9159207940101624
1740773082317950500,7.046950439453125,0.15891459584236145,-0.3375258445739746,0.9955223798751831
1740773082328019700,7.057019775390625,0.13599497079849243,-0.3531727194786072,1.014090895652771
1740773082338087700,7.067087646484375,0.11132478713989258,-0.2897178530693054,0.9891335964202881
1740773082348156700,7.07715673828125,0.08502202481031418,-0.17534862458705902,0.9075853824615479
1740773082358225700,7.0872255859375,0.0961790680885315,-0.058528538793325424,0.7546032667160034
1740773082368293600,7.097293701171875,0.13530436158180237,0.019360247999429703,0.527061939239502
1740773082378362600,7.107362548828125,0.18331663310527802,0.03819279372692108,0.25547465682029724
1740773082388430600,7.1174306640625,0.23915192484855652,0.03832448646426201,-0.038915589451789856
1740773082398499600,7.12749951171875,0.29218822717666626,0.06167561560869217,-0.3184060752391815
1740773082408568600,7.137568603515625,0.34742745757102966,0.0998469665646553,-0.5437631011009216
1740773082418636500,7.147636474609375,0.4099177420139313,0.10958907008171082,-0.6639291644096375
1740773082428705800,7.157705810546875,0.486264705657959,0.09691855311393738,-0.6697710752487183
1740773082438774500,7.1677744140625,0.5537566542625427,0.09202685952186584,-0.5800204277038574
1740773082448842500,7.177842529296875,0.5848625302314758,0.07456742972135544,-0.4096421003341675
1740773082458911700,7.187911865234375,0.5878103971481323,-0.000992308370769024,-0.18498767912387848
1740773082468979700,7.197979736328125,0.5761786699295044,-0.13355621695518494,0.03511076793074608
1740773082479048400,7.20804833984375,0.5526083707809448,-0.2715170085430145,0.21226583421230316
1740773082489117700,7.21811767578125,0.5197826027870178,-0.3763110637664795,0.3270818889141083
1740773082499185700,7.228185546875,0.4561532735824585,-0.46067413687705994,0.39170053601264954
1740773082509254700,7.238254638671875,0.39216339588165283,-0.513796865940094,0.4046604335308075
1740773082519323600,7.24832373046875,0.3194945156574249,-0.5482437610626221,0.3816587030887604
1740773082529391600,7.2583916015625,0.23911519348621368,-0.5668980479240417,0.33045288920402527
1740773082539460600,7.268460693359375,0.16027231514453888,-0.5437725186347961,0.2571997344493866
1740773082549528600,7.278528564453125,0.09238085895776749,-0.5022199749946594,0.1657848358154297
1740773082559597600,7.28859765625,0.033402759581804276,-0.46606916189193726,0.05648709833621979
1740773082569666600,7.29866650390625,-0.018654126673936844,-0.44228699803352356,-0.056152552366256714
1740773082579734500,7.308734619140625,-0.05806545168161392,-0.40051451325416565,-0.16209469735622406
1740773082589803800,7.3188037109375,-0.08428997546434402,-0.3454248905181885,-0.2545076012611389
1740773082599872500,7.32887255859375,-0.10004523396492004,-0.27414271235466003,-0.3134705424308777
1740773082609940500,7.3389404296875,-0.10245834290981293,-0.19950367510318756,-0.32938283681869507
1740773082620009700,7.349009765625,-0.08671985566616058,-0.09922793507575989,-0.3257732093334198
1740773082630077700,7.35907763671875,-0.07066494226455688,-0.0009577982127666473,-0.290780633687973
1740773082640146400,7.369146484375,-0.05096421018242836,0.08966823667287827,-0.21555806696414948
1740773082650215700,7.379215576171875,-0.028006985783576965,0.17986953258514404,-0.1219286099076271
1740773082660283600,7.38928369140625,-0.0012584635987877846,0.24399924278259277,-0.022855281829833984
1740773082670352600,7.3993525390625,0.020390426740050316,0.28375914692878723,0.042715854942798615
1740773082680421600,7.409421630859375,0.029949309304356575,0.29780998826026917,0.0658334270119667
1740773082690489600,7.419489501953125,0.017545845359563828,0.2758462131023407,0.04809321090579033
1740773082700558600,7.42955859375,-0.004863324109464884,0.22587065398693085,0.011404972523450851
1740773082710626600,7.43962646484375,-0.02607967145740986,0.17237791419029236,-0.02824140340089798
1740773082720695600,7.449695556640625,-0.052538178861141205,0.11902415752410889,-0.04866944998502731
1740773082730764500,7.4597646484375,-0.08491042256355286,0.08655591309070587,-0.044910185039043427
1740773082740832500,7.46983251953125,-0.10515311360359192,0.07363958656787872,-0.013846276327967644
1740773082750901800,7.47990185546875,-0.11799586564302444,0.07920920103788376,0.028021732345223427
1740773082760969700,7.4899697265625,-0.1195940300822258,0.09757515788078308,0.06977929919958115
1740773082771038500,7.50003857421875,-0.12183459103107452,0.1028190478682518,0.09974315762519836
1740773082781107700,7.510107666015625,-0.12293288111686707,0.09927864372730255,0.10011493414640427
1740773082791175700,7.52017578125,-0.11661364883184433,0.08270992338657379,0.0724097266793251
1740773082801244400,7.530244384765625,-0.10976453125476837,0.057045042514801025,0.027447311207652092
1740773082811313700,7.540313720703125,-0.09983830899000168,0.022686276584863663,-0.02169780060648918
1740773082821381600,7.550381591796875,-0.09757515043020248,-0.004729103296995163,-0.057465650141239166
1740773082831450600,7.56045068359375,-0.09488852322101593,-0.02363370545208454,-0.08089403808116913
1740773082841518600,7.5705185546875,-0.09302990138530731,-0.043515000492334366,-0.0789715051651001
1740773082851587600,7.580587646484375,-0.10366606712341309,-0.08070418983697891,-0.046523306518793106
1740773082861656600,7.590656494140625,-0.12289942055940628,-0.12261781096458435,0.0017664600163698196
1740773082871724500,7.600724609375,-0.14178478717803955,-0.1773471087217331,0.05093127489089966
1740773082881793500,7.61079345703125,-0.15961173176765442,-0.21926607191562653,0.08831194043159485
1740773082891862500,7.620862548828125,-0.17576642334461212,-0.22329288721084595,0.12664848566055298
1740773082901930500,7.630930419921875,-0.20193970203399658,-0.2291925847530365,0.1490882784128189
1740773082911999700,7.640999755859375,-0.22238613665103912,-0.24479441344738007,0.16272303462028503
1740773082922067700,7.651067626953125,-0.22843152284622192,-0.27384284138679504,0.17818935215473175
1740773082932136700,7.66113671875,-0.22611968219280243,-0.277169406414032,0.22076046466827393
1740773082942205700,7.671205810546875,-0.23541784286499023,-0.327418714761734,0.258527010679245
1740773082952273700,7.681273681640625,-0.22386585175991058,-0.3978673219680786,0.2406468242406845
1740773082962342700,7.6913427734375,-0.2083718478679657,-0.4356147050857544,0.15542779862880707
1740773082972411600,7.70141162109375,-0.19345664978027344,-0.482709676027298,0.027074147015810013
1740773082982480000,7.71147998046875,-0.18361413478851318,-0.4672638773918152,-0.09961935132741928
1740773082992548600,7.721548583984375,-0.17756761610507965,-0.44799014925956726,-0.23444347083568573
1740773083002616600,7.731616455078125,-0.14479048550128937,-0.3744773268699646,-0.3553149998188019
1740773083012685800,7.741685791015625,-0.12024223804473877,-0.29632753133773804,-0.41887661814689636
1740773083022754600,7.751754638671875,-0.15446706116199493,-0.22540141642093658,-0.36332201957702637
1740773083032822500,7.761822509765625,-0.22306868433952332,-0.12175583839416504,-0.17008046805858612
1740773083042891800,7.771891845703125,-0.29860737919807434,0.04450929909944534,0.13770559430122375
1740773083052960500,7.78196044921875,-0.3454034924507141,0.23561424016952515,0.4972168803215027
1740773083063028700,7.79202880859375,-0.33634263277053833,0.3817959725856781,0.8163633942604065
1740773083073097700,7.80209765625,-0.32872822880744934,0.4763372242450714,1.0415990352630615
1740773083083165700,7.812165771484375,-0.3420986235141754,0.5583426356315613,1.1544976234436035
1740773083093234700,7.822234619140625,-0.3407857418060303,0.5972470641136169,1.1376711130142212
1740773083103303700,7.8323037109375,-0.33468177914619446,0.6140574812889099,1.0326794385910034
1740773083113371600,7.84237158203125,-0.295194149017334,0.516545832157135,0.8660443425178528
1740773083123440600,7.852440673828125,-0.2501835525035858,0.3520357012748718,0.6492582559585571
1740773083133509600,7.862509521484375,-0.18452893197536469,0.18535734713077545,0.39266252517700195
1740773083143577900,7.872577880859375,-0.1127048209309578,0.03532949835062027,0.13395239412784576
1740773083153646600,7.882646484375,-0.07259310781955719,-0.04709158465266228,-0.10220111906528473
1740773083163714600,7.892714599609375,-0.04173187166452408,-0.05404350161552429,-0.2985570430755615
1740773083173783800,7.90278369140625,-0.007937177084386349,-0.029556691646575928,-0.4309878647327423
1740773083183852800,7.912852783203125,0.02777474746108055,-0.022126471623778343,-0.47350364923477173
1740773083193920500,7.92292041015625,0.05969757214188576,-0.05388148874044418,-0.40260109305381775
1740773083203989800,7.93298974609375,0.09463611990213394,-0.05747915431857109,-0.25344809889793396
1740773083214057700,7.9430576171875,0.12991634011268616,0.02819158509373665,-0.06706003099679947
1740773083224126700,7.953126708984375,0.17041155695915222,0.1551082581281662,0.10382542759180069
1740773083234195700,7.96319580078125,0.20241284370422363,0.26827272772789,0.19711346924304962
1740773083244263700,7.973263671875,0.2238616794347763,0.333205908536911,0.2055399864912033
1740773083254332700,7.983332763671875,0.2273758500814438,0.33624058961868286,0.1281651258468628
1740773083264401700,7.993401611328125,0.21711468696594238,0.29595229029655457,0.002885761670768261
1740773083274469600,8.0034697265625,0.20943157374858856,0.2301439791917801,-0.14867617189884186
1740773083284538600,8.01353857421875,0.20244397222995758,0.14462321996688843,-0.30762481689453125
1740773083294606600,8.023606689453125,0.206551194190979,0.038390401750802994,-0.45075806975364685
1740773083304675800,8.03367578125,0.2095714807510376,-0.07045379281044006,-0.5525227785110474
1740773083314744800,8.043744873046874,0.21661406755447388,-0.15320926904678345,-0.6065172553062439
1740773083324812500,8.0538125,0.24373649060726166,-0.19669683277606964,-0.6054815649986267
1740773083334881800,8.0638818359375,0.26706206798553467,-0.21347936987876892,-0.5612645149230957
1740773083344950800,8.07395068359375,0.303387314081192,-0.17152419686317444,-0.4844205975532532
1740773083355018500,8.0840185546875,0.3400091826915741,-0.09850818663835526,-0.40261486172676086
1740773083365087700,8.094087646484375,0.3712267577648163,-0.06709033995866776,-0.3484560251235962
1740773083375155700,8.10415576171875,0.4010821580886841,-0.05839351937174797,-0.3429429829120636
1740773083385224700,8.114224609375,0.4163772165775299,-0.08140483498573303,-0.35967588424682617
1740773083395293700,8.124293701171876,0.42355358600616455,-0.11021038889884949,-0.39417344331741333
1740773083405361700,8.134361572265625,0.43565231561660767,-0.09818089008331299,-0.41101425886154175
1740773083415431000,8.144430908203125,0.43466293811798096,-0.08491861075162888,-0.39442431926727295
1740773083425498600,8.15449853515625,0.44852736592292786,-0.0707242339849472,-0.3648536801338196
1740773083435567600,8.164567626953126,0.4591870903968811,-0.05037393793463707,-0.3288278877735138
1740773083445636900,8.174636962890625,0.4687659442424774,-0.027827614918351173,-0.2930062413215637
1740773083455704600,8.18470458984375,0.4769737422466278,0.01023068092763424,-0.27185773849487305
1740773083465773800,8.19477392578125,0.4852585792541504,0.050468914210796356,-0.26718735694885254
1740773083475842800,8.2048427734375,0.49950242042541504,0.06992409378290176,-0.28089311718940735
1740773083485910500,8.21491064453125,0.511092483997345,0.07136885821819305,-0.3062370717525482
1740773083495979800,8.224979736328125,0.5211564898490906,0.06162501871585846,-0.33172479271888733
1740773083506047700,8.2350478515625,0.5298978090286255,0.05203710496425629,-0.3442451059818268
1740773083516116700,8.24511669921875,0.5425872802734375,0.05509057641029358,-0.33249783515930176
1740773083526185700,8.255185791015625,0.5612397789955139,0.0761234238743782,-0.2978415787220001
1740773083536253700,8.265253662109375,0.5736315846443176,0.09098385274410248,-0.25184008479118347
1740773083546323000,8.275322998046875,0.5821183323860168,0.1033816710114479,-0.19719041883945465
1740773083556391700,8.2853916015625,0.5817847847938538,0.08962467312812805,-0.14292596280574799
1740773083566459600,8.295459716796875,0.5787631869316101,0.06799821555614471,-0.10041205585002899
1740773083576529000,8.30552880859375,0.5739081501960754,0.05679670721292496,-0.06932111829519272
1740773083586596600,8.3155966796875,0.5637596249580383,0.04912520572543144,-0.06054094806313515
1740773083596665600,8.32566552734375,0.5509449243545532,0.06315208971500397,-0.05549494922161102
1740773083606734800,8.33573486328125,0.5279951691627502,0.08286160975694656,-0.0494421124458313
1740773083616802800,8.345802734375,0.5055108666419983,0.11260539293289185,-0.02453516609966755
1740773083626871800,8.355871826171875,0.4898945987224579,0.14064155519008636,0.022740468382835388
1740773083636939800,8.365939697265626,0.4822227358818054,0.17981280386447906,0.08377264440059662
1740773083647008800,8.3760087890625,0.4684845507144928,0.23251064121723175,0.13656874001026154
1740773083657077800,8.386077880859375,0.4540182054042816,0.2888151705265045,0.17434147000312805
1740773083667145700,8.396145751953124,0.44096285104751587,0.36006832122802734,0.18593287467956543
1740773083677214700,8.406214599609376,0.42729833722114563,0.42681390047073364,0.18868955969810486
1740773083687283700,8.41628369140625,0.41033080220222473,0.49139341711997986,0.19691713154315948
1740773083697351700,8.4263515625,0.40396425127983093,0.5427500009536743,0.2149566411972046
1740773083707421000,8.4364208984375,0.415020614862442,0.5755196213722229,0.22351710498332977
1740773083717488600,8.446488525390626,0.44541364908218384,0.6503118872642517,0.19676101207733154
1740773083727557600,8.4565576171875,0.4720814824104309,0.7938482761383057,0.12230037152767181
1740773083737627000,8.466626953125,0.5113426446914673,0.9750917553901672,-0.015067435801029205
1740773083747694800,8.47669482421875,0.5839231014251709,1.1465846300125122,-0.2039521336555481
1740773083757763600,8.486763671875,0.6494534611701965,1.2399992942810059,-0.39722591638565063
1740773083767832800,8.496832763671875,0.6864194869995117,1.2064712047576904,-0.569274365901947
1740773083777900800,8.50690087890625,0.69786536693573,1.0185019969940186,-0.6706002354621887
1740773083787969800,8.5169697265625,0.6820187568664551,0.739400327205658,-0.689481794834137
1740773083798037800,8.527037841796876,0.6286749243736267,0.4019220173358917,-0.6196004748344421
1740773083808106800,8.537106689453125,0.5625819563865662,0.019499022513628006,-0.44821831583976746
1740773083818175700,8.54717578125,0.4823739528656006,-0.34321925044059753,-0.21657417714595795
1740773083828243700,8.55724365234375,0.3824883699417114,-0.6235979199409485,0.02861880511045456
1740773083838312700,8.567312744140626,0.29883137345314026,-0.8041828870773315,0.26970505714416504
1740773083848381000,8.577380859375,0.2275095283985138,-0.8901960849761963,0.47885215282440186
1740773083858449700,8.58744970703125,0.149690642952919,-0.8936826586723328,0.6575069427490234
1740773083868519000,8.597518798828125,0.09207608550786972,-0.8398599624633789,0.780762791633606
1740773083878587000,8.6075869140625,0.06295982003211975,-0.7314610481262207,0.8534654974937439
1740773083888655600,8.617655517578125,0.04543009027838707,-0.5810472965240479,0.8722924590110779
1740773083898724900,8.627724853515625,0.0447552464902401,-0.40107056498527527,0.8313144445419312
1740773083908792800,8.637792724609374,0.04393339529633522,-0.1847981959581375,0.733681857585907
1740773083918861600,8.647861572265626,0.03859565034508705,0.04834211990237236,0.5866439342498779
1740773083928929000,8.657928955078125,0.03337186202406883,0.2519961893558502,0.40420037508010864
1740773083938998000,8.667998046875,0.04187954217195511,0.3786082863807678,0.19576877355575562
1740773083949066800,8.678066650390624,0.05853894725441933,0.4269678294658661,-0.021026913076639175
1740773083959135000,8.688135009765626,0.08470673859119415,0.4196949005126953,-0.23810069262981415
1740773083969204000,8.698203857421875,0.11233597248792648,0.3967205882072449,-0.42798301577568054
1740773083979273000,8.70827294921875,0.13920770585536957,0.33798423409461975,-0.5598015785217285
1740773083989341000,8.7183408203125,0.1689285784959793,0.2529233992099762,-0.6074234247207642
1740773083999410000,8.728409912109376,0.18820500373840332,0.14877952635288239,-0.5604222416877747
1740773084009478100,8.73847802734375,0.21314577758312225,0.032573021948337555,-0.4204513430595398
1740773084019547000,8.748546875,0.23283261060714722,-0.07248591631650925,-0.2234230488538742
1740773084029615900,8.758615966796874,0.25933530926704407,-0.16828326880931854,0.0026223324239253998
1740773084039684000,8.76868408203125,0.26801416277885437,-0.19718268513679504,0.19603970646858215
1740773084049752800,8.7787529296875,0.25787898898124695,-0.19177274405956268,0.3341376483440399
1740773084059820800,8.78882080078125,0.21181444823741913,-0.18469566106796265,0.4046149253845215
1740773084069890000,8.79889013671875,0.15456314384937286,-0.17279639840126038,0.4221566319465637
1740773084079959000,8.808958984375,0.08724401146173477,-0.17513903975486755,0.39974069595336914
1740773084090026800,8.81902685546875,0.015212427824735641,-0.1972890943288803,0.33846962451934814
1740773084100096000,8.829095947265625,-0.059137094765901566,-0.22748732566833496,0.2550707757472992
1740773084110165000,8.8391650390625,-0.13099849224090576,-0.25449445843696594,0.1561087667942047
1740773084120233000,8.84923291015625,-0.18780823051929474,-0.2857249677181244,0.048239968717098236
1740773084130302000,8.859302001953125,-0.22388580441474915,-0.30844491720199585,-0.05761295557022095
1740773084140370000,8.869369873046875,-0.24946542084217072,-0.31350013613700867,-0.1549682319164276
1740773084150439000,8.87943896484375,-0.26444676518440247,-0.2992306351661682,-0.2331109642982483
1740773084160508000,8.8895078125,-0.26255548000335693,-0.2714645266532898,-0.29014235734939575
1740773084170576000,8.899575927734375,-0.24530085921287537,-0.21722976863384247,-0.33183974027633667
1740773084180644900,8.909644775390625,-0.22606393694877625,-0.15000413358211517,-0.34926462173461914
1740773084190713900,8.9197138671875,-0.1982480138540268,-0.08742997795343399,-0.34217342734336853
1740773084200782000,8.929781982421876,-0.16118334233760834,-0.02271779626607895,-0.32181516289711
1740773084210851000,8.93985107421875,-0.11918821930885315,0.05484464019536972,-0.28326377272605896
1740773084220918800,8.949918701171875,-0.08613809198141098,0.12087731063365936,-0.22961735725402832
1740773084230988000,8.959988037109374,-0.04783517122268677,0.1870640516281128,-0.17149360477924347
1740773084241057000,8.97005712890625,-0.020567256957292557,0.2614598274230957,-0.11303462833166122
1740773084251124700,8.980124755859375,0.012796558439731598,0.3041151463985443,-0.07063177973031998
1740773084261194000,8.990194091796875,0.034296829253435135,0.30715423822402954,-0.04425772279500961
1740773084271262000,9.000261962890624,0.0514177605509758,0.26047301292419434,-0.04556133970618248
1740773084281331000,9.0103310546875,0.054309356957674026,0.2016908973455429,-0.0654437467455864
1740773084291400000,9.02039990234375,0.05576690658926964,0.14747293293476105,-0.08910913020372391
1740773084301468000,9.030468017578125,0.04125485569238663,0.09824641048908234,-0.10037093609571457
1740773084311537200,9.040537109375,0.026515590026974678,0.03846510127186775,-0.09558816999197006
1740773084321606000,9.05060595703125,0.011672822758555412,-0.03028135374188423,-0.08632541447877884
1740773084331673900,9.060673828125,-0.006887013092637062,-0.07893730700016022,-0.06246722489595413
1740773084341743000,9.0707431640625,-0.021577514708042145,-0.1023242324590683,-0.02779199182987213
1740773084351810800,9.080810791015624,-0.02473735436797142,-0.08463551849126816,0.0046839285641908646
1740773084361880000,9.090880126953126,-0.017299864441156387,-0.04350593313574791,0.028735604137182236
1740773084371949000,9.100948974609375,-0.004861835855990648,0.04144091531634331,0.04950719326734543
1740773084382017000,9.11101708984375,0.015620219521224499,0.13280467689037323,0.056910134851932526
1740773084392086000,9.1210859375,0.03257709741592407,0.2110147923231125,0.051250651478767395
1740773084402154000,9.131154052734376,0.04616482928395271,0.27047237753868103,0.04867791756987572
1740773084412223000,9.141222900390625,0.06231050565838814,0.28920984268188477,0.056356873363256454
1740773084422292000,9.1512919921875,0.07872595638036728,0.2763453423976898,0.06831930577754974
1740773084432360000,9.16135986328125,0.08116914331912994,0.2558288872241974,0.10220563411712646
1740773084442429200,9.17142919921875,0.07375317066907883,0.20882607996463776,0.14022842049598694
1740773084452498000,9.181497802734375,0.059282343834638596,0.1399972140789032,0.17735661566257477
1740773084462566000,9.19156591796875,0.04243700951337814,0.06515852361917496,0.21881040930747986
1740773084472635100,9.20163525390625,0.018421156331896782,0.018140142783522606,0.2687889039516449
1740773084482702800,9.211702880859375,0.0007994156330823898,-0.005609006155282259,0.32263192534446716
1740773084492771800,9.221771728515625,-0.017717810347676277,-0.00030558742582798004,0.36939355731010437
1740773084502841000,9.231841064453125,-0.046970825642347336,0.00650759506970644,0.39259544014930725
1740773084512909000,9.241908935546874,-0.08343349397182465,-0.014808879233896732,0.3554334342479706
1740773084522978000,9.25197802734375,-0.1312192678451538,-0.07043486833572388,0.2517833709716797
1740773084533047000,9.262047119140625,-0.1939534991979599,-0.13411371409893036,0.12534765899181366
1740773084543115000,9.272114990234375,-0.26428839564323425,-0.22763952612876892,-0.01072350237518549
1740773084553184000,9.28218408203125,-0.33579108119010925,-0.3414156436920166,-0.1270247995853424
1740773084563252000,9.292251953125,-0.40008091926574707,-0.4441376030445099,-0.19256094098091125
1740773084573321000,9.302321044921875,-0.4528945982456207,-0.5056595802307129,-0.1953708380460739
1740773084583390000,9.312389892578125,-0.5135906934738159,-0.5275052189826965,-0.11616542190313339
1740773084593458000,9.3224580078125,-0.5803108811378479,-0.4980256259441376,0.05730383098125458
1740773084603527200,9.332527099609376,-0.6367139220237732,-0.41599640250205994,0.31600669026374817
1740773084613595100,9.34259521484375,-0.6804637908935547,-0.2967589497566223,0.6145272850990295
1740773084623663900,9.352663818359375,-0.6983945965766907,-0.22585773468017578,0.8822519779205322
1740773084633733000,9.362733154296874,-0.7003480195999146,-0.17966707050800323,1.0952637195587158
1740773084643801000,9.372801025390626,-0.7216917872428894,-0.1465221643447876,1.2602828741073608
1740773084653869800,9.382869873046875,-0.7541336417198181,-0.1173698753118515,1.3641676902770996
1740773084663939000,9.39293896484375,-0.7652266621589661,-0.08660798519849777,1.3826334476470947
1740773084674007000,9.403007080078124,-0.7515409588813782,-0.07909014821052551,1.3329505920410156
1740773084684076000,9.413075927734376,-0.7180513143539429,-0.13459041714668274,1.2169225215911865
1740773084694144000,9.42314404296875,-0.6669527292251587,-0.15814393758773804,1.0139219760894775
1740773084704213000,9.433212890625,-0.6102315187454224,-0.14802977442741394,0.7430927753448486
1740773084714282000,9.443281982421874,-0.5792951583862305,-0.1449517011642456,0.4447694420814514
1740773084724350000,9.453349853515626,-0.575275182723999,-0.13232991099357605,0.13714048266410828
1740773084734419000,9.4634189453125,-0.589928150177002,-0.12889204919338226,-0.1228969469666481
1740773084744487200,9.473487060546875,-0.5828094482421875,-0.1267564743757248,-0.31916406750679016
1740773084754556000,9.483555908203124,-0.553331732749939,-0.10222876071929932,-0.4393408000469208
1740773084764625200,9.493625244140626,-0.4993226230144501,-0.06824349611997604,-0.48001039028167725
1740773084774693000,9.503693115234375,-0.42955392599105835,-0.0047771744430065155,-0.4447498619556427
1740773084784761900,9.513761962890625,-0.34952330589294434,0.13354969024658203,-0.3689352571964264
1740773084794830000,9.523830078125,-0.27476173639297485,0.33787620067596436,-0.27318450808525085
1740773084804899000,9.533899169921876,-0.2232094705104828,0.562349259853363,-0.1938493847846985
1740773084814967800,9.5439677734375,-0.19202038645744324,0.7489926218986511,-0.14202719926834106
1740773084825036000,9.5540361328125,-0.1806623339653015,0.8513018488883972,-0.12235770374536514
1740773084835105000,9.56410498046875,-0.17875738441944122,0.8338192701339722,-0.13130512833595276
1740773084845174000,9.574174072265626,-0.21378840506076813,0.6841256022453308,-0.18083587288856506
1740773084855242000,9.584241943359375,-0.24405629932880402,0.5561612844467163,-0.26676303148269653
1740773084865311000,9.59431103515625,-0.24780286848545074,0.3761129081249237,-0.3566257655620575
1740773084875379200,9.604379150390624,-0.26291072368621826,0.14134302735328674,-0.42291024327278137
1740773084885448000,9.614447998046876,-0.2762048542499542,-0.07143645733594894,-0.46952024102211
1740773084895517000,9.624516845703125,-0.2738620936870575,-0.2107434868812561,-0.4906042516231537
1740773084905585200,9.634585205078125,-0.2567403316497803,-0.253290593624115,-0.4702776074409485
1740773084915654000,9.64465380859375,-0.21662166714668274,-0.24100035429000854,-0.41211897134780884
1740773084925723600,9.6547236328125,-0.16152778267860413,-0.19316798448562622,-0.3390864133834839
1740773084935791600,9.66479150390625,-0.10754815489053726,-0.12178568542003632,-0.2715454399585724
1740773084945860600,9.674860595703125,-0.06302903592586517,-0.05840563774108887,-0.23745156824588776
1740773084955928600,9.684928466796874,-0.03448580950498581,-0.018656626343727112,-0.23326562345027924
1740773084965997600,9.69499755859375,-0.01755003072321415,0.004234303720295429,-0.24870161712169647
1740773084976066600,9.705066650390625,-0.002885333728045225,0.047331441193819046,-0.2416847199201584
1740773084986134500,9.715134521484375,0.0009151026606559753,0.06077175214886665,-0.20278237760066986
1740773084996203800,9.725203857421874,0.00816689059138298,0.0502229742705822,-0.16165146231651306
1740773085006271500,9.735271484375,0.017261363565921783,0.06962663680315018,-0.12961453199386597
1740773085016340500,9.745340576171875,0.022250263020396233,0.11276931315660477,-0.11010314524173737
1740773085026409700,9.75540966796875,0.030034828931093216,0.16006731986999512,-0.10841105878353119
1740773085036477400,9.7654775390625,0.04746522009372711,0.1860664188861847,-0.13557636737823486
1740773085046546700,9.775546630859376,0.05832261964678764,0.2136382758617401,-0.18476945161819458
1740773085056615700,9.78561572265625,0.06810414791107178,0.21979443728923798,-0.2297651469707489
1740773085066683600,9.79568359375,0.08176584541797638,0.20410986244678497,-0.26917415857315063
1740773085076752600,9.805752685546874,0.08657550811767578,0.2024749517440796,-0.2916911840438843
1740773085086820600,9.815820556640626,0.09884686768054962,0.20662163197994232,-0.29201245307922363
1740773085096889600,9.8258896484375,0.12614907324314117,0.20291636884212494,-0.2622396945953369
1740773085106958600,9.83595849609375,0.15029942989349365,0.2060454785823822,-0.22228287160396576
1740773085117026600,9.846026611328124,0.1778911054134369,0.2228207290172577,-0.18562445044517517
1740773085127095800,9.856095703125,0.20716510713100433,0.23093482851982117,-0.1565045714378357
1740773085137163500,9.86616357421875,0.22962354123592377,0.20792432129383087,-0.13248685002326965
1740773085147232500,9.876232421875,0.24739857017993927,0.1743726283311844,-0.11229470372200012
1740773085157301800,9.8863017578125,0.2560652792453766,0.12245084345340729,-0.10371799021959305
1740773085167369700,9.89636962890625,0.26235345005989075,0.06687812507152557,-0.09781808406114578
1740773085177438500,9.9064384765625,0.24777479469776154,0.026250803843140602,-0.08061619848012924
1740773085187506700,9.916506591796875,0.23312248289585114,0.006955660413950682,-0.05821296572685242
1740773085197575700,9.92657568359375,0.22331379354000092,-0.00641154358163476,-0.02682175673544407
1740773085207644700,9.936644775390626,0.21458843350410461,0.003951478283852339,0.01007164642214775
1740773085217712600,9.946712646484375,0.20091550052165985,0.03441910818219185,0.038983989506959915
1740773085227781600,9.95678173828125,0.19278894364833832,0.05789021775126457,0.054489098489284515
1740773085237850600,9.9668505859375,0.19285205006599426,0.09692469984292984,0.06060398370027542
1740773085247918600,9.976918701171876,0.19428223371505737,0.1680806577205658,0.06394407898187637
1740773085257987600,9.986987548828125,0.2037726789712906,0.2423197329044342,0.08299127221107483
1740773085268055600,9.9970556640625,0.24041226506233215,0.3187854290008545,0.11195416748523712
1740773085278124500,10.00712451171875,0.27565571665763855,0.3933800458908081,0.1283123791217804
1740773085288193800,10.01719384765625,0.2924739122390747,0.48431330919265747,0.10861571878194809
1740773085298261800,10.02726171875,0.30764326453208923,0.5911614894866943,0.05992381274700165
1740773085308330500,10.03733056640625,0.33031442761421204,0.6429513692855835,-0.03581209480762482
1740773085318399700,10.047399658203124,0.3458811342716217,0.5935811996459961,-0.1308366060256958
1740773085328467700,10.0574677734375,0.36295759677886963,0.49154114723205566,-0.19249862432479858
1740773085338536400,10.067536376953125,0.374736487865448,0.37274816632270813,-0.22769975662231445
1740773085348604700,10.077604736328125,0.39075252413749695,0.25849440693855286,-0.2613256573677063
1740773085358673700,10.087673583984374,0.3882922828197479,0.11267782002687454,-0.29002121090888977
1740773085368742700,10.09774267578125,0.3926779329776764,-0.05779802426695824,-0.27469348907470703
1740773085378810600,10.107810546875,0.37646591663360596,-0.23325826227664948,-0.1977103054523468
1740773085388879600,10.117879638671875,0.35316115617752075,-0.39421796798706055,-0.06227359175682068
1740773085398947800,10.12794775390625,0.30822592973709106,-0.535399317741394,0.12165576219558716
1740773085409016600,10.1380166015625,0.2518373727798462,-0.6404247283935547,0.32770344614982605
1740773085419085600,10.14808544921875,0.2153209149837494,-0.6967058181762695,0.528583824634552
1740773085429153800,10.15815380859375,0.1756117194890976,-0.7092538475990295,0.7142440676689148
1740773085439222500,10.168222412109374,0.14880648255348206,-0.7069499492645264,0.8714573979377747
1740773085449290500,10.17829052734375,0.138693705201149,-0.6729276776313782,0.9907016754150391
1740773085459359700,10.18835986328125,0.13194525241851807,-0.602641761302948,1.038017749786377
1740773085469428500,10.198428466796875,0.12593035399913788,-0.46720820665359497,1.0038470029830933
1740773085479496700,10.20849658203125,0.11006484180688858,-0.2718072831630707,0.8752211332321167
1740773085489565700,10.218565673828126,0.12019654363393784,-0.026585804298520088,0.6596201062202454
1740773085499634400,10.228634521484375,0.11718770116567612,0.19644328951835632,0.3885788023471832
1740773085509702700,10.23870263671875,0.13390278816223145,0.3281368613243103,0.09514505416154861
1740773085519771600,10.248771728515624,0.16842295229434967,0.3679937422275543,-0.1829395741224289
1740773085529839600,10.258839599609376,0.20018801093101501,0.34773680567741394,-0.4323507249355316
1740773085539908600,10.26890869140625,0.22069035470485687,0.28692272305488586,-0.6233457326889038
1740773085549977600,10.2789775390625,0.2505853474140167,0.1873636692762375,-0.7136011719703674
1740773085560045600,10.289045654296874,0.2899013161659241,0.0797855481505394,-0.6799407005310059
1740773085570114600,10.299114501953126,0.317313015460968,-0.005785165820270777,-0.5474668145179749
1740773085580182500,10.3091826171875,0.32509130239486694,-0.07641991972923279,-0.34577521681785583
1740773085590251800,10.319251708984375,0.3199746906757355,-0.12332150340080261,-0.11870298534631729
1740773085600320500,10.329320556640624,0.300579696893692,-0.16870683431625366,0.08789146691560745
1740773085610388500,10.339388427734375,0.27425122261047363,-0.2023734599351883,0.23836393654346466
1740773085620457700,10.349457763671875,0.2394959181547165,-0.23729895055294037,0.30160337686538696
1740773085630526500,10.3595263671875,0.20047150552272797,-0.26263028383255005,0.31183290481567383
1740773085640594400,10.369594482421874,0.14880138635635376,-0.29430991411209106,0.2766954302787781
1740773085650663700,10.37966357421875,0.09687094390392303,-0.3309231698513031,0.21546445786952972
1740773085660731600,10.389731689453125,0.04817743971943855,-0.3422543704509735,0.1368436962366104
1740773085670800600,10.399800537109375,0.0074212499894201756,-0.31640493869781494,0.04769633710384369
1740773085680869600,10.40986962890625,-0.028806796297430992,-0.27418264746665955,-0.040528327226638794
1740773085690937600,10.4199375,-0.049444783478975296,-0.23789256811141968,-0.12117689102888107
1740773085701006600,10.430006591796875,-0.07001424580812454,-0.2068113535642624,-0.16929729282855988
1740773085711074600,10.440074462890625,-0.07105694711208344,-0.16951628029346466,-0.20320579409599304
1740773085721143600,10.4501435546875,-0.061670899391174316,-0.1463792622089386,-0.2281028926372528
1740773085731212500,10.460212646484376,-0.044754188507795334,-0.12783768773078918,-0.24162057042121887
1740773085741280500,10.470280517578125,-0.029712386429309845,-0.11802367120981216,-0.24187758564949036
1740773085751349800,10.480349853515625,-0.007628629449754953,-0.10311904549598694,-0.2366206794977188
1740773085761417700,10.490417724609374,0.00692314887419343,-0.06709606945514679,-0.21268923580646515
1740773085771486500,10.500486572265626,0.020597582682967186,-0.03147880360484123,-0.17385131120681763
1740773085781555700,10.5105556640625,0.034419119358062744,-0.0017525977455079556,-0.1350032538175583
1740773085791623700,10.520623779296875,0.042986348271369934,0.0368436723947525,-0.0971563309431076
1740773085801692400,10.5306923828125,0.0512770339846611,0.0854378417134285,-0.060260627418756485
1740773085811761700,10.54076171875,0.05090947449207306,0.11076436191797256,-0.023963505402207375
1740773085821829600,10.55082958984375,0.04683244228363037,0.11279529333114624,0.0013674171641469002
1740773085831898600,10.560898681640625,0.03610009327530861,0.10835593193769455,0.01573551818728447
1740773085841966600,10.570966552734374,0.017668621614575386,0.08227159827947617,0.02073666825890541
1740773085852035600,10.58103564453125,-0.005756427068263292,0.04535724222660065,0.015592401847243309
1740773085862104600,10.5911044921875,-0.03051024302840233,0.03179536014795303,0.012349470518529415
1740773085872172500,10.601172607421875,-0.05556020140647888,0.03135329857468605,0.009338953532278538
1740773085882241500,10.611241455078124,-0.08241311460733414,0.026754550635814667,0.01755720190703869
1740773085892309800,10.621309814453125,-0.10741500556468964,0.007788440678268671,0.02315094694495201
1740773085902378500,10.63137841796875,-0.12911763787269592,-0.004287929739803076,0.02669614553451538
1740773085912447700,10.64144775390625,-0.14204247295856476,0.004949911497533321,0.006363322027027607
1740773085922515700,10.651515625,-0.15470261871814728,0.008225333876907825,-0.020625684410333633
1740773085932584200,10.661584228515625,-0.17154398560523987,0.0005197157151997089,-0.0425565168261528
1740773085942653200,10.671653076171875,-0.18134547770023346,-0.02482878416776657,-0.05811204016208649
1740773085952721400,10.681721435546875,-0.20193326473236084,-0.060460519045591354,-0.06495428830385208
1740773085962790100,10.6917900390625,-0.2287670075893402,-0.11377380788326263,-0.05544227361679077
1740773085972858000,10.701858154296875,-0.252806156873703,-0.1897929310798645,-0.0369529090821743
1740773085982927400,10.71192724609375,-0.274513304233551,-0.2710244059562683,-0.005216819234192371
1740773085992996000,10.72199609375,-0.2963721454143524,-0.3287946581840515,0.04204881191253662
1740773086003064000,10.73206396484375,-0.3211667239665985,-0.35354581475257874,0.08881925046443939
1740773086013133300,10.74213330078125,-0.34411299228668213,-0.3539026379585266,0.14781436324119568
1740773086023201300,10.752201171875,-0.3560631275177002,-0.34336692094802856,0.20367656648159027
1740773086033270300,10.762270263671875,-0.35671094059944153,-0.32452893257141113,0.2398202121257782
1740773086043339300,10.77233935546875,-0.3478437066078186,-0.28479883074760437,0.24457740783691406
1740773086053407200,10.7824072265625,-0.34228309988975525,-0.24205507338047028,0.20969544351100922
1740773086063476200,10.792476318359375,-0.3313039541244507,-0.19525641202926636,0.1244436651468277
1740773086073545200,10.802545166015625,-0.32600751519203186,-0.1536056399345398,-0.024358104914426804
1740773086083613200,10.81261328125,-0.31923431158065796,-0.09015849232673645,-0.23439921438694
1740773086093682200,10.82268212890625,-0.32751530408859253,-0.06011270359158516,-0.45458984375
1740773086103750100,10.832750244140625,-0.2954561710357666,-0.05402285233139992,-0.6242318749427795
1740773086113819400,10.8428193359375,-0.25922074913978577,-0.062107548117637634,-0.7053748369216919
1740773086123888000,10.85288818359375,-0.25866758823394775,-0.012333599850535393,-0.6713348627090454
1740773086133956000,10.8629560546875,-0.3091750144958496,0.041374366730451584,-0.4791771173477173
1740773086144025300,10.873025390625,-0.38642024993896484,0.04400237277150154,-0.15053507685661316
1740773086154093300,10.88309326171875,-0.4755992889404297,-0.0013203569687902927,0.24648825824260712
1740773086164162000,10.893162109375,-0.5343539714813232,-0.0553407147526741,0.6485747694969177
1740773086174231300,10.903231201171875,-0.5614591240882874,-0.07421201467514038,0.9826350808143616
1740773086184299300,10.91329931640625,-0.5842919945716858,-0.07927414774894714,1.2329533100128174
1740773086194368300,10.9233681640625,-0.6260555386543274,-0.11199788004159927,1.3973816633224487
1740773086204437200,10.933437255859374,-0.659113347530365,-0.19749361276626587,1.4633796215057373
1740773086214505200,10.943505126953125,-0.6671693325042725,-0.23612236976623535,1.4568051099777222
1740773086224574200,10.95357421875,-0.6647224426269531,-0.2552492022514343,1.3671154975891113
1740773086234642200,10.96364208984375,-0.6610572338104248,-0.24910514056682587,1.1993224620819092
1740773086244711200,10.973711181640626,-0.6014897227287292,-0.2693331837654114,0.9725502729415894
1740773086254780400,10.983780517578126,-0.5161046385765076,-0.3060925602912903,0.7253731489181519
1740773086264848100,10.99384814453125,-0.4482521414756775,-0.27514955401420593,0.47368523478507996
1740773086274917400,11.00391748046875,-0.4046271741390228,-0.14345526695251465,0.24180464446544647
1740773086284985300,11.0139853515625,-0.3712902367115021,0.06283824890851974,0.06761899590492249
1740773086295054000,11.02405419921875,-0.34510406851768494,0.25526347756385803,-0.053886353969573975
1740773086305123300,11.034123291015625,-0.32212844491004944,0.37025290727615356,-0.12324465066194534
1740773086315191300,11.04419140625,-0.30959370732307434,0.3887205719947815,-0.12331913411617279
1740773086325260300,11.05426025390625,-0.29376840591430664,0.36079439520835876,-0.08337225019931793
1740773086335328300,11.064328369140625,-0.2619565725326538,0.3395555913448334,-0.024324698373675346
1740773086345397200,11.074397216796875,-0.2118436098098755,0.32323387265205383,0.0625779777765274
1740773086355466200,11.08446630859375,-0.16227172315120697,0.3188159763813019,0.16044698655605316
1740773086365534200,11.0945341796875,-0.14164794981479645,0.3205227851867676,0.2555372714996338
1740773086375603200,11.104603271484375,-0.14999444782733917,0.3499087393283844,0.33087635040283203
1740773086385672400,11.11467236328125,-0.16439229249954224,0.35353168845176697,0.37084293365478516
1740773086395740200,11.124740234375,-0.1862799972295761,0.3044520616531372,0.3496401011943817
1740773086405809200,11.13480908203125,-0.20808009803295135,0.2020183652639389,0.2739996910095215
1740773086415877400,11.14487744140625,-0.23492881655693054,0.08252845704555511,0.1603441834449768
1740773086425946000,11.154946044921875,-0.25230833888053894,-0.055461641401052475,0.018737513571977615
1740773086436015400,11.165015380859375,-0.25195881724357605,-0.18122687935829163,-0.12387453019618988
1740773086446083300,11.175083251953126,-0.24602660536766052,-0.25441694259643555,-0.2508804202079773
1740773086456152300,11.18515234375,-0.22541968524456024,-0.3042598366737366,-0.3387952446937561
1740773086466220300,11.19522021484375,-0.1843726485967636,-0.31090524792671204,-0.3896951675415039
1740773086476289300,11.205289306640625,-0.13248445093631744,-0.2859056293964386,-0.3992973864078522
1740773086486358300,11.215358154296876,-0.06790599226951599,-0.222850501537323,-0.38573259115219116
1740773086496426200,11.22542626953125,-0.01331298053264618,-0.16391406953334808,-0.3412850499153137
1740773086506495200,11.2354951171875,0.024551045149564743,-0.11826083064079285,-0.27794522047042847
1740773086516563200,11.245563232421874,0.058791156858205795,-0.06654385477304459,-0.20236481726169586
1740773086526632200,11.255632080078126,0.09418962895870209,-0.020502595230937004,-0.13068130612373352
1740773086536701200,11.265701171875,0.12548218667507172,0.007343672681599855,-0.0764533132314682
1740773086546769400,11.275769287109375,0.1447770595550537,0.030114231631159782,-0.045485541224479675
1740773086556838400,11.28583837890625,0.15970757603645325,0.05131661519408226,-0.05755862966179848
1740773086566907100,11.2959072265625,0.17330408096313477,0.06197378784418106,-0.09958544373512268
1740773086576975400,11.305975341796875,0.17970947921276093,0.061527036130428314,-0.17847590148448944
1740773086587044400,11.31604443359375,0.18731892108917236,0.0518011748790741,-0.27540987730026245
1740773086597112000,11.326112060546874,0.19275906682014465,0.03515549376606941,-0.3637089431285858
1740773086607181300,11.336181396484376,0.20460134744644165,0.027530331164598465,-0.4273076057434082
1740773086617250300,11.346250244140625,0.2205837368965149,0.014770571142435074,-0.4533524811267853
1740773086627318300,11.356318359375,0.2406242936849594,0.012006741017103195,-0.43704754114151
1740773086637387300,11.36638720703125,0.2709681987762451,-0.05000239983201027,-0.42529937624931335
1740773086647455200,11.376455322265626,0.3038228154182434,-0.06425164639949799,-0.4012608826160431
1740773086657524200,11.386524169921875,0.2983971834182739,-0.038121771067380905,-0.33768483996391296
1740773086667593200,11.39659326171875,0.30156660079956055,-0.0536930076777935,-0.2729814946651459
1740773086677661200,11.4066611328125,0.32408607006073,-0.04504667595028877,-0.21769987046718597
1740773086687730400,11.41673046875,0.3433727025985718,-0.038499027490615845,-0.18353204429149628
1740773086697799200,11.426799072265625,0.3548501431941986,-0.024128897115588188,-0.18156440556049347
1740773086707867400,11.436867431640625,0.3531518578529358,-0.01384909637272358,-0.18675757944583893
1740773086717936400,11.446936279296875,0.3485957980155945,0.024100158363580704,-0.18889495730400085
1740773086728004000,11.457004150390626,0.3387564718723297,0.0512675978243351,-0.1951187700033188
1740773086738073300,11.4670732421875,0.3457716107368469,0.0898062065243721,-0.2097349315881729
1740773086748142300,11.477142333984375,0.32761043310165405,0.1582784801721573,-0.19394798576831818
1740773086758210300,11.487210205078124,0.2956315577030182,0.20339269936084747,-0.16562865674495697
1740773086768279300,11.497279296875,0.2931654751300812,0.22137223184108734,-0.151038259267807
1740773086778347300,11.50734716796875,0.29450926184654236,0.24032194912433624,-0.1417691856622696
1740773086788416300,11.517416259765625,0.29259681701660156,0.2695288360118866,-0.12769117951393127
1740773086798485200,11.5274853515625,0.2945922911167145,0.28832340240478516,-0.10842736065387726
1740773086808553200,11.53755322265625,0.2982666492462158,0.314486563205719,-0.08813939988613129
1740773086818622500,11.54762255859375,0.29506611824035645,0.3452325165271759,-0.07309569418430328
1740773086828690200,11.557690185546875,0.29700541496276855,0.37144920229911804,-0.051147520542144775
1740773086838759200,11.56775927734375,0.30514729022979736,0.3803558945655823,-0.02388177067041397
1740773086848828400,11.577828369140626,0.3347635269165039,0.4078431725502014,-0.010590464808046818
1740773086858896100,11.587896240234375,0.37560930848121643,0.44931069016456604,-0.04253334552049637
1740773086868965000,11.597965087890625,0.4138765335083008,0.49575358629226685,-0.1120559573173523
1740773086879034400,11.608034423828125,0.4413312077522278,0.5297715067863464,-0.20139746367931366
1740773086889102300,11.618102294921876,0.47756272554397583,0.541243851184845,-0.3041946589946747
1740773086899171300,11.62817138671875,0.5218139886856079,0.529481828212738,-0.415788471698761
1740773086909239300,11.6382392578125,0.5525972247123718,0.49211931228637695,-0.5122542977333069
1740773086919308300,11.648308349609374,0.5535232424736023,0.40784183144569397,-0.5505642294883728
1740773086929377300,11.658377197265626,0.5288615822792053,0.26314854621887207,-0.5154251456260681
1740773086939445200,11.6684453125,0.49523600935935974,0.09147974848747253,-0.4017360210418701
1740773086949514200,11.67851416015625,0.4489542841911316,-0.10770126432180405,-0.22515296936035156
1740773086959582200,11.688582275390624,0.4032168984413147,-0.2789720892906189,-0.02838681824505329
1740773086969651200,11.698651123046876,0.3647765815258026,-0.3697379529476166,0.12518170475959778
1740773086979720400,11.708720458984375,0.33571210503578186,-0.40866032242774963,0.22515353560447693
1740773086989788400,11.718788330078125,0.30028700828552246,-0.441623330116272,0.2683931589126587
1740773086999857200,11.728857177734374,0.26183637976646423,-0.46963855624198914,0.2855275273323059
1740773087009925400,11.73892529296875,0.22149109840393066,-0.4730657637119293,0.29314762353897095
1740773087019994400,11.748994384765625,0.17865383625030518,-0.4535484313964844,0.32058313488960266
1740773087030063000,11.75906298828125,0.1432628184556961,-0.4073082208633423,0.3698130249977112
1740773087040131300,11.76913134765625,0.1261400282382965,-0.32054856419563293,0.42974498867988586
1740773087050200300,11.779200439453126,0.1275256723165512,-0.24686288833618164,0.4758474826812744
1740773087060269300,11.789269287109375,0.12699563801288605,-0.11498461663722992,0.5189793705940247
1740773087070337300,11.799337158203125,0.14184008538722992,0.033062905073165894,0.5454676747322083
1740773087080406300,11.80940625,0.17050638794898987,0.14588184654712677,0.5249403715133667
1740773087090474200,11.81947412109375,0.20000915229320526,0.1936778724193573,0.4435027837753296
1740773087100543200,11.829543212890625,0.22102990746498108,0.18219606578350067,0.3086661398410797
1740773087110612200,11.8396123046875,0.23793911933898926,0.1123884841799736,0.14004835486412048
1740773087120680400,11.849680419921874,0.2638022005558014,0.0077930777333676815,-0.04460126906633377
1740773087130749200,11.859749267578126,0.30146223306655884,-0.09125867486000061,-0.21820448338985443
1740773087140817200,11.869817138671875,0.3408445715904236,-0.1547597199678421,-0.35562774538993835
1740773087150886400,11.879886474609375,0.3793160617351532,-0.1455553025007248,-0.4322889745235443
1740773087160955100,11.889955078125,0.42865076661109924,-0.0911027193069458,-0.4399235248565674
1740773087171023400,11.9000234375,0.48545894026756287,-0.017796816304326057,-0.3827316164970398
1740773087181092400,11.91009228515625,0.5285447239875793,0.05319572240114212,-0.27812716364860535
1740773087191161000,11.9201611328125,0.5631873607635498,0.11686710268259048,-0.17226089537143707
1740773087201229300,11.930229248046874,0.5701892971992493,0.146941140294075,-0.0947265475988388
1740773087211298300,11.94029833984375,0.5655937790870667,0.12107811868190765,-0.07205478847026825
1740773087221366300,11.9503662109375,0.5458750128746033,0.0414489209651947,-0.09683442115783691
1740773087231435300,11.960435302734375,0.4941186010837555,-0.06461972743272781,-0.15355068445205688
1740773087241504300,11.970504150390624,0.41172727942466736,-0.1797238141298294,-0.2262519896030426
1740773087251572500,11.980572509765626,0.3214477002620697,-0.3076367676258087,-0.2929247319698334
1740773087261641200,11.99064111328125,0.2243203967809677,-0.4421684741973877,-0.3415791690349579
1740773087271709200,12.000709228515625,0.13926009833812714,-0.5298663377761841,-0.38151752948760986
1740773087281778400,12.0107783203125,0.07019752264022827,-0.5699570775032043,-0.404718816280365
1740773087291847200,12.02084716796875,0.00037502916529774666,-0.5769838094711304,-0.41645270586013794
1740773087301915100,12.0309150390625,-0.06042730435729027,-0.49226731061935425,-0.41431257128715515
1740773087311984400,12.040984375,-0.10660970956087112,-0.3473777770996094,-0.3882756233215332
1740773087322052400,12.05105224609375,-0.12865304946899414,-0.196440190076828,-0.3604428470134735
1740773087332121300,12.061121337890626,-0.13850700855255127,-0.042450085282325745,-0.32629552483558655
1740773087342190300,12.0711904296875,-0.1513146609067917,0.10837192088365555,-0.29582759737968445
1740773087352258300,12.08125830078125,-0.1577347368001938,0.23543612658977509,-0.27001890540122986
1740773087362327300,12.091327392578124,-0.16757427155971527,0.32733529806137085,-0.24871690571308136
1740773087372395300,12.101395263671876,-0.17835740745067596,0.3802131712436676,-0.23257601261138916
1740773087382464300,12.11146435546875,-0.18800407648086548,0.39451152086257935,-0.21102117002010345
1740773087392533200,12.121533203125,-0.18999159336090088,0.3688375949859619,-0.19057528674602509
1740773087402601200,12.131601318359374,-0.1883564293384552,0.3137238621711731,-0.19197653234004974
1740773087412670500,12.14167041015625,-0.18787626922130585,0.2644295394420624,-0.21004554629325867
1740773087422739200,12.1517392578125,-0.19854412972927094,0.25819772481918335,-0.2383682131767273
1740773087432807200,12.16180712890625,-0.23076492547988892,0.263899564743042,-0.26915621757507324
1740773087442876400,12.17187646484375,-0.27616721391677856,0.23056983947753906,-0.28715619444847107
1740773087452944400,12.1819443359375,-0.3228135406970978,0.16754773259162903,-0.29162415862083435
1740773087463013000,12.19201318359375,-0.38383227586746216,0.08080246299505234,-0.2781442105770111
1740773087473082400,12.202082275390625,-0.47423991560935974,-0.03441574051976204,-0.24127326905727386
1740773087483150300,12.212150390625,-0.5885211229324341,-0.1933240294456482,-0.19541077315807343
1740773087493219300,12.22221923828125,-0.7091556191444397,-0.3455529808998108,-0.1348358392715454
1740773087503287300,12.232287353515625,-0.8375061750411987,-0.48513296246528625,-0.05388399586081505
1740773087513356300,12.242356201171875,-0.9710516929626465,-0.5631747245788574,0.027899015694856644
1740773087523425300,12.25242529296875,-1.1038450002670288,-0.5907647609710693,0.10837499052286148
1740773087533493200,12.2624931640625,-1.245857834815979,-0.5814194679260254,0.16868147253990173
