time,seconds_elapsed,z,y,x
1740773075290052600,0.019052490234375,-36.9969482421875,-21.185083389282227,-7.189998626708984
1740773075300120800,0.029120849609375,-36.74371337890625,-20.554956436157227,-6.981466293334961
1740773075310189800,0.03918994140625,-36.929931640625,-20.75235939025879,-7.24050235748291
1740773075320257500,0.049257568359375,-37.405426025390625,-21.402427673339844,-7.698480606079102
1740773075330326800,0.059326904296875,-37.520233154296875,-21.511260986328125,-7.869379043579102
1740773075340395800,0.069395751953125,-37.649871826171875,-21.45473289489746,-7.815898895263672
1740773075350463700,0.079463623046875,-37.7362060546875,-21.382644653320312,-7.92552375793457
1740773075360532700,0.08953271484375,-37.3050537109375,-21.59746551513672,-8.062216758728027
1740773075370600700,0.0996005859375,-37.56451416015625,-21.381994247436523,-8.165164947509766
1740773075380670000,0.109669921875,-37.287933349609375,-21.140539169311523,-8.040447235107422
1740773075390738700,0.11973876953125,-37.322509765625,-21.380746841430664,-8.205853462219238
1740773075400806700,0.129806640625,-37.529144287109375,-21.337387084960938,-8.371859550476074
1740773075410876000,0.1398759765625,-37.5682373046875,-21.284231185913086,-8.331330299377441
1740773075420943600,0.149943603515625,-37.589141845703125,-21.530410766601562,-8.134605407714844
1740773075431012900,0.160012939453125,-37.138214111328125,-21.292207717895508,-8.174731254577637
1740773075441081900,0.170081787109375,-37.26129150390625,-21.221988677978516,-8.38189697265625
1740773075451149800,0.18014990234375,-37.424713134765625,-21.374521255493164,-8.44551944732666
1740773075461218800,0.19021875,-37.825927734375,-21.639320373535156,-8.588004112243652
1740773075471286800,0.200286865234375,-37.634033203125,-21.46481704711914,-8.554709434509277
1740773075481355800,0.210355712890625,-37.789276123046875,-21.548830032348633,-8.463658332824707
1740773075491424800,0.2204248046875,-37.67156982421875,-21.086498260498047,-8.374038696289062
1740773075501492700,0.23049267578125,-37.59527587890625,-21.136796951293945,-8.555717468261719
1740773075511562000,0.24056201171875,-37.78363037109375,-21.157573699951172,-8.623100280761719
1740773075521629700,0.250629638671875,-37.703369140625,-21.026044845581055,-8.571040153503418
1740773075531698700,0.26069873046875,-38.00042724609375,-20.940656661987305,-8.717791557312012
1740773075541768000,0.270767822265625,-38.06146240234375,-21.219457626342773,-8.840401649475098
1740773075551835600,0.280835693359375,-38.021514892578125,-21.256006240844727,-8.76966381072998
1740773075561904600,0.290904541015625,-38.132598876953125,-21.228059768676758,-8.754530906677246
1740773075571974000,0.300973876953125,-37.7181396484375,-21.009798049926758,-8.705632209777832
1740773075582041900,0.311041748046875,-38.068878173828125,-20.987152099609375,-8.832269668579102
1740773075592110800,0.32111083984375,-38.131805419921875,-20.866174697875977,-8.464496612548828
1740773075602178800,0.3311787109375,-38.052215576171875,-20.591297149658203,-8.683963775634766
1740773075612247800,0.341247802734375,-37.601654052734375,-20.67277717590332,-8.636251449584961
1740773075622316800,0.35131689453125,-37.892974853515625,-20.754236221313477,-8.904064178466797
1740773075632384800,0.361384765625,-37.9947509765625,-20.557649612426758,-8.59911060333252
1740773075642453800,0.371453857421875,-38.267364501953125,-20.684322357177734,-8.614895820617676
1740773075652521700,0.381521728515625,-38.3392333984375,-20.52092933654785,-8.492916107177734
1740773075662590700,0.3915908203125,-38.121551513671875,-20.382732391357422,-8.47271728515625
1740773075672660000,0.401659912109375,-38.32769775390625,-20.498132705688477,-8.603724479675293
1740773075682728000,0.41172802734375,-38.49871826171875,-20.47085189819336,-8.506645202636719
1740773075692796700,0.421796630859375,-38.320068359375,-20.24696159362793,-8.361089706420898
1740773075702865000,0.431864990234375,-38.44024658203125,-19.997133255004883,-8.445164680480957
1740773075712934000,0.441933837890625,-38.817138671875,-19.938081741333008,-8.694562911987305
1740773075723002600,0.452002685546875,-38.933685302734375,-19.752317428588867,-8.53109073638916
1740773075733070800,0.46207080078125,-38.981048583984375,-19.671981811523438,-8.20512580871582
1740773075743139800,0.472139892578125,-38.895416259765625,-19.385103225708008,-8.176823616027832
1740773075753207800,0.482207763671875,-38.869842529296875,-19.584924697875977,-8.156869888305664
1740773075763276800,0.49227685546875,-38.59039306640625,-19.473186492919922,-7.8837385177612305
1740773075773345800,0.502345703125,-38.481903076171875,-19.3523006439209,-7.8229875564575195
1740773075783413800,0.512413818359375,-38.732177734375,-19.762056350708008,-8.098169326782227
1740773075793482800,0.522482666015625,-38.692779541015625,-19.8945369720459,-8.049601554870605
1740773075803550700,0.53255078125,-39.1231689453125,-19.62729263305664,-8.208382606506348
1740773075813620000,0.542619873046875,-39.013275146484375,-19.784748077392578,-7.718536376953125
1740773075823688700,0.552688720703125,-39.247406005859375,-19.809038162231445,-7.903424263000488
1740773075833756700,0.562756591796875,-39.029205322265625,-19.773183822631836,-8.004599571228027
1740773075843826000,0.572825927734375,-38.98291015625,-19.76937484741211,-8.0343017578125
1740773075853894700,0.582894775390625,-38.84173583984375,-19.786094665527344,-7.909787178039551
1740773075863962600,0.592962646484375,-38.580841064453125,-19.751283645629883,-8.074002265930176
1740773075874031900,0.603031982421875,-38.858642578125,-19.831619262695312,-8.056782722473145
1740773075884099800,0.613099853515625,-38.70220947265625,-19.905439376831055,-7.954227447509766
1740773075894168800,0.6231689453125,-39.16436767578125,-19.697921752929688,-7.940376281738281
1740773075904237800,0.63323779296875,-39.143707275390625,-19.797372817993164,-7.974553108215332
1740773075914305800,0.643305908203125,-38.99603271484375,-19.97323989868164,-7.81834602355957
1740773075924372200,0.653372314453125,-39.272430419921875,-19.969593048095703,-8.050130844116211
1740773075934440200,0.663440185546875,-39.281097412109375,-20.203264236450195,-7.952498435974121
1740773075944509000,0.673509033203125,-39.281097412109375,-20.203264236450195,-7.952498435974121
1740773075954578200,0.683578125,-38.90704345703125,-20.051849365234375,-7.95278263092041
1740773075964646100,0.693646240234375,-38.7957763671875,-20.29184341430664,-8.285663604736328
1740773075974715100,0.703715087890625,-38.541107177734375,-20.338172912597656,-8.330300331115723
1740773075984783000,0.713783203125,-38.65301513671875,-20.43144989013672,-7.989773750305176
1740773075994852000,0.72385205078125,-38.7818603515625,-20.378103256225586,-7.78848934173584
1740773076004921000,0.733921142578125,-38.9510498046875,-20.391782760620117,-7.969486236572266
1740773076014989000,0.743989013671875,-38.625030517578125,-20.46963119506836,-7.963702201843262
1740773076025058000,0.75405810546875,-38.9306640625,-20.540342330932617,-7.87139892578125
1740773076035127000,0.764126953125,-39.02691650390625,-20.306015014648438,-8.065402030944824
1740773076045195000,0.774195068359375,-38.84332275390625,-20.310659408569336,-7.816388130187988
1740773076055264300,0.78426416015625,-38.51324462890625,-20.451969146728516,-7.752634048461914
1740773076065332200,0.794332275390625,-38.636077880859375,-20.331798553466797,-7.921883583068848
1740773076075401000,0.80440087890625,-38.671722412109375,-20.372163772583008,-7.996601104736328
1740773076085470200,0.81447021484375,-38.536895751953125,-20.447378158569336,-7.904056549072266
1740773076095538200,0.8245380859375,-38.481231689453125,-20.497440338134766,-7.897825241088867
1740773076105607000,0.83460693359375,-38.722625732421875,-20.70977020263672,-8.060282707214355
1740773076115675100,0.844675048828125,-38.335052490234375,-20.613283157348633,-7.922060966491699
1740773076125744000,0.854744140625,-38.521148681640625,-20.776731491088867,-7.924071311950684
1740773076135813000,0.864813232421875,-38.362335205078125,-20.788440704345703,-8.125465393066406
1740773076145881000,0.874881103515625,-38.29937744140625,-20.746339797973633,-7.779067039489746
1740773076155950000,0.8849501953125,-38.669525146484375,-20.824295043945312,-7.939547538757324
1740773076166018300,0.895018310546875,-38.47320556640625,-20.850421905517578,-7.955104827880859
1740773076176087000,0.905087158203125,-38.5447998046875,-20.98892593383789,-7.943474769592285
1740773076186156000,0.915156005859375,-38.54766845703125,-20.887540817260742,-7.502182960510254
1740773076196224300,0.925224365234375,-38.33648681640625,-20.935850143432617,-7.259753227233887
1740773076206293000,0.93529296875,-38.677947998046875,-20.726247787475586,-7.3647565841674805
1740773076216362200,0.9453623046875,-38.575347900390625,-20.908262252807617,-7.503408432006836
1740773076226430200,0.95543017578125,-38.4881591796875,-20.932077407836914,-7.394008636474609
1740773076236499000,0.9654990234375,-38.7047119140625,-20.870105743408203,-7.178380966186523
1740773076246567200,0.975567138671875,-38.83868408203125,-21.12856674194336,-7.24526309967041
1740773076256636200,0.98563623046875,-38.526519775390625,-21.17088508605957,-7.411565780639648
1740773076266705200,0.995705078125,-38.1737060546875,-21.287111282348633,-7.1831159591674805
1740773076276773000,1.005773193359375,-38.430023193359375,-21.280664443969727,-7.0726213455200195
1740773076286842000,1.015842041015625,-38.70330810546875,-21.107633590698242,-7.034067153930664
1740773076296910000,1.02591015625,-38.608062744140625,-21.1625919342041,-7.224712371826172
1740773076306979000,1.03597900390625,-38.425750732421875,-21.216646194458008,-7.191960334777832
1740773076317048000,1.046048095703125,-38.45147705078125,-21.042802810668945,-7.010624885559082
1740773076327116300,1.0561162109375,-38.19854736328125,-21.283187866210938,-7.139728546142578
1740773076337185000,1.06618505859375,-38.444427490234375,-21.22409439086914,-7.3301591873168945
1740773076347254000,1.07625390625,-38.446624755859375,-21.04377555847168,-7.098686218261719
1740773076357322200,1.086322265625,-38.38739013671875,-21.41739273071289,-6.7997283935546875
1740773076367391200,1.09639111328125,-38.54522705078125,-21.31283187866211,-6.995499610900879
1740773076377459000,1.106458984375,-38.369476318359375,-21.096933364868164,-7.0010480880737305
1740773076387528200,1.116528076171875,-38.416412353515625,-21.116012573242188,-6.820417404174805
1740773076397597200,1.12659716796875,-38.133209228515625,-20.84783363342285,-6.830902099609375
1740773076407665200,1.1366650390625,-38.265960693359375,-20.939504623413086,-6.972803115844727
1740773076417734100,1.146734130859375,-38.094085693359375,-21.000755310058594,-7.029738426208496
1740773076427802000,1.156802001953125,-38.019256591796875,-20.98320198059082,-6.837785720825195
1740773076437871000,1.16687109375,-38.32501220703125,-20.966297149658203,-6.764967918395996
1740773076447940000,1.176940185546875,-38.300506591796875,-21.20946502685547,-6.809673309326172
1740773076458008000,1.187008056640625,-38.59173583984375,-21.303363800048828,-6.750788688659668
1740773076468077000,1.1970771484375,-38.27459716796875,-21.21365737915039,-6.8906145095825195
1740773076478145000,1.20714501953125,-38.52508544921875,-21.247095108032227,-6.914008140563965
1740773076488214300,1.21721435546875,-38.500732421875,-21.156578063964844,-6.7886810302734375
1740773076498283300,1.227283203125,-38.12554931640625,-21.175506591796875,-6.782713890075684
1740773076508351000,1.23735107421875,-38.5084228515625,-21.395915985107422,-6.7889404296875
1740773076518420200,1.247420166015625,-38.74639892578125,-21.162038803100586,-6.838939666748047
1740773076528489200,1.2574892578125,-38.532501220703125,-21.302331924438477,-6.867218971252441
1740773076538557000,1.267556884765625,-38.475738525390625,-21.19488525390625,-6.917283058166504
1740773076548626200,1.277626220703125,-37.79193115234375,-21.51224136352539,-6.800878524780273
1740773076558694100,1.287694091796875,-37.870513916015625,-21.516098022460938,-6.756887435913086
1740773076568763100,1.29776318359375,-38.066253662109375,-21.44632911682129,-6.759976387023926
1740773076578832100,1.30783203125,-38.060882568359375,-21.431241989135742,-6.579158782958984
1740773076588900000,1.317900146484375,-38.3558349609375,-21.371877670288086,-6.592548370361328
1740773076598969300,1.32796923828125,-38.412872314453125,-21.712360382080078,-6.44896125793457
1740773076609037000,1.338037109375,-38.10870361328125,-21.60980796813965,-6.359026908874512
1740773076619106000,1.34810595703125,-38.29266357421875,-21.706798553466797,-6.54095458984375
1740773076629175300,1.35817529296875,-38.39373779296875,-21.726346969604492,-6.419878959655762
1740773076639243000,1.368242919921875,-38.126922607421875,-21.73209571838379,-6.2769365310668945
1740773076649312300,1.378312255859375,-38.372650146484375,-21.542221069335938,-6.246448516845703
1740773076659381200,1.38838134765625,-38.10687255859375,-21.570051193237305,-6.257169723510742
1740773076669449200,1.39844921875,-38.284881591796875,-21.60860252380371,-6.267927169799805
1740773076679518200,1.408518310546875,-38.30096435546875,-21.417301177978516,-6.1853532791137695
1740773076689586200,1.418586181640625,-38.36212158203125,-21.586238861083984,-6.508772850036621
1740773076699655200,1.4286552734375,-38.510833740234375,-21.586814880371094,-6.63047981262207
1740773076709724200,1.43872412109375,-38.19659423828125,-21.656917572021484,-6.630220413208008
1740773076719792000,1.448792236328125,-38.324554443359375,-21.577392578125,-6.605771064758301
1740773076729861400,1.458861328125,-38.048980712890625,-21.423776626586914,-6.494204521179199
1740773076739930000,1.46893017578125,-38.5335693359375,-21.466238021850586,-6.648296356201172
1740773076749998000,1.478998046875,-38.3751220703125,-21.666580200195312,-6.517856597900391
1740773076760067300,1.4890673828125,-38.714508056640625,-21.33869171142578,-6.266167640686035
1740773076770135000,1.499135009765625,-38.391998291015625,-21.52537727355957,-6.499658584594727
1740773076780204000,1.5092041015625,-38.605224609375,-21.578880310058594,-6.516717910766602
1740773076790273300,1.519273193359375,-38.44561767578125,-21.612119674682617,-6.383005142211914
1740773076800341200,1.52934130859375,-38.297271728515625,-21.53166389465332,-6.803529739379883
1740773076810410000,1.539409912109375,-38.701019287109375,-21.550411224365234,-7.0367631912231445
1740773076820478200,1.549478271484375,-38.637054443359375,-21.346607208251953,-6.912757873535156
1740773076830547200,1.559547119140625,-38.832305908203125,-21.410348892211914,-6.87930965423584
1740773076840616200,1.5696162109375,-38.58612060546875,-21.357175827026367,-7.105902671813965
1740773076850684200,1.57968408203125,-38.365631103515625,-21.328691482543945,-6.842127799987793
1740773076860753200,1.589753173828125,-38.48553466796875,-21.33241844177246,-6.74675178527832
1740773076870822100,1.599822265625,-38.563232421875,-21.250211715698242,-6.657712936401367
1740773076880890000,1.60989013671875,-38.5556640625,-21.242456436157227,-6.758297920227051
1740773076890959000,1.619958984375,-38.151092529296875,-21.280813217163086,-6.659187316894531
1740773076901027300,1.63002734375,-37.88067626953125,-21.213342666625977,-6.777362823486328
1740773076911096000,1.640095947265625,-38.443206787109375,-21.287046432495117,-6.464303970336914
1740773076921163800,1.650163818359375,-38.42437744140625,-21.242647171020508,-6.488851547241211
1740773076931231700,1.660231689453125,-38.5301513671875,-21.23927879333496,-6.55002498626709
1740773076941301000,1.670301025390625,-38.904693603515625,-21.340843200683594,-6.925938606262207
1740773076951369700,1.68036962890625,-38.555938720703125,-21.167661666870117,-6.6443939208984375
1740773076961438000,1.69043798828125,-38.71234130859375,-21.239288330078125,-6.718670845031738
1740773076971507000,1.7005068359375,-38.540557861328125,-21.235614776611328,-6.795722007751465
1740773076981574700,1.71057470703125,-38.730987548828125,-21.411333084106445,-6.699082374572754
1740773076991644000,1.720643798828125,-38.53289794921875,-21.265302658081055,-6.698932647705078
1740773077001713000,1.730712890625,-38.01806640625,-21.205739974975586,-6.680519104003906
1740773077011780900,1.74078076171875,-38.45574951171875,-21.117340087890625,-6.71888542175293
1740773077021849900,1.750849853515625,-38.049530029296875,-20.778371810913086,-6.553088188171387
1740773077031917800,1.760917724609375,-38.55694580078125,-21.065027236938477,-6.611294746398926
1740773077041986800,1.77098681640625,-38.436309814453125,-21.12387466430664,-6.472951889038086
1740773077052055800,1.781055908203125,-38.44677734375,-21.09810447692871,-6.5653886795043945
1740773077062123800,1.791123779296875,-38.35638427734375,-20.853435516357422,-6.533350944519043
1740773077072193000,1.801193115234375,-38.0294189453125,-20.937715530395508,-6.358778953552246
1740773077082261800,1.81126171875,-38.28033447265625,-20.95506477355957,-6.575608253479004
1740773077092329700,1.821329833984375,-38.668365478515625,-21.241798400878906,-6.776640892028809
1740773077102399000,1.83139892578125,-38.4632568359375,-21.232803344726562,-6.7616472244262695
1740773077112466700,1.841466796875,-38.58160400390625,-21.083892822265625,-6.743505477905273
1740773077122536000,1.851535888671875,-38.519744873046875,-21.377702713012695,-6.891362190246582
1740773077132605000,1.86160498046875,-38.460113525390625,-21.180923461914062,-6.56070613861084
1740773077142673000,1.8716728515625,-38.770599365234375,-21.13652229309082,-6.474479675292969
1740773077152742000,1.881741943359375,-38.813385009765625,-20.969228744506836,-6.581455230712891
1740773077162811000,1.891810791015625,-38.478424072265625,-20.900808334350586,-6.575835227966309
1740773077172878800,1.90187890625,-38.511077880859375,-20.61720085144043,-6.372933387756348
1740773077182947800,1.91194775390625,-38.90362548828125,-20.488540649414062,-6.499752998352051
1740773077193015800,1.922015869140625,-38.58270263671875,-20.702129364013672,-6.599847793579102
1740773077203085000,1.9320849609375,-39.050018310546875,-20.853290557861328,-6.640070915222168
1740773077213153800,1.94215380859375,-38.8179931640625,-20.651947021484375,-6.746018409729004
1740773077223221800,1.9522216796875,-38.668304443359375,-20.590845108032227,-6.556083679199219
1740773077233291000,1.962291015625,-38.77716064453125,-20.49602699279785,-6.677075386047363
1740773077243359000,1.97235888671875,-38.694488525390625,-20.706825256347656,-6.7818098068237305
1740773077253427700,1.982427734375,-38.290802001953125,-20.910953521728516,-6.566706657409668
1740773077263497000,1.9924970703125,-38.56890869140625,-20.88405990600586,-6.622713088989258
1740773077273565000,2.00256494140625,-38.869903564453125,-20.776491165161133,-6.732192039489746
1740773077283634000,2.012634033203125,-38.790496826171875,-20.815465927124023,-6.679385185241699
1740773077293703000,2.022702880859375,-38.64703369140625,-21.08920669555664,-6.932802200317383
1740773077303771000,2.03277099609375,-38.48406982421875,-20.86700439453125,-6.900908470153809
1740773077313839900,2.04283984375,-38.357635498046875,-20.866628646850586,-7.0001726150512695
1740773077323907800,2.052907958984375,-38.71136474609375,-20.839513778686523,-6.80222225189209
1740773077333976800,2.062976806640625,-38.796142578125,-20.43434715270996,-6.751156806945801
1740773077344045800,2.0730458984375,-39.07452392578125,-20.631305694580078,-6.701266288757324
1740773077354113800,2.08311376953125,-38.859344482421875,-20.40794563293457,-6.673127174377441
1740773077364183000,2.09318310546875,-38.664031982421875,-20.10249900817871,-6.898283958435059
1740773077374251800,2.103251708984375,-38.83160400390625,-20.10881996154785,-6.889948844909668
1740773077384319700,2.11331982421875,-38.72955322265625,-20.197500228881836,-6.641289710998535
1740773077394389000,2.123388916015625,-39.069854736328125,-20.383695602416992,-6.839053153991699
1740773077404457000,2.13345703125,-39.212188720703125,-20.244688034057617,-7.087034225463867
1740773077414525700,2.143525634765625,-39.168121337890625,-20.162006378173828,-6.7991743087768555
1740773077424595000,2.153594970703125,-38.954742431640625,-20.049224853515625,-6.632865905761719
1740773077434663000,2.163662841796875,-38.81817626953125,-20.090951919555664,-6.805817604064941
1740773077444732000,2.17373193359375,-38.81951904296875,-19.97264289855957,-6.916454315185547
1740773077454801000,2.18380078125,-38.8193359375,-20.063587188720703,-6.809604644775391
1740773077464868900,2.193868896484375,-38.6400146484375,-20.079790115356445,-6.713370323181152
1740773077474937900,2.203937744140625,-38.90771484375,-19.883983612060547,-6.826929092407227
1740773077485005800,2.214005859375,-38.945953369140625,-19.919042587280273,-6.813106536865234
1740773077495074800,2.22407470703125,-38.844085693359375,-20.19759750366211,-6.9052228927612305
1740773077505143800,2.234143798828125,-38.497802734375,-20.333127975463867,-7.017195701599121
1740773077515211800,2.244211669921875,-38.611236572265625,-20.22823143005371,-6.812329292297363
1740773077525281000,2.254281005859375,-38.5233154296875,-20.105154037475586,-6.9314727783203125
1740773077535349800,2.264349853515625,-38.701019287109375,-19.955530166625977,-6.920833587646484
1740773077545417700,2.274417724609375,-38.54022216796875,-20.063968658447266,-6.878508567810059
1740773077555487000,2.284487060546875,-38.77716064453125,-20.198162078857422,-7.103875160217285
1740773077565555000,2.294554931640625,-38.92034912109375,-20.138208389282227,-6.874866485595703
1740773077575623700,2.304623779296875,-38.811248779296875,-20.09482765197754,-6.902299880981445
1740773077585693000,2.31469287109375,-38.85137939453125,-19.924057006835938,-6.649444580078125
1740773077595761000,2.324760986328125,-38.926361083984375,-20.020418167114258,-6.77430534362793
1740773077605830000,2.334829833984375,-38.91961669921875,-20.244712829589844,-6.872445106506348
1740773077615899000,2.34489892578125,-39.237060546875,-19.947656631469727,-6.903127670288086
1740773077625966800,2.354966796875,-39.604736328125,-19.90082550048828,-6.711508750915527
1740773077636035800,2.365035888671875,-39.41412353515625,-20.032766342163086,-7.06024169921875
1740773077646103800,2.375103759765625,-39.209075927734375,-20.35081672668457,-7.04758358001709
1740773077656172800,2.3851728515625,-38.78521728515625,-20.384092330932617,-7.184076309204102
1740773077666241800,2.39524169921875,-39.148162841796875,-20.340118408203125,-7.181169509887695
1740773077676309800,2.405309814453125,-39.449127197265625,-20.176034927368164,-7.115653991699219
1740773077686379000,2.41537890625,-39.051116943359375,-20.233200073242188,-7.084847450256348
1740773077696447700,2.42544775390625,-39.12396240234375,-20.059696197509766,-7.170295715332031
1740773077706515700,2.435515625,-38.966796875,-20.040071487426758,-7.198784828186035
1740773077716585000,2.4455849609375,-38.90301513671875,-20.221881866455078,-7.175859451293945
1740773077726653700,2.45565380859375,-38.903106689453125,-20.234743118286133,-7.0994062423706055
1740773077736721700,2.4657216796875,-39.0333251953125,-20.191606521606445,-7.033546447753906
1740773077746791000,2.475791015625,-39.120574951171875,-19.969240188598633,-6.841849327087402
1740773077756859000,2.48585888671875,-39.037628173828125,-20.38770866394043,-7.128426551818848
1740773077766928000,2.495927978515625,-39.2724609375,-20.145292282104492,-7.061160087585449
1740773077776996900,2.505996826171875,-38.872833251953125,-19.932403564453125,-7.013677597045898
1740773077787064800,2.51606494140625,-38.7059326171875,-19.76537322998047,-6.846880912780762
1740773077797133800,2.5261337890625,-38.798126220703125,-19.693021774291992,-6.773647308349609
1740773077807201800,2.536201904296875,-38.7684326171875,-19.723953247070312,-6.791512489318848
1740773077817270800,2.546270751953125,-38.908477783203125,-19.98701286315918,-6.950905799865723
1740773077827339800,2.55633984375,-38.755401611328125,-19.910171508789062,-6.75057315826416
1740773077837407700,2.56640771484375,-38.916259765625,-19.885637283325195,-6.656923294067383
1740773077847477000,2.57647705078125,-39.092559814453125,-19.9246768951416,-6.732595443725586
1740773077857545700,2.586545654296875,-39.345428466796875,-19.963153839111328,-6.748904228210449
1740773077867613700,2.59661376953125,-39.15008544921875,-19.83209991455078,-6.647966384887695
1740773077877683000,2.606682861328125,-39.415069580078125,-19.68177604675293,-6.817680358886719
1740773077887752000,2.616751953125,-39.248199462890625,-19.529800415039062,-6.913139343261719
1740773077897819600,2.626819580078125,-39.287322998046875,-19.490901947021484,-7.065481185913086
1740773077907889000,2.636888916015625,-38.9622802734375,-19.547990798950195,-7.069039344787598
1740773077917957400,2.646957275390625,-38.82080078125,-19.606876373291016,-6.847115516662598
1740773077928026000,2.657026123046875,-39.182586669921875,-19.622346878051758,-6.9273786544799805
1740773077938095400,2.667095458984375,-39.120452880859375,-19.682344436645508,-7.12880802154541
1740773077948163300,2.677163330078125,-39.373870849609375,-19.486614227294922,-7.055843353271484
1740773077958232000,2.687232177734375,-39.3868408203125,-19.45017433166504,-6.8260908126831055
1740773077968301300,2.69730126953125,-39.132904052734375,-19.54155158996582,-6.649019241333008
1740773077978369300,2.707369384765625,-39.347991943359375,-19.299394607543945,-6.642854690551758
1740773077988438300,2.717438232421875,-38.93798828125,-19.090805053710938,-6.371082305908203
1740773077998506200,2.72750634765625,-38.96856689453125,-19.29342269897461,-6.611017227172852
1740773078008575200,2.7375751953125,-39.24420166015625,-19.45660400390625,-6.602882385253906
1740773078018644200,2.747644287109375,-39.06842041015625,-19.55478858947754,-6.6423749923706055
1740773078028712200,2.757712158203125,-39.369476318359375,-19.63327407836914,-6.634697914123535
1740773078038781200,2.76778125,-39.48944091796875,-19.63097381591797,-6.860285758972168
1740773078048850200,2.77785009765625,-39.5933837890625,-19.646507263183594,-6.66514778137207
1740773078058918100,2.787918212890625,-39.26171875,-19.640132904052734,-6.56060791015625
1740773078068987400,2.7979873046875,-39.4193115234375,-19.59586524963379,-6.628192901611328
1740773078079055400,2.808055419921875,-39.541290283203125,-19.744726181030273,-6.581681251525879
1740773078089124000,2.8181240234375,-39.353546142578125,-19.75109100341797,-6.504650115966797
1740773078099193300,2.828193359375,-39.1390380859375,-19.706052780151367,-6.563213348388672
1740773078109261300,2.83826123046875,-39.029449462890625,-19.832521438598633,-6.691493988037109
1740773078119330000,2.848330078125,-39.147613525390625,-19.866113662719727,-6.307956695556641
1740773078129399300,2.8583994140625,-38.851959228515625,-20.084409713745117,-6.241642951965332
1740773078139467300,2.86846728515625,-38.806427001953125,-20.170194625854492,-6.34965705871582
1740773078149536300,2.878536376953125,-39.025787353515625,-20.02686309814453,-6.4469757080078125
1740773078159605200,2.888605224609375,-39.420989990234375,-19.95041847229004,-6.512399673461914
1740773078169673200,2.898673095703125,-39.2274169921875,-20.09782600402832,-6.340775489807129
1740773078179742500,2.908742431640625,-39.2080078125,-20.106094360351562,-6.256365776062012
1740773078189810200,2.91881005859375,-39.009063720703125,-20.276466369628906,-6.230878829956055
1740773078199879200,2.928879150390625,-39.225372314453125,-20.06770896911621,-6.055649757385254
1740773078209948400,2.938948486328125,-39.559234619140625,-19.928455352783203,-5.853598594665527
1740773078220016000,2.94901611328125,-39.427398681640625,-19.881736755371094,-5.836306571960449
1740773078230085400,2.95908544921875,-39.582550048828125,-19.738344192504883,-5.775856018066406
1740773078240154400,2.969154296875,-39.44793701171875,-19.83875274658203,-6.265840530395508
1740773078250222000,2.97922216796875,-39.078094482421875,-19.908626556396484,-6.143518447875977
1740773078260291300,2.989291259765625,-39.350982666015625,-19.88883399963379,-5.962223052978516
1740773078270360300,2.9993603515625,-39.952423095703125,-19.979936599731445,-6.127754211425781
1740773078280428300,3.00942822265625,-39.6297607421875,-19.891128540039062,-5.784128189086914
1740773078290497300,3.019497314453125,-39.3223876953125,-19.64347267150879,-5.470192909240723
1740773078300565200,3.029565185546875,-39.61651611328125,-19.50901985168457,-5.67208194732666
1740773078310634500,3.039634521484375,-39.7322998046875,-19.42523193359375,-5.620938301086426
1740773078320703200,3.049703125,-39.519195556640625,-19.550018310546875,-5.43544864654541
1740773078330771200,3.059771240234375,-39.719757080078125,-19.361778259277344,-5.364339828491211
1740773078340840400,3.06984033203125,-39.966552734375,-19.53619384765625,-5.243990898132324
1740773078350909200,3.0799091796875,-40.280059814453125,-19.189071655273438,-5.142921447753906
1740773078360977200,3.08997705078125,-40.2288818359375,-19.254562377929688,-5.040331840515137
1740773078371046400,3.10004638671875,-40.109405517578125,-19.387874603271484,-5.093832969665527
1740773078381115100,3.110115234375,-40.024993896484375,-19.274137496948242,-5.058082580566406
1740773078391183400,3.120183349609375,-40.040069580078125,-19.085407257080078,-5.164872169494629
1740773078401252400,3.13025244140625,-40.325836181640625,-19.04151725769043,-5.248721122741699
1740773078411320300,3.1403203125,-40.308013916015625,-19.214738845825195,-5.006519317626953
1740773078421389300,3.150389404296875,-40.255889892578125,-19.109752655029297,-4.891979217529297
1740773078431458300,3.160458251953125,-40.376617431640625,-19.042299270629883,-4.866933822631836
1740773078441526300,3.1705263671875,-40.221649169921875,-19.08334732055664,-4.91939640045166
1740773078451595300,3.18059521484375,-40.290557861328125,-18.95255470275879,-4.8883056640625
1740773078461664300,3.190664306640625,-40.212005615234375,-18.960674285888672,-4.837211608886719
1740773078471732500,3.200732421875,-40.565338134765625,-18.98602867126465,-4.737656593322754
1740773078481801200,3.21080126953125,-40.184539794921875,-19.062463760375977,-4.403685569763184
1740773078491870200,3.2208701171875,-40.205230712890625,-18.936710357666016,-4.632118225097656
1740773078501938400,3.2309384765625,-40.359283447265625,-18.87454605102539,-4.777157783508301
1740773078512007200,3.241007080078125,-40.829376220703125,-18.561424255371094,-4.683013916015625
1740773078522075100,3.2510751953125,-40.909759521484375,-18.341554641723633,-4.605011940002441
1740773078532144400,3.261144287109375,-40.649810791015625,-18.479612350463867,-4.592952728271484
1740773078542213000,3.271213134765625,-40.881561279296875,-18.512147903442383,-4.576236724853516
1740773078552281300,3.28128125,-40.411895751953125,-18.252187728881836,-4.412640571594238
1740773078562350300,3.291350341796875,-40.425872802734375,-18.420656204223633,-4.436192512512207
1740773078572419000,3.301419189453125,-40.275604248046875,-18.33746910095215,-4.462926864624023
1740773078582487300,3.3114873046875,-40.463592529296875,-18.639123916625977,-4.472216606140137
1740773078592556300,3.321556396484375,-40.892242431640625,-18.56410789489746,-4.170609474182129
1740773078602624300,3.331624267578125,-40.847808837890625,-18.587600708007812,-4.346382141113281
1740773078612693200,3.341693359375,-41.066131591796875,-18.682575225830078,-4.355441093444824
1740773078622762200,3.35176220703125,-40.854034423828125,-18.51368522644043,-4.435152053833008
1740773078632830500,3.36183056640625,-40.769256591796875,-18.587364196777344,-4.412253379821777
1740773078642899200,3.371899169921875,-40.707122802734375,-18.662954330444336,-4.3903303146362305
1740773078652968200,3.38196826171875,-40.912628173828125,-18.87197494506836,-4.470548629760742
1740773078663036400,3.392036376953125,-40.936065673828125,-18.720043182373047,-4.316518783569336
1740773078673105200,3.402105224609375,-40.780670166015625,-18.970561981201172,-4.257561683654785
1740773078683174400,3.41217431640625,-40.817230224609375,-19.158674240112305,-4.535109519958496
1740773078693242400,3.422242431640625,-40.616851806640625,-19.0057373046875,-4.460700035095215
1740773078703311000,3.43231103515625,-40.638824462890625,-19.111419677734375,-4.50079345703125
1740773078713380400,3.44238037109375,-40.625335693359375,-19.45358657836914,-4.726376533508301
1740773078723448300,3.4524482421875,-40.718231201171875,-19.238752365112305,-4.435242652893066
1740773078733517000,3.46251708984375,-40.673675537109375,-18.988445281982422,-4.34238338470459
1740773078743585300,3.472585205078125,-40.922821044921875,-18.978290557861328,-4.36539363861084
1740773078753654300,3.482654296875,-40.532073974609375,-18.9038028717041,-4.085037708282471
1740773078763723300,3.49272314453125,-40.450531005859375,-18.67256736755371,-4.25189208984375
1740773078773791200,3.502791259765625,-40.584564208984375,-18.970760345458984,-4.310569763183594
1740773078783860200,3.512860107421875,-40.612579345703125,-18.70737648010254,-4.238981246948242
1740773078793929200,3.52292919921875,-40.465362548828125,-18.701295852661133,-4.115396022796631
1740773078803997200,3.5329970703125,-40.425506591796875,-18.73523712158203,-4.048227310180664
1740773078814066200,3.543066162109375,-40.576263427734375,-18.723295211791992,-4.266446113586426
1740773078824135400,3.553135498046875,-40.801849365234375,-18.586284637451172,-4.292716026306152
1740773078834203100,3.563203125,-40.646026611328125,-18.543306350708008,-4.238167762756348
1740773078844272400,3.5732724609375,-40.700347900390625,-18.5207576751709,-4.387419700622559
1740773078854340400,3.58334033203125,-40.584625244140625,-18.632844924926758,-4.4517412185668945
1740773078864409000,3.5934091796875,-40.416595458984375,-18.893774032592773,-4.7110185623168945
1740773078874478300,3.603478271484375,-40.911468505859375,-18.915979385375977,-4.745481491088867
1740773078884546300,3.61354638671875,-40.363433837890625,-18.997303009033203,-4.756260871887207
1740773078894615300,3.623615234375,-40.01959228515625,-19.288021087646484,-4.780670166015625
1740773078904684300,3.633684326171875,-40.255279541015625,-19.543682098388672,-4.593552589416504
1740773078914752300,3.643752197265625,-39.78900146484375,-19.671735763549805,-4.532393455505371
1740773078924821000,3.653821044921875,-40.306671142578125,-19.85301399230957,-4.162117004394531
1740773078934889700,3.6638896484375,-39.621185302734375,-19.79730224609375,-4.078761100769043
1740773078944958000,3.6739580078125,-39.608917236328125,-20.023542404174805,-3.9357800483703613
1740773078955027000,3.68402685546875,-39.82781982421875,-20.108671188354492,-4.142148017883301
1740773078965095000,3.694094970703125,-40.078155517578125,-20.173202514648438,-4.056278228759766
1740773078975164000,3.704163818359375,-39.872100830078125,-19.99537467956543,-4.048365592956543
1740773078985233000,3.71423291015625,-40.00177001953125,-20.134265899658203,-4.0202317237854
1740773078995301000,3.724301025390625,-40.276153564453125,-20.18940544128418,-4.327478408813477
1740773079005369900,3.734369873046875,-39.596771240234375,-20.33823013305664,-4.303733825683594
1740773079015438800,3.74443896484375,-39.39990234375,-20.477651596069336,-4.197683334350586
1740773079025507000,3.754507080078125,-39.65692138671875,-20.36148452758789,-4.27996826171875
1740773079035575800,3.764575927734375,-39.6934814453125,-20.49091911315918,-4.506130218505859
1740773079045645000,3.77464501953125,-39.75750732421875,-20.407243728637695,-4.651800155639648
1740773079055713000,3.784713134765625,-39.805633544921875,-20.452123641967773,-4.79335880279541
1740773079065781800,3.79478173828125,-39.605926513671875,-20.506563186645508,-4.628263473510742
1740773079075850000,3.80485009765625,-39.488677978515625,-20.413389205932617,-4.840825080871582
1740773079085919000,3.8149189453125,-39.779266357421875,-20.347387313842773,-5.16166877746582
1740773079095987700,3.82498779296875,-39.48248291015625,-20.43381118774414,-5.381715774536133
1740773079106056000,3.835055908203125,-39.735595703125,-20.248044967651367,-5.564572334289551
1740773079116125000,3.845125,-39.837432861328125,-20.234920501708984,-5.373319625854492
1740773079126194000,3.85519384765625,-39.84326171875,-20.13265609741211,-5.628617286682129
1740773079136262000,3.865261962890625,-39.770263671875,-20.176340103149414,-5.841198921203613
1740773079146331000,3.875330810546875,-39.92449951171875,-19.91748809814453,-5.778328895568848
1740773079156399900,3.88539990234375,-40.148284912109375,-20.051240921020508,-6.008119583129883
1740773079166467800,3.8954677734375,-39.76837158203125,-19.88446044921875,-5.725496292114258
1740773079176536800,3.905536865234375,-39.588714599609375,-19.917705535888672,-5.916506767272949
1740773079186605800,3.915605712890625,-39.894927978515625,-20.034643173217773,-6.233526229858398
1740773079196673800,3.925673828125,-39.49920654296875,-19.786479949951172,-6.403618812561035
1740773079206743000,3.935742919921875,-39.59942626953125,-19.766948699951172,-6.507471084594727
1740773079216811000,3.94581103515625,-39.41204833984375,-19.724035263061523,-6.793303489685059
1740773079226879700,3.955879638671875,-39.273040771484375,-19.933950424194336,-6.676605224609375
1740773079236949000,3.965948974609375,-39.59478759765625,-19.764371871948242,-6.70621395111084
1740773079247017000,3.976016845703125,-39.864227294921875,-19.83155632019043,-6.55551815032959
1740773079257085700,3.986085693359375,-39.652862548828125,-19.73288345336914,-6.890255928039551
1740773079267155000,3.996155029296875,-39.115325927734375,-19.683731079101562,-6.755110740661621
1740773079277223000,4.006222900390625,-39.37969970703125,-19.832172393798828,-6.791520118713379
1740773079287292000,4.0162919921875,-39.515899658203125,-19.788009643554688,-6.567767143249512
1740773079297361000,4.02636083984375,-39.631011962890625,-19.68012237548828,-6.601346969604492
1740773079307428900,4.036428955078125,-39.83868408203125,-19.48573112487793,-6.869438171386719
1740773079317497900,4.046497802734375,-39.51385498046875,-19.470903396606445,-6.6929473876953125
1740773079327565800,4.05656591796875,-39.985565185546875,-19.46934700012207,-6.6222381591796875
1740773079337634800,4.066634765625,-39.70684814453125,-19.273561477661133,-6.206146240234375
1740773079347703800,4.076703857421875,-40.0421142578125,-19.157474517822266,-6.328387260437012
1740773079357771800,4.086771728515625,-39.833465576171875,-19.03813362121582,-6.475744247436523
1740773079367841000,4.096841064453125,-40.050567626953125,-19.14165496826172,-6.499006271362305
1740773079377910000,4.106909912109375,-39.87921142578125,-19.03239631652832,-6.361087799072266
1740773079387977700,4.116977783203125,-39.547576904296875,-19.436161041259766,-6.420668601989746
1740773079398047000,4.127046875,-39.923797607421875,-19.485984802246094,-6.458432197570801
1740773079408116000,4.137115966796875,-39.695648193359375,-19.476171493530273,-6.380475997924805
1740773079418183700,4.14718359375,-39.722991943359375,-19.485177993774414,-6.259477615356445
1740773079428253000,4.1572529296875,-39.74468994140625,-19.621091842651367,-6.602089881896973
1740773079438321000,4.16732080078125,-39.5238037109375,-19.520769119262695,-6.518307685852051
1740773079448390000,4.177389892578125,-39.83575439453125,-19.554384231567383,-6.529786109924316
1740773079458459000,4.187458984375,-39.525146484375,-19.238731384277344,-6.6766204833984375
1740773079468526800,4.19752685546875,-39.82330322265625,-19.3162784576416,-6.710911750793457
1740773079478596000,4.20759619140625,-39.790069580078125,-19.30162811279297,-6.64546012878418
1740773079488664800,4.217664794921875,-39.615814208984375,-19.192773818969727,-6.6149444580078125
1740773079498732800,4.22773291015625,-39.89990234375,-19.214506149291992,-7.129375457763672
1740773079508802000,4.237802001953125,-39.886199951171875,-19.089372634887695,-6.797579765319824
1740773079518870800,4.247870849609375,-39.512969970703125,-18.978601455688477,-6.853297233581543
1740773079528939000,4.25793896484375,-39.608245849609375,-18.777799606323242,-6.71889591217041
1740773079539008000,4.268008056640625,-39.744293212890625,-18.75493812561035,-6.502593040466309
1740773079549076000,4.278075927734375,-39.87335205078125,-18.95745086669922,-6.322975158691406
1740773079559145000,4.28814501953125,-39.839447021484375,-18.917661666870117,-6.401263236999512
1740773079569214000,4.2982138671875,-39.81884765625,-18.66434097290039,-6.251508712768555
1740773079579282000,4.308281982421875,-39.630340576171875,-18.37278938293457,-6.2827558517456055
1740773079589351000,4.318350830078125,-40.023406982421875,-18.513763427734375,-6.461458206176758
1740773079599420000,4.328419921875,-39.87017822265625,-18.558120727539062,-6.489012718200684
1740773079609488000,4.33848779296875,-39.77862548828125,-18.56342124938965,-6.29892635345459
1740773079619556900,4.348556884765625,-39.6298828125,-18.710962295532227,-6.42255973815918
1740773079629625900,4.3586259765625,-39.5787353515625,-18.775299072265625,-6.425195693969727
1740773079639694000,4.368694091796875,-39.90032958984375,-18.90329360961914,-6.3687028884887695
1740773079649762800,4.3787626953125,-39.63848876953125,-18.83521270751953,-6.494619369506836
1740773079659830800,4.388830810546875,-39.933929443359375,-18.86572265625,-6.324220657348633
1740773079669900000,4.398900146484375,-39.7783203125,-19.007320404052734,-6.4004716873168945
1740773079679968800,4.40896875,-39.214080810546875,-19.068153381347656,-6.377942085266113
1740773079690036700,4.41903662109375,-39.046356201171875,-19.228858947753906,-6.253222465515137
1740773079700106000,4.42910595703125,-39.26434326171875,-19.410381317138672,-6.431013107299805
1740773079710174700,4.4391748046875,-39.527557373046875,-19.50177764892578,-6.7585859298706055
1740773079720243000,4.449242919921875,-39.348785400390625,-19.34409523010254,-6.721686363220215
1740773079730312000,4.45931201171875,-39.128936767578125,-19.336944580078125,-6.708695411682129
1740773079740381000,4.469380859375,-39.074371337890625,-19.537166595458984,-7.013623237609863
1740773079750449000,4.479448974609375,-38.9017333984375,-19.504371643066406,-6.941834449768066
1740773079760518000,4.489517822265625,-38.863555908203125,-19.34419059753418,-6.863144874572754
1740773079770585900,4.4995859375,-38.958587646484375,-19.28659439086914,-6.908013343811035
1740773079780654800,4.50965478515625,-38.802276611328125,-19.536039352416992,-6.630722999572754
1740773079790723800,4.519723876953125,-38.516845703125,-19.509323120117188,-6.478862762451172
1740773079800792000,4.5297919921875,-38.508453369140625,-19.762405395507812,-6.644213676452637
1740773079810860800,4.53986083984375,-38.7073974609375,-19.811216354370117,-6.574276924133301
1740773079820930000,4.549929931640625,-38.413421630859375,-20.121259689331055,-6.284911155700684
1740773079830998000,4.559998046875,-38.747589111328125,-20.34501075744629,-6.355258941650391
1740773079841066800,4.570066650390625,-38.43292236328125,-20.638126373291016,-6.2925920486450195
1740773079851136000,4.580135986328125,-38.48809814453125,-20.699499130249023,-6.255653381347656
1740773079861204000,4.590203857421875,-38.331024169921875,-20.559328079223633,-5.984236717224121
1740773079871272700,4.600272705078125,-38.108642578125,-20.718093872070312,-5.715348243713379
1740773079881341000,4.6103408203125,-38.296356201171875,-21.082759857177734,-5.640140533447266
1740773079891410000,4.620409912109375,-37.976531982421875,-20.64250373840332,-5.481172561645508
1740773079901479000,4.63047900390625,-37.83258056640625,-21.10151481628418,-5.618803977966309
1740773079911547000,4.640546875,-37.799407958984375,-21.088706970214844,-5.401100158691406
1740773079921616100,4.6506162109375,-38.292694091796875,-21.214338302612305,-5.286687850952148
1740773079931684900,4.660684814453125,-37.92132568359375,-21.28857421875,-5.1230573654174805
1740773079941752800,4.6707529296875,-38.186553955078125,-21.2631778717041,-5.0845746994018555
1740773079951822000,4.680822021484375,-37.935028076171875,-21.442035675048828,-5.252928733825684
1740773079961890800,4.690890869140625,-38.283599853515625,-21.267120361328125,-5.323298454284668
1740773079971958800,4.700958740234375,-38.218902587890625,-21.46628761291504,-5.228631973266602
1740773079982028000,4.711028076171875,-38.057464599609375,-21.502614974975586,-5.087441444396973
1740773079992096000,4.721095947265625,-37.68072509765625,-21.46134376525879,-4.901693344116211
1740773080002165000,4.7311650390625,-37.53424072265625,-21.520713806152344,-4.650941848754883
1740773080012234000,4.74123388671875,-38.115814208984375,-21.533573150634766,-4.54488468170166
1740773080022302000,4.751302001953125,-37.939666748046875,-21.230504989624023,-4.452882766723633
1740773080032371000,4.761370849609375,-37.897186279296875,-21.244129180908203,-4.339162826538086
1740773080042440000,4.77143994140625,-37.956695556640625,-21.346370697021484,-3.900296211242676
1740773080052508000,4.7815078125,-37.83575439453125,-21.227787017822266,-3.9625015258789062
1740773080062577000,4.791576904296875,-38.20306396484375,-21.22225570678711,-4.347474098205566
1740773080072646000,4.80164599609375,-37.70977783203125,-21.200716018676758,-4.212075233459473
1740773080082714000,4.811714111328125,-38.05535888671875,-21.065536499023438,-4.371490478515625
1740773080092782800,4.821782958984375,-38.43927001953125,-21.062572479248047,-4.251702308654785
1740773080102850800,4.831850830078125,-38.35968017578125,-21.206878662109375,-4.386643409729004
1740773080112920000,4.841920166015625,-38.533172607421875,-21.1750431060791,-4.485698699951172
1740773080122989000,4.851989013671875,-38.395660400390625,-20.944244384765625,-4.59108829498291
1740773080133056800,4.862056884765625,-38.2957763671875,-20.855567932128906,-4.430741310119629
1740773080143126000,4.8721259765625,-38.271636962890625,-20.751462936401367,-4.71031379699707
1740773080153195000,4.882195068359375,-38.654083251953125,-20.663312911987305,-4.78803825378418
1740773080163263000,4.892262939453125,-38.1949462890625,-20.739381790161133,-4.863865852355957
1740773080173332000,4.90233203125,-38.225830078125,-20.685516357421875,-4.6301116943359375
1740773080183401000,4.91240087890625,-38.585479736328125,-20.590770721435547,-4.327546119689941
1740773080193469000,4.922468994140625,-38.4937744140625,-20.610624313354492,-4.5037336349487305
1740773080203538000,4.932537841796875,-38.761749267578125,-20.650005340576172,-4.494266510009766
1740773080213606000,4.94260595703125,-38.4241943359375,-20.62857437133789,-4.440070152282715
1740773080223675100,4.952675048828125,-38.488372802734375,-20.52347755432129,-4.512845993041992
1740773080233744000,4.962743896484375,-38.48846435546875,-20.585359573364258,-4.447016716003418
1740773080243812000,4.97281201171875,-38.36474609375,-20.363649368286133,-4.422528266906738
1740773080253881000,4.982881103515625,-38.58831787109375,-20.665796279907227,-4.3465375900268555
1740773080263949800,4.99294970703125,-38.556793212890625,-20.473115921020508,-4.554920196533203
1740773080274018000,5.00301806640625,-38.34332275390625,-20.441879272460938,-4.76766300201416
1740773080284087000,5.013087158203125,-38.450592041015625,-20.390451431274414,-4.423352241516113
1740773080294156000,5.023156005859375,-38.71929931640625,-20.324125289916992,-4.4678850173950195
1740773080304224000,5.03322412109375,-38.281036376953125,-20.390207290649414,-4.393133163452148
1740773080314293000,5.04329296875,-38.469940185546875,-20.275630950927734,-4.435628890991211
1740773080324361000,5.05336083984375,-38.257904052734375,-20.473054885864258,-4.652726173400879
1740773080334430000,5.063429931640625,-38.358612060546875,-20.40909194946289,-4.511181831359863
1740773080344499000,5.0734990234375,-38.070953369140625,-20.50339698791504,-4.32845401763916
1740773080354567200,5.083567138671875,-38.32098388671875,-20.305805206298828,-4.4751739501953125
1740773080364636000,5.093635986328125,-38.611236572265625,-20.27461051940918,-4.5462188720703125
1740773080374705200,5.103705078125,-38.3426513671875,-20.337810516357422,-4.543013572692871
1740773080384773000,5.113773193359375,-38.405120849609375,-20.212491989135742,-4.392999649047852
1740773080394841900,5.123841796875,-38.558807373046875,-20.20285987854004,-4.536684036254883
1740773080404911000,5.1339111328125,-38.476531982421875,-20.032373428344727,-4.542788505554199
1740773080414979000,5.14397900390625,-37.84320068359375,-19.929533004760742,-4.487042427062988
1740773080425047800,5.1540478515625,-38.0069580078125,-19.884675979614258,-4.472322463989258
1740773080435116000,5.164115966796875,-38.110260009765625,-19.85421371459961,-4.555723190307617
1740773080445185000,5.17418505859375,-38.634979248046875,-20.1877384185791,-4.660947799682617
1740773080455254000,5.18425390625,-38.262451171875,-20.25137710571289,-4.570296287536621
1740773080465322000,5.194322021484375,-38.43194580078125,-20.432891845703125,-4.6199798583984375
1740773080475391000,5.204390869140625,-38.07781982421875,-20.553016662597656,-4.396915435791016
1740773080485460000,5.2144599609375,-37.96612548828125,-20.4187068939209,-3.954153060913086
1740773080495528000,5.22452783203125,-37.938690185546875,-20.781085968017578,-4.0338287353515625
1740773080505597000,5.234596923828125,-38.0570068359375,-20.621736526489258,-3.9757490158081055
1740773080515666000,5.244666015625,-37.855865478515625,-20.35042381286621,-3.7902936935424805
1740773080525734000,5.25473388671875,-37.487152099609375,-20.651958465576172,-3.699120044708252
1740773080535803100,5.26480322265625,-37.3106689453125,-20.226613998413086,-3.739365577697754
1740773080545871000,5.27487109375,-37.779296875,-20.500301361083984,-3.948366641998291
1740773080555939800,5.28493994140625,-37.82427978515625,-20.579418182373047,-3.922858238220215
1740773080566009000,5.295009033203125,-38.364990234375,-20.0387020111084,-3.860680103302002
1740773080576077000,5.3050771484375,-38.06884765625,-19.79156494140625,-3.748396396636963
1740773080586145800,5.315145751953125,-38.45416259765625,-19.871082305908203,-3.7926878929138184
1740773080596215000,5.325215087890625,-38.336761474609375,-19.98270034790039,-3.983595371246338
1740773080606283000,5.335282958984375,-37.893035888671875,-20.181243896484375,-4.109068870544434
1740773080616352000,5.34535205078125,-37.67681884765625,-20.348613739013672,-4.307035446166992
1740773080626420000,5.355419921875,-37.4534912109375,-20.296323776245117,-4.443731307983398
1740773080636489000,5.365489013671875,-37.5731201171875,-20.38577651977539,-4.5051774978637695
1740773080646558000,5.375557861328125,-37.428863525390625,-20.64056968688965,-4.416256904602051
1740773080656626000,5.3856259765625,-36.892120361328125,-20.733652114868164,-4.507302284240723
1740773080666695000,5.39569482421875,-36.873779296875,-21.27303123474121,-4.7204132080078125
1740773080676764000,5.405763916015625,-36.99188232421875,-21.23635482788086,-4.32961368560791
1740773080686831900,5.415831787109375,-36.71319580078125,-21.54376792907715,-4.590984344482422
1740773080696901000,5.425901123046875,-36.4547119140625,-21.79973793029785,-4.516468048095703
1740773080706969900,5.435969970703125,-36.56402587890625,-21.923786163330078,-4.478165626525879
1740773080717037800,5.446037841796875,-36.43487548828125,-21.911420822143555,-4.661558151245117
1740773080727107000,5.456107177734375,-36.750640869140625,-21.85630226135254,-4.708643913269043
1740773080737175000,5.466175048828125,-36.7435302734375,-21.951412200927734,-4.555183410644531
1740773080747243800,5.476243896484375,-37.026763916015625,-22.270418167114258,-4.651209831237793
1740773080757313000,5.48631298828125,-36.766448974609375,-22.122947692871094,-4.414383888244629
1740773080767381000,5.496381103515625,-37.10882568359375,-21.937353134155273,-4.213249206542969
1740773080777450000,5.506449951171875,-36.719757080078125,-21.75787353515625,-4.062836170196533
1740773080787519000,5.51651904296875,-37.207977294921875,-21.527748107910156,-3.922067165374756
1740773080797587000,5.5265869140625,-37.158050537109375,-21.58489418029785,-4.4895219802856445
1740773080807656000,5.536656005859375,-37.079315185546875,-21.520946502685547,-4.219952583312988
1740773080817724000,5.546723876953125,-37.484375,-21.58527183532715,-4.503523826599121
1740773080827793000,5.55679296875,-37.20098876953125,-21.565568923950195,-4.544955253601074
1740773080837862000,5.56686181640625,-37.047332763671875,-21.224241256713867,-4.685450553894043
1740773080847929900,5.576929931640625,-37.29180908203125,-21.154428482055664,-4.573263168334961
1740773080857999000,5.5869990234375,-37.130340576171875,-21.28291893005371,-4.7361955642700195
1740773080868068000,5.597068115234375,-37.17041015625,-21.250816345214844,-4.5662126541137695
1740773080878135800,5.6071357421875,-37.050262451171875,-21.37696075439453,-4.872232437133789
1740773080888205000,5.617205078125,-37.031524658203125,-21.26253890991211,-5.053653717041016
1740773080898274000,5.627274169921875,-36.906982421875,-21.22134017944336,-5.176580429077148
1740773080908341800,5.637341796875,-37.0003662109375,-20.867734909057617,-5.05949592590332
1740773080918411000,5.647410888671875,-36.786529541015625,-21.09971809387207,-5.099603652954102
1740773080928479700,5.657479736328125,-37.139434814453125,-21.129085540771484,-5.348496437072754
1740773080938548500,5.667548583984375,-37.082183837890625,-20.980777740478516,-5.681361198425293
1740773080948617700,5.67761767578125,-37.3203125,-21.17300033569336,-5.745631217956543
1740773080958685700,5.687685791015625,-37.54144287109375,-20.863300323486328,-5.547797203063965
1740773080968754400,5.69775439453125,-37.583984375,-21.034629821777344,-5.461429595947266
1740773080978823700,5.70782373046875,-37.515106201171875,-20.753564834594727,-5.570470809936523
1740773080988891600,5.7178916015625,-37.54949951171875,-20.65176010131836,-5.504396438598633
1740773080998960600,5.727960693359375,-37.92279052734375,-20.349592208862305,-5.648566246032715
1740773081009028600,5.738028564453125,-37.643218994140625,-20.379072189331055,-5.422255516052246
1740773081019097600,5.74809765625,-37.812103271484375,-20.337162017822266,-5.553797721862793
1740773081029166600,5.75816650390625,-38.018951416015625,-20.50765037536621,-5.733416557312012
1740773081039234600,5.768234619140625,-38.101654052734375,-20.4619140625,-5.2613019943237305
1740773081049303600,5.778303466796875,-38.104827880859375,-20.438121795654297,-5.441511154174805
1740773081059372500,5.78837255859375,-37.735382080078125,-20.145166397094727,-5.266009330749512
1740773081069440500,5.7984404296875,-37.765655517578125,-20.131202697753906,-5.3407745361328125
1740773081079509800,5.808509765625,-37.95489501953125,-20.25535011291504,-5.453911781311035
1740773081089578800,5.818578857421875,-37.80908203125,-20.010120391845703,-5.57407283782959
1740773081099646500,5.828646484375,-37.6318359375,-20.143625259399414,-5.333690643310547
1740773081109715700,5.8387158203125,-37.97906494140625,-19.968421936035156,-5.6121320724487305
1740773081119783700,5.84878369140625,-37.362945556640625,-19.824111938476562,-5.7781171798706055
1740773081129852400,5.858852294921875,-37.516326904296875,-19.867366790771484,-5.674990653991699
1740773081139921700,5.868921630859375,-37.593475341796875,-19.85721206665039,-5.797415733337402
1740773081149989600,5.87898974609375,-37.7921142578125,-19.857826232910156,-5.967464447021484
1740773081160058600,5.88905859375,-37.7691650390625,-19.60743522644043,-6.003144264221191
1740773081170127600,5.899127685546875,-37.55999755859375,-19.3129825592041,-5.698777198791504
1740773081180195600,5.909195556640625,-37.51336669921875,-19.42032814025879,-5.496922492980957
1740773081190264600,5.9192646484375,-37.69354248046875,-19.465049743652344,-5.857369422912598
1740773081200332500,5.92933251953125,-37.543792724609375,-19.65275001525879,-5.8855743408203125
1740773081210401500,5.939401611328125,-37.858917236328125,-19.610689163208008,-5.568905830383301
1740773081220470800,5.949470703125,-38.428741455078125,-19.407339096069336,-5.667723655700684
1740773081230538500,5.95953857421875,-38.60235595703125,-19.132081985473633,-5.564419746398926
1740773081240607700,5.969607666015625,-38.4256591796875,-19.05960464477539,-5.255393981933594
1740773081250676700,5.9796767578125,-38.031341552734375,-19.071483612060547,-5.187124252319336
1740773081260744400,5.989744384765625,-38.489715576171875,-18.86014747619629,-5.055422782897949
1740773081270813700,5.999813720703125,-38.39471435546875,-18.828163146972656,-5.380361557006836
1740773081280881700,6.009881591796875,-38.272186279296875,-18.73377227783203,-5.267500877380371
1740773081290950700,6.01995068359375,-38.12164306640625,-18.545438766479492,-5.441244125366211
1740773081301019600,6.03001953125,-38.630615234375,-18.607383728027344,-5.476273536682129
1740773081311087600,6.040087646484375,-38.723388671875,-18.833192825317383,-5.26887321472168
1740773081321156900,6.050156982421875,-38.3974609375,-18.884153366088867,-5.238040924072266
1740773081331225600,6.0602255859375,-38.358184814453125,-19.037202835083008,-5.421550750732422
1740773081341293600,6.07029345703125,-38.042724609375,-18.89592170715332,-5.375906944274902
1740773081351362800,6.08036279296875,-37.956298828125,-18.95122528076172,-5.49907112121582
1740773081361431600,6.090431640625,-37.89251708984375,-19.09286117553711,-5.384357452392578
1740773081371499500,6.10049951171875,-37.816070556640625,-19.429136276245117,-5.562409400939941
1740773081381568800,6.11056884765625,-37.747894287109375,-19.457304000854492,-5.917733192443848
1740773081391636700,6.12063671875,-37.7435302734375,-19.582691192626953,-5.974930763244629
1740773081401705700,6.130705810546875,-37.619903564453125,-19.67901611328125,-6.113316535949707
1740773081411774700,6.140774658203125,-37.60382080078125,-19.816322326660156,-6.452171325683594
1740773081421842700,6.1508427734375,-37.6744384765625,-19.639570236206055,-6.479219436645508
1740773081431911700,6.16091162109375,-37.29351806640625,-19.638748168945312,-6.681528091430664
1740773081441980700,6.170980712890625,-37.366851806640625,-19.503427505493164,-6.854587554931641
1740773081452048600,6.181048583984375,-37.306610107421875,-19.215768814086914,-6.699636459350586
1740773081462117600,6.19111767578125,-37.004547119140625,-19.60709571838379,-6.680402755737305
1740773081472185600,6.201185546875,-37.62841796875,-19.55703353881836,-6.769853591918945
1740773081482254800,6.2112548828125,-37.16558837890625,-19.829896926879883,-6.648110389709473
1740773081492323600,6.221323486328125,-37.047637939453125,-19.513259887695312,-6.615534782409668
1740773081502391600,6.2313916015625,-36.709686279296875,-19.84579849243164,-6.284296035766602
1740773081512460800,6.241460693359375,-36.76116943359375,-19.89984703063965,-6.115018844604492
1740773081522529500,6.251529541015625,-36.417083740234375,-20.257423400878906,-6.01768684387207
1740773081532597500,6.261597412109375,-36.338958740234375,-20.337230682373047,-5.870148658752441
1740773081542666800,6.271666748046875,-36.54827880859375,-20.764949798583984,-5.621463775634766
1740773081552734700,6.281734619140625,-36.738067626953125,-21.2169132232666,-5.567474365234375
1740773081562803700,6.2918037109375,-36.64520263671875,-21.68355941772461,-5.708611488342285
1740773081572872700,6.301872802734375,-36.322479248046875,-21.968496322631836,-6.146482467651367
1740773081582940700,6.311940673828125,-36.109893798828125,-22.126081466674805,-6.094113349914551
1740773081593009700,6.322009765625,-35.780303955078125,-22.310590744018555,-5.720191955566406
1740773081603078700,6.33207861328125,-35.885223388671875,-22.41429901123047,-5.7963409423828125
1740773081613146600,6.342146728515625,-35.944000244140625,-22.3297119140625,-5.599027633666992
1740773081623215600,6.352215576171875,-36.32904052734375,-22.417470932006836,-5.686742782592773
1740773081633283600,6.36228369140625,-36.114532470703125,-22.32653045654297,-5.472986221313477
1740773081643352800,6.372352783203125,-35.981048583984375,-22.30678367614746,-5.576434135437012
1740773081653421600,6.382421630859375,-35.317169189453125,-22.05280303955078,-5.4720354080200195
1740773081663489500,6.392489501953125,-35.95458984375,-22.08071517944336,-5.329920768737793
1740773081673558800,6.402558837890625,-35.919525146484375,-21.985536575317383,-5.197495460510254
1740773081683627500,6.41262744140625,-35.781768798828125,-21.935720443725586,-5.29897403717041
1740773081693695500,6.422695556640625,-35.87896728515625,-21.925155639648438,-4.934858322143555
1740773081703764700,6.4327646484375,-36.041015625,-22.12424659729004,-4.498529434204102
1740773081713832700,6.442832763671875,-36.256011962890625,-22.18852996826172,-4.526318550109863
1740773081723901700,6.452901611328125,-36.7874755859375,-22.331954956054688,-4.447620391845703
1740773081733970700,6.462970703125,-36.298187255859375,-22.368921279907227,-4.2664384841918945
1740773081744038700,6.47303857421875,-35.9066162109375,-22.333759307861328,-4.310703277587891
1740773081754107600,6.483107666015625,-36.10809326171875,-22.244403839111328,-4.1859893798828125
1740773081764176600,6.4931767578125,-35.89044189453125,-22.31217384338379,-4.009732723236084
1740773081774244600,6.50324462890625,-36.179901123046875,-22.187578201293945,-4.223441123962402
1740773081784313600,6.513313720703125,-35.9564208984375,-22.198192596435547,-4.125120162963867
1740773081794382600,6.523382568359375,-36.152984619140625,-22.072229385375977,-4.071538925170898
1740773081804450800,6.533450927734375,-36.071380615234375,-21.843778610229492,-4.022439002990723
1740773081814519600,6.54351953125,-35.667327880859375,-21.96213722229004,-4.239458084106445
1740773081824587500,6.55358740234375,-35.82305908203125,-22.011564254760742,-4.541156768798828
1740773081834656800,6.56365673828125,-36.005950927734375,-21.981769561767578,-4.398486137390137
1740773081844725500,6.5737255859375,-35.9400634765625,-22.230297088623047,-4.508707046508789
1740773081854793500,6.58379345703125,-36.029541015625,-22.11132049560547,-4.6551313400268555
1740773081864862700,6.59386279296875,-36.1998291015625,-21.989334106445312,-4.502762794494629
1740773081874931500,6.603931396484375,-36.020965576171875,-22.060937881469727,-4.6863298416137695
1740773081884999700,6.613999755859375,-35.879974365234375,-22.2093505859375,-4.627570152282715
1740773081895068700,6.624068603515625,-35.829986572265625,-22.135934829711914,-4.5655670166015625
1740773081905136600,6.63413671875,-36.072723388671875,-22.31688690185547,-4.6770124435424805
1740773081915205600,6.64420556640625,-36.081634521484375,-22.250015258789062,-4.8754730224609375
1740773081925274600,6.654274658203125,-35.736236572265625,-22.33696746826172,-5.040186882019043
1740773081935342600,6.664342529296875,-36.080596923828125,-22.108747482299805,-4.988452911376953
1740773081945411600,6.67441162109375,-35.9278564453125,-22.05171775817871,-5.072299957275391
1740773081955480600,6.68448046875,-35.899810791015625,-22.030553817749023,-5.144335746765137
1740773081965548500,6.694548583984375,-35.6751708984375,-21.97911834716797,-4.908890724182129
1740773081975617500,6.704617431640625,-35.832855224609375,-21.955442428588867,-5.034515380859375
1740773081985685500,6.714685546875,-35.794647216796875,-22.24178695678711,-5.181022644042969
1740773081995754500,6.72475439453125,-35.96966552734375,-21.983905792236328,-5.255392074584961
1740773082005823500,6.734823486328125,-35.91009521484375,-21.805803298950195,-5.439774513244629
1740773082015891500,6.744891357421875,-36.224395751953125,-21.63663101196289,-5.341337203979492
1740773082025960700,6.754960693359375,-35.97454833984375,-21.495697021484375,-5.170146942138672
1740773082036029700,6.76502978515625,-36.537353515625,-21.415546417236328,-5.332158088684082
1740773082046097400,6.775097412109375,-36.282684326171875,-21.497276306152344,-5.384020805358887
1740773082056166700,6.785166748046875,-36.35595703125,-21.582311630249023,-5.255716323852539
1740773082066234600,6.795234619140625,-36.404327392578125,-21.64882469177246,-5.303121566772461
1740773082076303400,6.805303466796875,-35.859283447265625,-21.47579574584961,-5.002779006958008
1740773082086372600,6.81537255859375,-36.041351318359375,-21.537403106689453,-5.243009567260742
1740773082096440600,6.825440673828125,-35.992218017578125,-21.546018600463867,-5.595285415649414
1740773082106509600,6.835509521484375,-35.6160888671875,-21.54350471496582,-5.318911552429199
1740773082116578600,6.84557861328125,-35.468231201171875,-21.59000015258789,-5.3817243576049805
1740773082126646500,6.855646484375,-35.371856689453125,-21.754430770874023,-5.7045392990112305
1740773082136715800,6.8657158203125,-34.933746337890625,-21.8384952545166,-5.564101219177246
1740773082146783500,6.875783447265625,-35.005279541015625,-21.967838287353516,-5.761150360107422
1740773082156852500,6.8858525390625,-34.86102294921875,-21.67780303955078,-5.725756645202637
1740773082166921700,6.895921630859375,-35.131591796875,-21.79436492919922,-5.859992980957031
1740773082176989400,6.905989501953125,-34.925201416015625,-21.752819061279297,-5.808293342590332
1740773082187058700,6.91605859375,-35.236724853515625,-21.658370971679688,-5.799321174621582
1740773082197127700,6.926127685546875,-35.62353515625,-21.629426956176758,-5.992414474487305
1740773082207195600,6.936195556640625,-35.653839111328125,-21.410369873046875,-6.091253280639648
1740773082217264600,6.9462646484375,-35.68072509765625,-21.135608673095703,-6.090631484985352
1740773082227332600,6.95633251953125,-36.0966796875,-20.66531753540039,-6.0632734298706055
1740773082237401600,6.966401611328125,-36.15924072265625,-20.49039077758789,-5.909540176391602
1740773082247470600,6.976470703125,-36.09661865234375,-20.30928611755371,-6.154153823852539
1740773082257538600,6.98653857421875,-35.82916259765625,-20.133419036865234,-6.068907737731934
1740773082267607800,6.99660791015625,-36.2845458984375,-20.23520851135254,-6.258217811584473
1740773082277676500,7.006676513671875,-36.1922607421875,-20.015785217285156,-6.222869873046875
1740773082287744500,7.01674462890625,-36.13421630859375,-20.10220718383789,-6.4518585205078125
1740773082297813800,7.026813720703125,-36.012969970703125,-20.384159088134766,-6.410392761230469
1740773082307881500,7.036881591796875,-35.69158935546875,-20.680683135986328,-6.376879692077637
1740773082317950500,7.046950439453125,-35.27325439453125,-20.784791946411133,-6.602198600769043
1740773082328019700,7.057019775390625,-35.12139892578125,-21.237689971923828,-6.865030288696289
1740773082338087700,7.067087646484375,-34.58111572265625,-21.46210289001465,-6.964221000671387
1740773082348156700,7.07715673828125,-34.59259033203125,-21.862546920776367,-7.118432998657227
1740773082358225700,7.0872255859375,-34.385833740234375,-21.924577713012695,-7.197756767272949
1740773082368293600,7.097293701171875,-34.604156494140625,-22.1373233795166,-7.422562599182129
1740773082378362600,7.107362548828125,-33.981170654296875,-22.394437789916992,-7.236284255981445
1740773082388430600,7.1174306640625,-33.7264404296875,-22.50386619567871,-7.226724624633789
1740773082398499600,7.12749951171875,-33.596923828125,-22.457115173339844,-7.222476005554199
1740773082408568600,7.137568603515625,-33.859710693359375,-22.46895980834961,-7.53391170501709
1740773082418636500,7.147636474609375,-33.848388671875,-22.009164810180664,-7.472028732299805
1740773082428705800,7.157705810546875,-33.642974853515625,-21.81217384338379,-7.58815860748291
1740773082438774500,7.1677744140625,-33.745269775390625,-21.466812133789062,-7.727095603942871
1740773082448842500,7.177842529296875,-34.088592529296875,-21.23765754699707,-7.840823173522949
1740773082458911700,7.187911865234375,-34.0736083984375,-20.947864532470703,-7.925631523132324
1740773082468979700,7.197979736328125,-34.325714111328125,-20.74560546875,-8.235265731811523
1740773082479048400,7.20804833984375,-34.734405517578125,-20.665279388427734,-8.378339767456055
1740773082489117700,7.21811767578125,-34.6097412109375,-20.612213134765625,-8.663230895996094
1740773082499185700,7.228185546875,-34.246246337890625,-20.76337242126465,-9.111767768859863
1740773082509254700,7.238254638671875,-34.249969482421875,-20.61223030090332,-9.428861618041992
1740773082519323600,7.24832373046875,-33.84320068359375,-20.837812423706055,-9.695938110351562
1740773082529391600,7.2583916015625,-34.06756591796875,-21.211669921875,-9.944510459899902
1740773082539460600,7.268460693359375,-33.968414306640625,-21.23004722595215,-10.164466857910156
1740773082549528600,7.278528564453125,-33.823760986328125,-21.124282836914062,-10.470288276672363
1740773082559597600,7.28859765625,-33.357269287109375,-21.041566848754883,-10.671356201171875
1740773082569666600,7.29866650390625,-33.34661865234375,-20.999095916748047,-10.652202606201172
1740773082579734500,7.308734619140625,-33.44549560546875,-21.000566482543945,-11.001160621643066
1740773082589803800,7.3188037109375,-32.988525390625,-21.02839469909668,-10.990837097167969
1740773082599872500,7.32887255859375,-33.093780517578125,-21.003862380981445,-11.227734565734863
1740773082609940500,7.3389404296875,-33.14544677734375,-20.706613540649414,-11.27496337890625
1740773082620009700,7.349009765625,-32.6365966796875,-20.673471450805664,-11.182836532592773
1740773082630077700,7.35907763671875,-32.990875244140625,-20.50946807861328,-11.237253189086914
1740773082640146400,7.369146484375,-33.256439208984375,-20.499479293823242,-11.298227310180664
1740773082650215700,7.379215576171875,-32.838653564453125,-20.376506805419922,-11.24201774597168
1740773082660283600,7.38928369140625,-32.9212646484375,-20.306182861328125,-10.968446731567383
1740773082670352600,7.3993525390625,-32.92205810546875,-20.569679260253906,-11.052786827087402
1740773082680421600,7.409421630859375,-33.25494384765625,-20.466873168945312,-11.122954368591309
1740773082690489600,7.419489501953125,-33.553680419921875,-20.395248413085938,-11.045793533325195
1740773082700558600,7.42955859375,-33.43548583984375,-20.392427444458008,-10.891236305236816
1740773082710626600,7.43962646484375,-33.56201171875,-20.25094985961914,-10.858644485473633
1740773082720695600,7.449695556640625,-33.65509033203125,-20.603702545166016,-10.962611198425293
1740773082730764500,7.4597646484375,-33.50115966796875,-20.435630798339844,-10.792634963989258
1740773082740832500,7.46983251953125,-33.173736572265625,-20.516977310180664,-10.795366287231445
1740773082750901800,7.47990185546875,-33.42767333984375,-20.13419532775879,-10.741291046142578
1740773082760969700,7.4899697265625,-33.251373291015625,-20.0697021484375,-10.423320770263672
1740773082771038500,7.50003857421875,-33.38818359375,-20.044240951538086,-10.662518501281738
1740773082781107700,7.510107666015625,-33.02508544921875,-20.0210018157959,-10.54350757598877
1740773082791175700,7.52017578125,-32.972625732421875,-20.0224552154541,-10.436280250549316
1740773082801244400,7.530244384765625,-33.215850830078125,-20.086322784423828,-10.467164993286133
1740773082811313700,7.540313720703125,-33.49932861328125,-20.36688804626465,-10.430599212646484
1740773082821381600,7.550381591796875,-33.49822998046875,-20.277170181274414,-10.224283218383789
1740773082831450600,7.56045068359375,-33.24993896484375,-20.109073638916016,-10.223090171813965
1740773082841518600,7.5705185546875,-33.31622314453125,-20.083215713500977,-10.112652778625488
1740773082851587600,7.580587646484375,-33.373321533203125,-19.99299430847168,-10.126587867736816
1740773082861656600,7.590656494140625,-33.3563232421875,-19.80131721496582,-10.200459480285645
1740773082871724500,7.600724609375,-33.280731201171875,-19.979503631591797,-10.088778495788574
1740773082881793500,7.61079345703125,-32.92193603515625,-20.064023971557617,-10.05834674835205
1740773082891862500,7.620862548828125,-32.983612060546875,-20.082195281982422,-10.052010536193848
1740773082901930500,7.630930419921875,-33.16033935546875,-20.06602668762207,-10.041714668273926
1740773082911999700,7.640999755859375,-33.08612060546875,-20.019168853759766,-10.360020637512207
1740773082922067700,7.651067626953125,-33.1610107421875,-19.988616943359375,-10.295737266540527
1740773082932136700,7.66113671875,-32.818115234375,-20.05577850341797,-10.375433921813965
1740773082942205700,7.671205810546875,-32.22003173828125,-20.176433563232422,-10.364506721496582
1740773082952273700,7.681273681640625,-32.60430908203125,-20.30247688293457,-10.542743682861328
1740773082962342700,7.6913427734375,-32.554901123046875,-20.54323387145996,-10.703712463378906
1740773082972411600,7.70141162109375,-32.659881591796875,-20.34033966064453,-10.581757545471191
1740773082982480000,7.71147998046875,-32.557220458984375,-20.377214431762695,-10.633557319641113
1740773082992548600,7.721548583984375,-32.572784423828125,-20.27171516418457,-10.655242919921875
1740773083002616600,7.731616455078125,-32.11785888671875,-20.272647857666016,-10.599160194396973
1740773083012685800,7.741685791015625,-31.829620361328125,-20.110166549682617,-10.94264030456543
1740773083022754600,7.751754638671875,-32.40313720703125,-19.901941299438477,-10.964044570922852
1740773083032822500,7.761822509765625,-32.132171630859375,-19.860939025878906,-11.026885032653809
1740773083042891800,7.771891845703125,-32.44842529296875,-19.791688919067383,-10.84212589263916
1740773083052960500,7.78196044921875,-32.295501708984375,-19.934768676757812,-10.865254402160645
1740773083063028700,7.79202880859375,-32.168182373046875,-20.043846130371094,-10.680850982666016
1740773083073097700,7.80209765625,-32.05810546875,-20.297948837280273,-10.301521301269531
1740773083083165700,7.812165771484375,-32.042144775390625,-20.9289493560791,-9.994573593139648
1740773083093234700,7.822234619140625,-31.822296142578125,-21.188159942626953,-9.697145462036133
1740773083103303700,7.8323037109375,-31.551300048828125,-21.491092681884766,-9.408758163452148
1740773083113371600,7.84237158203125,-31.1922607421875,-21.930639266967773,-9.096975326538086
1740773083123440600,7.852440673828125,-31.167816162109375,-22.03892707824707,-8.763317108154297
1740773083133509600,7.862509521484375,-31.054718017578125,-22.16802406311035,-8.638827323913574
1740773083143577900,7.872577880859375,-31.02215576171875,-22.44219970703125,-8.584893226623535
1740773083153646600,7.882646484375,-30.946502685546875,-22.708751678466797,-8.327469825744629
1740773083163714600,7.892714599609375,-30.950775146484375,-22.452407836914062,-8.318663597106934
1740773083173783800,7.90278369140625,-31.057220458984375,-22.309534072875977,-8.370475769042969
1740773083183852800,7.912852783203125,-31.3604736328125,-22.113929748535156,-8.512469291687012
1740773083193920500,7.92292041015625,-31.17047119140625,-21.913293838500977,-8.448285102844238
1740773083203989800,7.93298974609375,-31.40277099609375,-21.768054962158203,-8.484576225280762
1740773083214057700,7.9430576171875,-31.187255859375,-21.614665985107422,-8.313371658325195
1740773083224126700,7.953126708984375,-31.161651611328125,-21.724292755126953,-8.303593635559082
1740773083234195700,7.96319580078125,-31.39739990234375,-21.775468826293945,-8.113383293151855
1740773083244263700,7.973263671875,-31.661895751953125,-21.614200592041016,-8.066343307495117
1740773083254332700,7.983332763671875,-31.5035400390625,-21.714738845825195,-7.943489074707031
1740773083264401700,7.993401611328125,-31.43157958984375,-21.706785202026367,-7.792202949523926
1740773083274469600,8.0034697265625,-31.484649658203125,-21.803104400634766,-7.932043075561523
1740773083284538600,8.01353857421875,-31.811309814453125,-21.352123260498047,-7.743687629699707
1740773083294606600,8.023606689453125,-32.02618408203125,-21.30562973022461,-7.678923606872559
1740773083304675800,8.03367578125,-31.5745849609375,-21.17829132080078,-7.686406135559082
1740773083314744800,8.043744873046874,-31.859588623046875,-20.970232009887695,-7.951251029968262
1740773083324812500,8.0538125,-32.492767333984375,-20.98618507385254,-8.025033950805664
1740773083334881800,8.0638818359375,-32.446441650390625,-20.711984634399414,-8.363481521606445
1740773083344950800,8.07395068359375,-32.2825927734375,-20.49087905883789,-8.399179458618164
1740773083355018500,8.0840185546875,-32.42938232421875,-20.076007843017578,-8.380859375
1740773083365087700,8.094087646484375,-32.531280517578125,-20.131921768188477,-8.47180461883545
1740773083375155700,8.10415576171875,-32.82373046875,-19.798458099365234,-8.662879943847656
1740773083385224700,8.114224609375,-32.9210205078125,-19.847511291503906,-8.847991943359375
1740773083395293700,8.124293701171876,-32.762115478515625,-19.65089225769043,-8.908994674682617
1740773083405361700,8.134361572265625,-32.905181884765625,-19.72644805908203,-9.10296630859375
1740773083415431000,8.144430908203125,-33.116241455078125,-19.387353897094727,-9.096257209777832
1740773083425498600,8.15449853515625,-33.386505126953125,-19.32146453857422,-9.367749214172363
1740773083435567600,8.164567626953126,-33.530426025390625,-19.236013412475586,-9.47855281829834
1740773083445636900,8.174636962890625,-33.341827392578125,-19.057964324951172,-9.444483757019043
1740773083455704600,8.18470458984375,-33.04669189453125,-18.97527313232422,-9.605742454528809
1740773083465773800,8.19477392578125,-33.4052734375,-18.685781478881836,-9.79377555847168
1740773083475842800,8.2048427734375,-33.685089111328125,-18.423887252807617,-9.863327026367188
1740773083485910500,8.21491064453125,-33.56744384765625,-18.37981605529785,-9.923347473144531
1740773083495979800,8.224979736328125,-33.383026123046875,-18.387609481811523,-9.952000617980957
1740773083506047700,8.2350478515625,-33.707733154296875,-17.855302810668945,-10.237618446350098
1740773083516116700,8.24511669921875,-33.77679443359375,-17.80201530456543,-10.20620059967041
1740773083526185700,8.255185791015625,-33.940826416015625,-17.71066665649414,-10.205140113830566
1740773083536253700,8.265253662109375,-33.971160888671875,-17.323457717895508,-10.379111289978027
1740773083546323000,8.275322998046875,-34.434112548828125,-17.139636993408203,-10.493815422058105
1740773083556391700,8.2853916015625,-34.5091552734375,-17.449970245361328,-10.570333480834961
1740773083566459600,8.295459716796875,-34.748138427734375,-17.163787841796875,-10.823344230651855
1740773083576529000,8.30552880859375,-34.4732666015625,-16.93829345703125,-10.727587699890137
1740773083586596600,8.3155966796875,-34.418548583984375,-16.78950309753418,-10.698334693908691
1740773083596665600,8.32566552734375,-34.8167724609375,-16.740354537963867,-10.943620681762695
1740773083606734800,8.33573486328125,-34.65216064453125,-16.45384979248047,-10.977572441101074
1740773083616802800,8.345802734375,-34.54364013671875,-16.583520889282227,-11.023388862609863
1740773083626871800,8.355871826171875,-34.918548583984375,-16.457822799682617,-11.109992027282715
1740773083636939800,8.365939697265626,-34.92144775390625,-16.678146362304688,-11.31337833404541
1740773083647008800,8.3760087890625,-35.01092529296875,-16.4881591796875,-11.205155372619629
1740773083657077800,8.386077880859375,-34.6470947265625,-16.41765785217285,-11.1483736038208
1740773083667145700,8.396145751953124,-34.933990478515625,-16.271120071411133,-11.278061866760254
1740773083677214700,8.406214599609376,-34.930816650390625,-16.179527282714844,-11.068729400634766
1740773083687283700,8.41628369140625,-34.5927734375,-16.394987106323242,-11.356683731079102
1740773083697351700,8.4263515625,-34.716400146484375,-16.508607864379883,-11.1755952835083
1740773083707421000,8.4364208984375,-34.476348876953125,-16.404298782348633,-10.785223960876465
1740773083717488600,8.446488525390626,-35.0736083984375,-16.340084075927734,-10.886861801147461
1740773083727557600,8.4565576171875,-35.2166748046875,-16.50092887878418,-10.49079704284668
1740773083737627000,8.466626953125,-35.100494384765625,-16.532045364379883,-10.358806610107422
1740773083747694800,8.47669482421875,-35.859222412109375,-16.40677833557129,-10.401887893676758
1740773083757763600,8.486763671875,-36.3023681640625,-15.963434219360352,-9.989583015441895
1740773083767832800,8.496832763671875,-35.9866943359375,-15.866117477416992,-9.786993980407715
1740773083777900800,8.50690087890625,-36.077545166015625,-15.622446060180664,-9.310019493103027
1740773083787969800,8.5169697265625,-36.463409423828125,-15.358724594116211,-9.192366600036621
1740773083798037800,8.527037841796876,-36.707977294921875,-15.10801887512207,-9.092402458190918
1740773083808106800,8.537106689453125,-37.03717041015625,-14.9384765625,-9.013171195983887
1740773083818175700,8.54717578125,-37.3560791015625,-14.875102996826172,-9.17648696899414
1740773083828243700,8.55724365234375,-36.937530517578125,-14.719329833984375,-9.354887962341309
1740773083838312700,8.567312744140626,-36.88677978515625,-14.738393783569336,-9.626603126525879
1740773083848381000,8.577380859375,-36.707794189453125,-14.61685562133789,-9.769278526306152
1740773083858449700,8.58744970703125,-36.815460205078125,-14.958976745605469,-10.427129745483398
1740773083868519000,8.597518798828125,-36.509124755859375,-15.058574676513672,-10.611642837524414
1740773083878587000,8.6075869140625,-36.567169189453125,-15.349384307861328,-10.792430877685547
1740773083888655600,8.617655517578125,-36.216705322265625,-15.696111679077148,-11.042752265930176
1740773083898724900,8.627724853515625,-36.14306640625,-15.832334518432617,-11.416303634643555
1740773083908792800,8.637792724609374,-35.798065185546875,-16.208986282348633,-11.597569465637207
1740773083918861600,8.647861572265626,-35.588653564453125,-16.429264068603516,-11.332879066467285
1740773083928929000,8.657928955078125,-35.288818359375,-16.913684844970703,-11.518481254577637
1740773083938998000,8.667998046875,-35.505096435546875,-16.850177764892578,-11.461359977722168
1740773083949066800,8.678066650390624,-35.309906005859375,-16.994436264038086,-11.443814277648926
1740773083959135000,8.688135009765626,-35.380950927734375,-17.0531005859375,-11.242115020751953
1740773083969204000,8.698203857421875,-35.3658447265625,-16.9378662109375,-11.141143798828125
1740773083979273000,8.70827294921875,-35.71173095703125,-16.90677261352539,-11.194876670837402
1740773083989341000,8.7183408203125,-35.73577880859375,-16.725427627563477,-11.015132904052734
1740773083999410000,8.728409912109376,-35.957977294921875,-16.469566345214844,-10.737207412719727
1740773084009478100,8.73847802734375,-36.133148193359375,-16.12750244140625,-10.428664207458496
1740773084019547000,8.748546875,-36.36260986328125,-15.762880325317383,-10.666975975036621
1740773084029615900,8.758615966796874,-36.190673828125,-15.582170486450195,-10.738655090332031
1740773084039684000,8.76868408203125,-36.205535888671875,-15.807514190673828,-10.848807334899902
1740773084049752800,8.7787529296875,-36.08612060546875,-15.65926742553711,-10.892525672912598
1740773084059820800,8.78882080078125,-35.998931884765625,-15.504749298095703,-10.972319602966309
1740773084069890000,8.79889013671875,-35.84442138671875,-15.710758209228516,-11.186932563781738
1740773084079959000,8.808958984375,-35.8717041015625,-16.072898864746094,-11.73551082611084
1740773084090026800,8.81902685546875,-36.171661376953125,-16.180923461914062,-11.678855895996094
1740773084100096000,8.829095947265625,-35.96380615234375,-16.30086326599121,-11.398411750793457
1740773084110165000,8.8391650390625,-35.875640869140625,-16.45945167541504,-11.426837921142578
1740773084120233000,8.84923291015625,-36.395477294921875,-16.73157501220703,-11.98459243774414
1740773084130302000,8.859302001953125,-36.258697509765625,-16.665729522705078,-11.763140678405762
1740773084140370000,8.869369873046875,-36.1927490234375,-16.661420822143555,-11.917156219482422
1740773084150439000,8.87943896484375,-35.8524169921875,-16.526506423950195,-12.14496898651123
1740773084160508000,8.8895078125,-35.724761962890625,-16.660493850708008,-12.283794403076172
1740773084170576000,8.899575927734375,-35.8128662109375,-16.47640037536621,-12.420076370239258
1740773084180644900,8.909644775390625,-35.793426513671875,-16.45519256591797,-12.268106460571289
1740773084190713900,8.9197138671875,-36.124176025390625,-16.19473648071289,-12.073394775390625
1740773084200782000,8.929781982421876,-36.208038330078125,-16.086637496948242,-11.999595642089844
1740773084210851000,8.93985107421875,-36.13262939453125,-16.048831939697266,-12.218503952026367
1740773084220918800,8.949918701171875,-36.17181396484375,-15.872007369995117,-11.987308502197266
1740773084230988000,8.959988037109374,-36.366790771484375,-15.612049102783203,-11.775200843811035
1740773084241057000,8.97005712890625,-36.691680908203125,-15.877189636230469,-11.848773002624512
1740773084251124700,8.980124755859375,-36.198089599609375,-15.999874114990234,-11.909293174743652
1740773084261194000,8.990194091796875,-36.587188720703125,-15.905305862426758,-11.742681503295898
1740773084271262000,9.000261962890624,-36.55413818359375,-16.015016555786133,-11.469748497009277
1740773084281331000,9.0103310546875,-36.53662109375,-15.867839813232422,-11.686790466308594
1740773084291400000,9.02039990234375,-36.945220947265625,-15.817502975463867,-11.488631248474121
1740773084301468000,9.030468017578125,-37.01806640625,-15.63725471496582,-11.486725807189941
1740773084311537200,9.040537109375,-36.462554931640625,-15.757574081420898,-11.101558685302734
1740773084321606000,9.05060595703125,-36.45147705078125,-15.57978630065918,-11.263744354248047
1740773084331673900,9.060673828125,-36.77069091796875,-15.630191802978516,-11.480477333068848
1740773084341743000,9.0707431640625,-37.087615966796875,-15.600229263305664,-11.712931632995605
1740773084351810800,9.080810791015624,-36.93011474609375,-15.439905166625977,-11.640970230102539
1740773084361880000,9.090880126953126,-37.21990966796875,-15.537633895874023,-11.603612899780273
1740773084371949000,9.100948974609375,-37.03936767578125,-15.622562408447266,-11.520586013793945
1740773084382017000,9.11101708984375,-37.01922607421875,-15.552572250366211,-11.66981029510498
1740773084392086000,9.1210859375,-36.837249755859375,-15.576316833496094,-11.379430770874023
1740773084402154000,9.131154052734376,-36.976531982421875,-15.51841926574707,-11.269015312194824
1740773084412223000,9.141222900390625,-36.73876953125,-15.467641830444336,-11.28064250946045
1740773084422292000,9.1512919921875,-37.3817138671875,-15.512432098388672,-11.28390884399414
1740773084432360000,9.16135986328125,-37.02996826171875,-15.687150955200195,-10.916128158569336
1740773084442429200,9.17142919921875,-37.07147216796875,-15.809730529785156,-11.107562065124512
1740773084452498000,9.181497802734375,-36.89093017578125,-15.62331771850586,-11.190875053405762
1740773084462566000,9.19156591796875,-36.977294921875,-15.781084060668945,-11.175824165344238
1740773084472635100,9.20163525390625,-36.95294189453125,-15.863241195678711,-10.899164199829102
1740773084482702800,9.211702880859375,-36.736053466796875,-15.982488632202148,-10.923711776733398
1740773084492771800,9.221771728515625,-37.025787353515625,-15.828619003295898,-10.980485916137695
1740773084502841000,9.231841064453125,-36.810272216796875,-15.77750015258789,-10.82251262664795
1740773084512909000,9.241908935546874,-37.12158203125,-15.957159042358398,-10.875642776489258
1740773084522978000,9.25197802734375,-37.044525146484375,-16.190053939819336,-10.913785934448242
1740773084533047000,9.262047119140625,-36.77410888671875,-16.35841178894043,-10.779928207397461
1740773084543115000,9.272114990234375,-36.70977783203125,-16.486114501953125,-10.886882781982422
1740773084553184000,9.28218408203125,-36.910858154296875,-16.402557373046875,-10.969021797180176
1740773084563252000,9.292251953125,-36.6148681640625,-16.48763084411621,-11.042492866516113
1740773084573321000,9.302321044921875,-36.26641845703125,-16.577285766601562,-11.069985389709473
1740773084583390000,9.312389892578125,-36.334381103515625,-16.583425521850586,-11.104150772094727
1740773084593458000,9.3224580078125,-36.6112060546875,-16.67011070251465,-11.418638229370117
1740773084603527200,9.332527099609376,-36.50018310546875,-16.900243759155273,-11.590810775756836
1740773084613595100,9.34259521484375,-36.402099609375,-16.946659088134766,-11.226544380187988
1740773084623663900,9.352663818359375,-36.384429931640625,-17.13621711730957,-11.303104400634766
1740773084633733000,9.362733154296874,-36.539794921875,-17.690153121948242,-11.42998218536377
1740773084643801000,9.372801025390626,-35.794677734375,-18.02452850341797,-11.074787139892578
1740773084653869800,9.382869873046875,-35.727447509765625,-18.406707763671875,-11.00054931640625
1740773084663939000,9.39293896484375,-35.140106201171875,-19.44847869873047,-10.634124755859375
1740773084674007000,9.403007080078124,-34.929351806640625,-20.08170509338379,-10.527697563171387
1740773084684076000,9.413075927734376,-34.56219482421875,-20.7183780670166,-10.618236541748047
1740773084694144000,9.42314404296875,-34.3018798828125,-21.27274513244629,-10.453848838806152
1740773084704213000,9.433212890625,-33.9638671875,-21.598312377929688,-10.277347564697266
1740773084714282000,9.443281982421874,-34.041900634765625,-21.81966209411621,-10.377513885498047
1740773084724350000,9.453349853515626,-33.9180908203125,-21.966014862060547,-10.25702953338623
1740773084734419000,9.4634189453125,-33.51171875,-21.97801971435547,-10.06595230102539
1740773084744487200,9.473487060546875,-33.7550048828125,-22.069583892822266,-10.010773658752441
1740773084754556000,9.483555908203124,-33.874176025390625,-22.216569900512695,-9.640462875366211
1740773084764625200,9.493625244140626,-33.906982421875,-21.98517608642578,-9.621785163879395
1740773084774693000,9.503693115234375,-33.922454833984375,-21.572769165039062,-9.452325820922852
1740773084784761900,9.513761962890625,-34.088287353515625,-21.565799713134766,-9.58652400970459
1740773084794830000,9.523830078125,-34.417877197265625,-21.55525779724121,-9.480703353881836
1740773084804899000,9.533899169921876,-34.388671875,-21.63629913330078,-9.115192413330078
1740773084814967800,9.5439677734375,-34.5980224609375,-21.440608978271484,-8.975217819213867
1740773084825036000,9.5540361328125,-34.30120849609375,-21.315671920776367,-8.626893997192383
1740773084835105000,9.56410498046875,-34.396209716796875,-21.288978576660156,-7.949090003967285
1740773084845174000,9.574174072265626,-34.73370361328125,-21.261022567749023,-7.783656120300293
1740773084855242000,9.584241943359375,-35.011810302734375,-21.458614349365234,-7.718287467956543
1740773084865311000,9.59431103515625,-34.96337890625,-21.263729095458984,-7.294023513793945
1740773084875379200,9.604379150390624,-35.402740478515625,-21.099157333374023,-7.326009750366211
1740773084885448000,9.614447998046876,-35.70361328125,-21.18387794494629,-7.118147850036621
1740773084895517000,9.624516845703125,-35.41192626953125,-20.949914932250977,-7.047799110412598
1740773084905585200,9.634585205078125,-35.8138427734375,-20.706836700439453,-7.097454071044922
1740773084915654000,9.64465380859375,-35.58251953125,-20.67051124572754,-7.2367706298828125
1740773084925723600,9.6547236328125,-35.970550537109375,-20.526779174804688,-7.488431930541992
1740773084935791600,9.66479150390625,-35.87237548828125,-20.451955795288086,-7.296086311340332
1740773084945860600,9.674860595703125,-35.809967041015625,-20.449228286743164,-7.231945037841797
1740773084955928600,9.684928466796874,-35.611480712890625,-20.338037490844727,-7.098732948303223
1740773084965997600,9.69499755859375,-35.9412841796875,-20.289033889770508,-7.042327880859375
1740773084976066600,9.705066650390625,-35.966888427734375,-20.15217399597168,-7.4871368408203125
1740773084986134500,9.715134521484375,-36.135162353515625,-20.138742446899414,-7.540432929992676
1740773084996203800,9.725203857421874,-36.007171630859375,-19.96963119506836,-7.272778511047363
1740773085006271500,9.735271484375,-36.24066162109375,-20.0222110748291,-7.277151107788086
1740773085016340500,9.745340576171875,-36.15234375,-19.68914031982422,-7.213706970214844
1740773085026409700,9.75540966796875,-36.123321533203125,-19.289812088012695,-6.960988998413086
1740773085036477400,9.7654775390625,-36.517791748046875,-19.47793197631836,-7.129389762878418
1740773085046546700,9.775546630859376,-36.496185302734375,-19.649431228637695,-7.270071983337402
1740773085056615700,9.78561572265625,-36.560882568359375,-19.51258087158203,-7.04313850402832
1740773085066683600,9.79568359375,-36.573944091796875,-19.606393814086914,-7.106093406677246
1740773085076752600,9.805752685546874,-36.571929931640625,-19.511554718017578,-7.128410339355469
1740773085086820600,9.815820556640626,-36.6895751953125,-19.529470443725586,-7.075237274169922
1740773085096889600,9.8258896484375,-36.886138916015625,-19.46319007873535,-7.030324935913086
1740773085106958600,9.83595849609375,-36.768310546875,-19.2373046875,-6.948629379272461
1740773085117026600,9.846026611328124,-36.76605224609375,-19.35441780090332,-6.940518379211426
1740773085127095800,9.856095703125,-36.9024658203125,-19.03303337097168,-6.549896240234375
1740773085137163500,9.86616357421875,-37.062774658203125,-18.94861602783203,-6.827363014221191
1740773085147232500,9.876232421875,-36.987945556640625,-18.82561492919922,-6.926909446716309
1740773085157301800,9.8863017578125,-37.00286865234375,-18.8225154876709,-7.05251407623291
1740773085167369700,9.89636962890625,-36.988861083984375,-18.423776626586914,-6.860543251037598
1740773085177438500,9.9064384765625,-36.86993408203125,-18.60352897644043,-6.889020919799805
1740773085187506700,9.916506591796875,-36.915252685546875,-18.56131362915039,-6.770533561706543
1740773085197575700,9.92657568359375,-37.06396484375,-18.55156898498535,-6.910636901855469
1740773085207644700,9.936644775390626,-37.02337646484375,-18.375219345092773,-6.739112854003906
1740773085217712600,9.946712646484375,-37.33599853515625,-18.68290901184082,-6.678647994995117
1740773085227781600,9.95678173828125,-36.954925537109375,-18.468730926513672,-6.913357734680176
1740773085237850600,9.9668505859375,-37.093780517578125,-18.60753631591797,-6.7603759765625
1740773085247918600,9.976918701171876,-37.293914794921875,-18.63138771057129,-6.829860687255859
1740773085257987600,9.986987548828125,-37.45184326171875,-18.43610954284668,-6.860759735107422
1740773085268055600,9.9970556640625,-37.215728759765625,-18.602420806884766,-6.570182800292969
1740773085278124500,10.00712451171875,-36.843597412109375,-18.592817306518555,-6.646506309509277
1740773085288193800,10.01719384765625,-36.994537353515625,-18.346656799316406,-6.582559585571289
1740773085298261800,10.02726171875,-37.129119873046875,-18.38020133972168,-6.571531295776367
1740773085308330500,10.03733056640625,-37.03717041015625,-18.19984245300293,-6.423646926879883
1740773085318399700,10.047399658203124,-37.39129638671875,-18.141067504882812,-6.189764022827148
1740773085328467700,10.0574677734375,-37.127899169921875,-18.420270919799805,-6.243721961975098
1740773085338536400,10.067536376953125,-37.399932861328125,-18.202306747436523,-5.818935394287109
1740773085348604700,10.077604736328125,-37.31500244140625,-18.247642517089844,-5.938178062438965
1740773085358673700,10.087673583984374,-37.65447998046875,-18.105844497680664,-6.207278251647949
1740773085368742700,10.09774267578125,-37.826263427734375,-18.073171615600586,-6.134819984436035
1740773085378810600,10.107810546875,-37.6544189453125,-17.985626220703125,-6.177870750427246
1740773085388879600,10.117879638671875,-37.298492431640625,-18.08608055114746,-6.418671607971191
1740773085398947800,10.12794775390625,-37.390045166015625,-17.633800506591797,-6.466913223266602
1740773085409016600,10.1380166015625,-37.596038818359375,-17.745817184448242,-6.792545318603516
1740773085419085600,10.14808544921875,-37.1827392578125,-17.743106842041016,-6.989274978637695
1740773085429153800,10.15815380859375,-37.196197509765625,-18.024730682373047,-7.1911468505859375
1740773085439222500,10.168222412109374,-37.21417236328125,-18.28987693786621,-7.661619186401367
1740773085449290500,10.17829052734375,-37.104888916015625,-18.66187286376953,-7.819120407104492
1740773085459359700,10.18835986328125,-36.634674072265625,-19.113128662109375,-8.024237632751465
1740773085469428500,10.198428466796875,-36.23004150390625,-19.161317825317383,-8.31042194366455
1740773085479496700,10.20849658203125,-36.074005126953125,-19.39598274230957,-8.468317031860352
1740773085489565700,10.218565673828126,-35.926544189453125,-19.91446304321289,-8.698084831237793
1740773085499634400,10.228634521484375,-35.3106689453125,-20.114534378051758,-8.533817291259766
1740773085509702700,10.23870263671875,-35.472900390625,-20.11069679260254,-8.71522045135498
1740773085519771600,10.248771728515624,-35.2791748046875,-20.023073196411133,-8.62828254699707
1740773085529839600,10.258839599609376,-35.65576171875,-19.880525588989258,-8.617532730102539
1740773085539908600,10.26890869140625,-35.63079833984375,-19.698963165283203,-8.537613868713379
1740773085549977600,10.2789775390625,-35.914276123046875,-19.81307029724121,-8.298076629638672
1740773085560045600,10.289045654296874,-36.0672607421875,-19.417224884033203,-8.300299644470215
1740773085570114600,10.299114501953126,-36.315704345703125,-19.24644660949707,-8.383936882019043
1740773085580182500,10.3091826171875,-36.215576171875,-19.000131607055664,-8.309748649597168
1740773085590251800,10.319251708984375,-36.44305419921875,-18.816370010375977,-8.520630836486816
1740773085600320500,10.329320556640624,-36.16912841796875,-18.57984161376953,-8.585867881774902
1740773085610388500,10.339388427734375,-36.2022705078125,-18.718048095703125,-8.786055564880371
1740773085620457700,10.349457763671875,-35.642303466796875,-18.612791061401367,-8.955334663391113
1740773085630526500,10.3595263671875,-35.70574951171875,-18.642379760742188,-9.334900856018066
1740773085640594400,10.369594482421874,-35.81219482421875,-18.844167709350586,-9.163119316101074
1740773085650663700,10.37966357421875,-35.7406005859375,-18.774131774902344,-9.417999267578125
1740773085660731600,10.389731689453125,-35.725128173828125,-18.90900993347168,-9.453523635864258
1740773085670800600,10.399800537109375,-35.6253662109375,-19.135513305664062,-9.66529655456543
1740773085680869600,10.40986962890625,-35.65289306640625,-19.114057540893555,-9.769200325012207
1740773085690937600,10.4199375,-35.51580810546875,-19.179439544677734,-9.926838874816895
1740773085701006600,10.430006591796875,-35.45849609375,-19.318626403808594,-9.950516700744629
1740773085711074600,10.440074462890625,-35.354248046875,-19.07275390625,-10.083192825317383
1740773085721143600,10.4501435546875,-35.240966796875,-19.028581619262695,-10.100028038024902
1740773085731212500,10.460212646484376,-35.376739501953125,-18.887344360351562,-10.162980079650879
1740773085741280500,10.470280517578125,-35.251953125,-18.743858337402344,-10.164010047912598
1740773085751349800,10.480349853515625,-35.519378662109375,-18.587160110473633,-10.161136627197266
1740773085761417700,10.490417724609374,-35.089385986328125,-18.58777618408203,-10.007113456726074
1740773085771486500,10.500486572265626,-35.592132568359375,-18.703691482543945,-10.16603946685791
1740773085781555700,10.5105556640625,-35.262847900390625,-18.53421401977539,-10.163177490234375
1740773085791623700,10.520623779296875,-35.33489990234375,-18.450960159301758,-10.110675811767578
1740773085801692400,10.5306923828125,-35.683868408203125,-18.50664710998535,-10.048871040344238
1740773085811761700,10.54076171875,-35.649139404296875,-18.51959228515625,-9.999580383300781
1740773085821829600,10.55082958984375,-35.57354736328125,-18.355224609375,-9.993083953857422
1740773085831898600,10.560898681640625,-35.662872314453125,-18.429153442382812,-9.7235746383667
1740773085841966600,10.570966552734374,-35.812652587890625,-18.3919677734375,-9.67013168334961
1740773085852035600,10.58103564453125,-35.798492431640625,-18.337491989135742,-9.817461013793945
1740773085862104600,10.5911044921875,-35.552001953125,-18.292972564697266,-9.812409400939941
1740773085872172500,10.601172607421875,-35.397308349609375,-18.425779342651367,-10.067792892456055
1740773085882241500,10.611241455078124,-35.486083984375,-18.46419906616211,-10.009965896606445
1740773085892309800,10.621309814453125,-35.560516357421875,-18.376497268676758,-9.861980438232422
1740773085902378500,10.63137841796875,-35.311859130859375,-18.68086051940918,-9.648405075073242
1740773085912447700,10.64144775390625,-35.32891845703125,-18.55276870727539,-9.658071517944336
1740773085922515700,10.651515625,-35.3511962890625,-18.502962112426758,-9.828153610229492
1740773085932584200,10.661584228515625,-35.208404541015625,-18.46136474609375,-9.934284210205078
1740773085942653200,10.671653076171875,-35.381744384765625,-18.490581512451172,-9.858015060424805
1740773085952721400,10.681721435546875,-35.446441650390625,-18.448192596435547,-9.935600280761719
1740773085962790100,10.6917900390625,-35.641326904296875,-18.43499183654785,-9.76182746887207
1740773085972858000,10.701858154296875,-35.67120361328125,-18.34967041015625,-10.027973175048828
1740773085982927400,10.71192724609375,-35.5709228515625,-18.4628963470459,-9.907211303710938
1740773085992996000,10.72199609375,-35.432342529296875,-18.43904685974121,-9.896932601928711
1740773086003064000,10.73206396484375,-35.4119873046875,-18.419246673583984,-9.924222946166992
1740773086013133300,10.74213330078125,-35.08624267578125,-18.623558044433594,-10.263355255126953
1740773086023201300,10.752201171875,-35.199951171875,-18.80035400390625,-10.185667037963867
1740773086033270300,10.762270263671875,-34.912872314453125,-18.781387329101562,-10.206543922424316
1740773086043339300,10.77233935546875,-35.29296875,-19.048757553100586,-10.169017791748047
1740773086053407200,10.7824072265625,-35.155609130859375,-19.06942367553711,-10.188159942626953
1740773086063476200,10.792476318359375,-34.978424072265625,-19.21915626525879,-9.897632598876953
1740773086073545200,10.802545166015625,-35.08270263671875,-19.541296005249023,-10.049060821533203
1740773086083613200,10.81261328125,-34.8646240234375,-19.545663833618164,-10.11069393157959
1740773086093682200,10.82268212890625,-34.80499267578125,-19.394115447998047,-9.949878692626953
1740773086103750100,10.832750244140625,-34.598602294921875,-19.571727752685547,-10.073416709899902
1740773086113819400,10.8428193359375,-35.021392822265625,-19.402790069580078,-10.187356948852539
1740773086123888000,10.85288818359375,-35.046051025390625,-19.008441925048828,-9.932443618774414
1740773086133956000,10.8629560546875,-35.198883056640625,-18.7522029876709,-9.983647346496582
1740773086144025300,10.873025390625,-35.24224853515625,-18.970523834228516,-10.092316627502441
1740773086154093300,10.88309326171875,-34.9853515625,-18.874433517456055,-9.724418640136719
1740773086164162000,10.893162109375,-34.904571533203125,-18.75737762451172,-9.597846031188965
1740773086174231300,10.903231201171875,-34.619476318359375,-19.1384334564209,-9.508923530578613
1740773086184299300,10.91329931640625,-34.72314453125,-19.296772003173828,-9.34465503692627
1740773086194368300,10.9233681640625,-34.4700927734375,-19.833459854125977,-9.357558250427246
1740773086204437200,10.933437255859374,-34.371368408203125,-20.505098342895508,-9.374515533447266
1740773086214505200,10.943505126953125,-34.067291259765625,-21.009868621826172,-9.337380409240723
1740773086224574200,10.95357421875,-33.723388671875,-21.509981155395508,-9.204366683959961
1740773086234642200,10.96364208984375,-33.11834716796875,-21.950881958007812,-9.01864242553711
1740773086244711200,10.973711181640626,-32.723907470703125,-22.388629913330078,-8.939322471618652
1740773086254780400,10.983780517578126,-32.428680419921875,-22.81856918334961,-8.685328483581543
1740773086264848100,10.99384814453125,-32.0352783203125,-23.249496459960938,-8.691198348999023
1740773086274917400,11.00391748046875,-32.27349853515625,-23.399978637695312,-8.680238723754883
1740773086284985300,11.0139853515625,-32.358856201171875,-23.365642547607422,-8.748226165771484
1740773086295054000,11.02405419921875,-32.143280029296875,-23.364503860473633,-8.669222831726074
1740773086305123300,11.034123291015625,-31.42041015625,-23.309349060058594,-8.741652488708496
1740773086315191300,11.04419140625,-31.501617431640625,-23.557567596435547,-7.969531059265137
1740773086325260300,11.05426025390625,-31.782257080078125,-23.498422622680664,-7.81948184967041
1740773086335328300,11.064328369140625,-31.545867919921875,-23.618934631347656,-7.7123613357543945
1740773086345397200,11.074397216796875,-31.917266845703125,-23.325883865356445,-7.3999786376953125
1740773086355466200,11.08446630859375,-31.46002197265625,-23.63406753540039,-7.477540969848633
1740773086365534200,11.0945341796875,-31.770355224609375,-23.859790802001953,-7.5014495849609375
1740773086375603200,11.104603271484375,-32.16632080078125,-23.800945281982422,-7.390329360961914
1740773086385672400,11.11467236328125,-31.73193359375,-23.987442016601562,-7.157543182373047
1740773086395740200,11.124740234375,-31.6748046875,-23.721763610839844,-6.969019889831543
1740773086405809200,11.13480908203125,-31.68719482421875,-23.932758331298828,-7.018586158752441
1740773086415877400,11.14487744140625,-31.571624755859375,-23.995681762695312,-6.644378662109375
1740773086425946000,11.154946044921875,-31.35125732421875,-24.161436080932617,-6.650942802429199
1740773086436015400,11.165015380859375,-31.43389892578125,-24.15695571899414,-6.552646636962891
1740773086446083300,11.175083251953126,-31.67767333984375,-24.095327377319336,-6.474194526672363
1740773086456152300,11.18515234375,-31.437530517578125,-24.15289878845215,-6.317261695861816
1740773086466220300,11.19522021484375,-31.474456787109375,-24.0644588470459,-6.47542667388916
1740773086476289300,11.205289306640625,-31.557037353515625,-23.87839698791504,-6.6600141525268555
1740773086486358300,11.215358154296876,-32.097808837890625,-23.862218856811523,-6.765568733215332
1740773086496426200,11.22542626953125,-31.83880615234375,-23.750930786132812,-7.038970947265625
1740773086506495200,11.2354951171875,-31.827301025390625,-23.809947967529297,-6.969877243041992
1740773086516563200,11.245563232421874,-31.76531982421875,-23.86521339416504,-7.066096305847168
1740773086526632200,11.255632080078126,-32.22967529296875,-23.885831832885742,-6.935264587402344
1740773086536701200,11.265701171875,-32.24505615234375,-23.778404235839844,-7.155810356140137
1740773086546769400,11.275769287109375,-32.27337646484375,-23.76725959777832,-6.908150672912598
1740773086556838400,11.28583837890625,-32.31707763671875,-23.68962860107422,-7.017472267150879
1740773086566907100,11.2959072265625,-32.093414306640625,-23.539161682128906,-6.947776794433594
1740773086576975400,11.305975341796875,-32.216583251953125,-23.49066162109375,-6.913007736206055
1740773086587044400,11.31604443359375,-31.911956787109375,-23.481224060058594,-7.190224647521973
1740773086597112000,11.326112060546874,-32.306304931640625,-23.496320724487305,-7.354235649108887
1740773086607181300,11.336181396484376,-32.35406494140625,-23.03559684753418,-7.373504638671875
1740773086617250300,11.346250244140625,-32.03240966796875,-23.0301570892334,-7.261030197143555
1740773086627318300,11.356318359375,-32.283538818359375,-23.002716064453125,-7.383666038513184
1740773086637387300,11.36638720703125,-32.5372314453125,-22.83771514892578,-7.610417366027832
1740773086647455200,11.376455322265626,-32.856719970703125,-22.687335968017578,-7.59156608581543
1740773086657524200,11.386524169921875,-33.053985595703125,-22.464216232299805,-7.801453590393066
1740773086667593200,11.39659326171875,-32.5987548828125,-22.431278228759766,-7.839760780334473
1740773086677661200,11.4066611328125,-32.9188232421875,-22.33469581604004,-8.025833129882812
1740773086687730400,11.41673046875,-32.943878173828125,-22.347848892211914,-7.873635292053223
1740773086697799200,11.426799072265625,-32.5574951171875,-22.090187072753906,-8.074563980102539
1740773086707867400,11.436867431640625,-32.93084716796875,-21.899484634399414,-8.414933204650879
1740773086717936400,11.446936279296875,-32.846160888671875,-21.798280715942383,-8.38670825958252
1740773086728004000,11.457004150390626,-32.785736083984375,-21.678176879882812,-8.545809745788574
1740773086738073300,11.4670732421875,-32.966644287109375,-21.672407150268555,-8.61235523223877
1740773086748142300,11.477142333984375,-33.15753173828125,-21.71627426147461,-8.68274211883545
1740773086758210300,11.487210205078124,-33.417999267578125,-21.649377822875977,-8.644920349121094
1740773086768279300,11.497279296875,-33.56591796875,-21.33230972290039,-8.704509735107422
1740773086778347300,11.50734716796875,-33.435333251953125,-21.385974884033203,-8.705018997192383
1740773086788416300,11.517416259765625,-33.10015869140625,-21.521127700805664,-8.822456359863281
1740773086798485200,11.5274853515625,-33.34161376953125,-21.344200134277344,-8.536870956420898
1740773086808553200,11.53755322265625,-33.087890625,-21.116886138916016,-8.553354263305664
1740773086818622500,11.54762255859375,-33.009674072265625,-21.403499603271484,-8.51038646697998
1740773086828690200,11.557690185546875,-33.357208251953125,-21.274688720703125,-8.56255054473877
1740773086838759200,11.56775927734375,-33.061676025390625,-21.085323333740234,-8.441208839416504
1740773086848828400,11.577828369140626,-33.569183349609375,-21.010730743408203,-8.774073600769043
1740773086858896100,11.587896240234375,-33.34075927734375,-20.91461753845215,-8.311079025268555
1740773086868965000,11.597965087890625,-33.1270751953125,-21.014503479003906,-8.120978355407715
1740773086879034400,11.608034423828125,-33.223663330078125,-20.80862808227539,-8.075763702392578
1740773086889102300,11.618102294921876,-33.09686279296875,-20.701250076293945,-8.098328590393066
1740773086899171300,11.62817138671875,-33.38446044921875,-20.768747329711914,-8.215951919555664
1740773086909239300,11.6382392578125,-33.382904052734375,-20.67717170715332,-8.207052230834961
1740773086919308300,11.648308349609374,-33.820556640625,-20.329021453857422,-8.42509937286377
1740773086929377300,11.658377197265626,-33.84429931640625,-19.84248161315918,-8.283061027526855
1740773086939445200,11.6684453125,-33.6395263671875,-19.69556999206543,-8.3452787399292
1740773086949514200,11.67851416015625,-33.739349365234375,-19.56923484802246,-8.346198081970215
1740773086959582200,11.688582275390624,-33.748687744140625,-19.635757446289062,-8.484885215759277
1740773086969651200,11.698651123046876,-34.05194091796875,-19.346445083618164,-8.781832695007324
1740773086979720400,11.708720458984375,-33.904296875,-19.48492431640625,-9.027990341186523
1740773086989788400,11.718788330078125,-33.88946533203125,-19.58601188659668,-9.182909965515137
1740773086999857200,11.728857177734374,-33.5089111328125,-19.53833770751953,-9.640597343444824
1740773087009925400,11.73892529296875,-33.15936279296875,-19.60005760192871,-9.602152824401855
1740773087019994400,11.748994384765625,-33.330291748046875,-19.87616729736328,-10.204526901245117
1740773087030063000,11.75906298828125,-32.9034423828125,-19.86319923400879,-10.432043075561523
1740773087040131300,11.76913134765625,-32.40216064453125,-19.935625076293945,-10.373991966247559
1740773087050200300,11.779200439453126,-32.358001708984375,-20.15248680114746,-10.376452445983887
1740773087060269300,11.789269287109375,-32.36676025390625,-20.22969627380371,-10.647443771362305
1740773087070337300,11.799337158203125,-32.373779296875,-20.1835880279541,-10.713567733764648
1740773087080406300,11.80940625,-32.066131591796875,-20.348756790161133,-10.760222434997559
1740773087090474200,11.81947412109375,-32.267730712890625,-20.309539794921875,-10.781250953674316
1740773087100543200,11.829543212890625,-32.027313232421875,-20.47522735595703,-10.726040840148926
1740773087110612200,11.8396123046875,-32.056793212890625,-20.70270538330078,-10.679861068725586
1740773087120680400,11.849680419921874,-31.72320556640625,-20.6730899810791,-10.959943771362305
1740773087130749200,11.859749267578126,-31.930419921875,-20.509851455688477,-10.760165214538574
1740773087140817200,11.869817138671875,-31.686370849609375,-20.53558921813965,-11.073609352111816
1740773087150886400,11.879886474609375,-31.85968017578125,-20.5327091217041,-10.98563003540039
1740773087160955100,11.889955078125,-31.96087646484375,-20.015769958496094,-10.997518539428711
1740773087171023400,11.9000234375,-31.81365966796875,-19.801467895507812,-11.097137451171875
1740773087181092400,11.91009228515625,-32.083343505859375,-19.757415771484375,-11.411161422729492
1740773087191161000,11.9201611328125,-31.74560546875,-19.57830047607422,-11.575136184692383
1740773087201229300,11.930229248046874,-32.185546875,-19.42547607421875,-11.579221725463867
1740773087211298300,11.94029833984375,-31.89691162109375,-19.290864944458008,-11.7964448928833
1740773087221366300,11.9503662109375,-32.42315673828125,-19.20441436767578,-11.453088760375977
1740773087231435300,11.960435302734375,-32.38531494140625,-19.161590576171875,-11.446361541748047
1740773087241504300,11.970504150390624,-32.432159423828125,-19.09592628479004,-12.036705017089844
1740773087251572500,11.980572509765626,-32.40289306640625,-18.952980041503906,-12.24072265625
1740773087261641200,11.99064111328125,-31.9659423828125,-18.59162712097168,-12.089136123657227
1740773087271709200,12.000709228515625,-32.0015869140625,-18.487234115600586,-12.500099182128906
1740773087281778400,12.0107783203125,-32.233245849609375,-18.486852645874023,-12.608983993530273
1740773087291847200,12.02084716796875,-32.0665283203125,-18.192001342773438,-12.977998733520508
1740773087301915100,12.0309150390625,-32.522216796875,-18.06608009338379,-13.149032592773438
1740773087311984400,12.040984375,-32.2479248046875,-17.937379837036133,-13.266035079956055
1740773087322052400,12.05105224609375,-32.047393798828125,-17.935680389404297,-13.176496505737305
1740773087332121300,12.061121337890626,-32.117645263671875,-17.926660537719727,-13.579116821289062
1740773087342190300,12.0711904296875,-31.8607177734375,-17.65369415283203,-13.14764404296875
1740773087352258300,12.08125830078125,-32.258209228515625,-17.689334869384766,-13.344583511352539
1740773087362327300,12.091327392578124,-32.511993408203125,-17.795703887939453,-13.474775314331055
1740773087372395300,12.101395263671876,-32.7862548828125,-17.687660217285156,-13.216606140136719
1740773087382464300,12.11146435546875,-32.7918701171875,-17.523527145385742,-13.326604843139648
1740773087392533200,12.121533203125,-32.913818359375,-17.604846954345703,-13.185068130493164
1740773087402601200,12.131601318359374,-33.03131103515625,-17.505722045898438,-12.802875518798828
1740773087412670500,12.14167041015625,-32.87469482421875,-17.515085220336914,-12.471664428710938
1740773087422739200,12.1517392578125,-33.2991943359375,-17.524057388305664,-12.341712951660156
1740773087432807200,12.16180712890625,-33.487091064453125,-17.483787536621094,-12.18040657043457
1740773087442876400,12.17187646484375,-33.5146484375,-17.306076049804688,-12.063706398010254
1740773087452944400,12.1819443359375,-33.129150390625,-17.252473831176758,-11.933077812194824
1740773087463013000,12.19201318359375,-33.40704345703125,-17.32004737854004,-11.99295425415039
1740773087473082400,12.202082275390625,-33.056915283203125,-17.39531135559082,-12.094573020935059
1740773087483150300,12.212150390625,-33.281219482421875,-16.969385147094727,-11.898341178894043
1740773087493219300,12.22221923828125,-33.7369384765625,-17.06508445739746,-11.809471130371094
1740773087503287300,12.232287353515625,-33.602203369140625,-17.217222213745117,-11.791349411010742
1740773087513356300,12.242356201171875,-33.248046875,-17.4633731842041,-11.617146492004395
1740773087523425300,12.25242529296875,-32.7498779296875,-17.7700138092041,-11.662034034729004
1740773087533493200,12.2624931640625,-32.493621826171875,-17.957233428955078,-11.659013748168945
1740773087543562200,12.272562255859375,-32.92340087890625,-17.939804077148438,-11.549234390258789
1740773087553631200,12.28263134765625,-32.69140625,-18.180801391601562,-11.321207046508789
1740773087563699200,12.29269921875,-32.434600830078125,-18.3948917388916,-11.450057029724121
1740773087573768400,12.3027685546875,-32.08013916015625,-18.808683395385742,-11.18925666809082
1740773087583836400,12.31283642578125,-32.08648681640625,-19.32539939880371,-11.146567344665527
1740773087593905200,12.3229052734375,-32.302642822265625,-19.56105613708496,-10.850274085998535
1740773087603974400,12.332974365234374,-32.463836669921875,-19.55720329284668,-10.44777774810791
1740773087614042400,12.34304248046875,-32.269927978515625,-19.902482986450195,-9.776867866516113
1740773087624111000,12.353111083984375,-32.118865966796875,-20.211071014404297,-9.335977554321289
1740773087634179300,12.363179443359375,-32.0928955078125,-20.690444946289062,-9.001847267150879
1740773087644248300,12.373248291015624,-32.33502197265625,-21.109100341796875,-8.546980857849121
1740773087654317300,12.3833173828125,-32.476348876953125,-21.181041717529297,-8.278878211975098
1740773087664385300,12.39338525390625,-32.392242431640625,-21.491249084472656,-7.891172409057617
1740773087674454300,12.403454345703125,-32.65264892578125,-21.800630569458008,-7.131687164306641
1740773087684522200,12.413522216796874,-32.181854248046875,-22.263286590576172,-6.914886474609375
1740773087694591200,12.42359130859375,-32.424346923828125,-22.610673904418945,-6.576854705810547
1740773087704660200,12.43366015625,-32.109130859375,-22.960250854492188,-6.067510604858398
1740773087714728400,12.443728515625,-32.037994384765625,-23.44075584411621,-5.173065185546875
1740773087724797200,12.453797119140624,-31.803375244140625,-23.749603271484375,-4.437986373901367
1740773087734866400,12.463866455078126,-31.5352783203125,-23.652324676513672,-3.6532082557678223
1740773087744934400,12.473934326171875,-31.604736328125,-23.753557205200195,-3.1897778511047363
1740773087755003100,12.484003173828125,-31.301300048828125,-24.021766662597656,-2.481560230255127
1740773087765071000,12.494071044921874,-31.22125244140625,-24.179841995239258,-1.7788963317871094
1740773087775140400,12.504140380859376,-31.595306396484375,-24.486574172973633,-1.1697797775268555
1740773087785209000,12.514208984375,-31.522735595703125,-25.028928756713867,0.024018287658691406
1740773087795277300,12.52427734375,-31.228759765625,-24.933868408203125,0.9269189834594727
1740773087805346300,12.53434619140625,-30.86602783203125,-25.085573196411133,1.8010830879211426
1740773087815414300,12.544414306640626,-30.88116455078125,-25.00457000732422,2.8919272422790527
1740773087825483300,12.554483154296875,-30.94757080078125,-24.953908920288086,3.905141830444336
1740773087835552300,12.56455224609375,-30.85736083984375,-25.19295883178711,4.818758487701416
1740773087845620200,12.5746201171875,-31.099334716796875,-25.223751068115234,5.720981121063232
1740773087855689200,12.584689208984376,-30.870849609375,-25.148603439331055,6.7545552253723145
1740773087865757200,12.594757080078125,-31.171356201171875,-25.017486572265625,7.46370267868042
1740773087875826400,12.604826416015625,-31.177459716796875,-25.026247024536133,8.437555313110352
1740773087885895200,12.614895263671874,-30.726531982421875,-25.106351852416992,9.394549369812012
1740773087895963100,12.624963134765625,-30.35223388671875,-25.05908203125,10.220840454101562
1740773087906032400,12.635032470703125,-30.115814208984375,-24.710769653320312,11.007977485656738
1740773087916101000,12.64510107421875,-30.409759521484375,-24.796039581298828,11.528854370117188
1740773087926169000,12.655169189453124,-30.193695068359375,-24.47271156311035,12.267655372619629
1740773087936238300,12.66523828125,-30.33184814453125,-24.212636947631836,13.096578598022461
1740773087946306300,12.675306396484375,-30.2825927734375,-24.093948364257812,13.692638397216797
1740773087956375000,12.685375,-30.66522216796875,-24.02838134765625,14.178333282470703
1740773087966444300,12.6954443359375,-30.49395751953125,-23.375244140625,14.997931480407715
1740773087976512300,12.70551220703125,-30.38323974609375,-23.30828094482422,15.1482572555542
1740773087986581200,12.715581298828125,-30.45123291015625,-22.96237564086914,15.695043563842773
