time,seconds_elapsed,z,y,x
1738005772250720800,0.017720703125,0.007025368592143058,-0.05383720598649233,0.12871157397851346
1738005772260789800,0.027789794921875,0.00023848493099212645,-0.0439368299473077,0.12038904171530157
1738005772270858800,0.037858642578125,-0.03264028684198856,-0.037446591145172715,0.13967574332430957
1738005772280926700,0.0479267578125,-0.053851417174935336,-0.03145136931836605,0.17225673772711306
1738005772290995700,0.05799560546875,-0.016886837393045424,0.025151830782741306,0.1132461842233315
1738005772301064700,0.068064697265625,0.04314706780910492,0.046802302381023765,0.07347944303490221
1738005772311134000,0.078134033203125,0.0603799421608448,0.07316014795266092,0.09540935262907296
1738005772321202000,0.088201904296875,0.0313140066742897,0.09774824390541761,0.06394468543771654
1738005772331270700,0.098270751953125,-0.01846387745141983,0.1498277925696224,0.027330782257020472
1738005772341340000,0.10833984375,-0.07680442273914813,0.11912976236920803,0.0029497166510671375
1738005772351408600,0.11840869140625,-0.06458616167902946,0.06710227268580347,0.0124655138194561
1738005772361476600,0.1284765625,-0.00019639935493469238,0.03733220751788467,0.01996522192507982
1738005772371545900,0.1385458984375,0.08650982419550418,0.036746114725619554,-0.008447985273785888
1738005772381614600,0.148614501953125,0.12642331691086292,0.02694510740768164,0.003563428102619946
1738005772391683800,0.158683837890625,0.08904138849973678,-0.031710312515497205,0.018333163743838667
1738005772401752800,0.1687529296875,0.0738689538091421,-0.04632164272461086,0.033228863852284844
1738005772411820500,0.178820556640625,0.07069499994814396,-0.035993944651447236,0.01844064270630479
1738005772421889800,0.188889892578125,0.09665537063479424,-0.022242848000861702,-0.01683353630322963
1738005772431958800,0.198958740234375,0.09712591075599193,-0.015632380352541803,-0.014763634693995118
1738005772442027800,0.20902783203125,0.09738719204068183,-0.05329447741191834,-0.001996544112078845
1738005772452095700,0.219095703125,0.11213058766424655,-0.027691395730338988,-0.011440043229237197
1738005772462164700,0.229164794921875,0.07792319763600826,-0.015983641475625334,-0.02219272524882108
1738005772472233700,0.239233642578125,0.0630202275365591,-0.031179164780862627,-0.009331782370992005
1738005772482302700,0.249302734375,0.053685997480154034,-0.06516436342578381,-0.010750161268934607
1738005772492371000,0.259370849609375,0.05900573119819164,-0.050495530875772236,-0.004211553280428052
1738005772502439700,0.269439697265625,0.0561316370666027,-0.049353557766415174,0.005297339223138988
1738005772512509000,0.279509033203125,0.028964228677749632,-0.03329367271680385,-0.014580131353251636
1738005772522577700,0.28957763671875,-0.0218418294519186,-0.04258910513278097,-0.0046459626423195005
1738005772532645600,0.299645751953125,-0.06342705477178097,-0.046487391212955115,-0.029035248087346553
1738005772542715000,0.30971484375,-0.07381985397040844,-0.03475205483157188,-0.055756300948187704
1738005772552783600,0.31978369140625,-0.07865443452000617,0.007527911286801099,-0.04658186456337571
1738005772562852900,0.329852783203125,-0.12653145346045494,0.002539528414979577,-0.025945501911081373
1738005772572920800,0.3399208984375,-0.14185235671103,-0.030442849862948058,0.016002273110859094
1738005772582989600,0.349989501953125,-0.08946107521653175,-0.03804254774432629,0.0014693053675815463
1738005772593058800,0.360058837890625,-0.050690907317399975,-0.03447239763997495,-0.01397387255579233
1738005772603127800,0.3701279296875,-0.03881166895329952,-0.02575516697075218,0.007483560688421129
1738005772613195800,0.38019580078125,-0.027709260180592537,-0.04055723397899419,0.029457967011444267
1738005772623261000,0.390260986328125,-0.02050561241209507,-0.0671064739368856,0.037290669931098815
1738005772633330200,0.400330078125,-0.04150456129908561,-0.04209807021282613,0.0512297999670729
1738005772643399000,0.41039892578125,-0.09202303465902804,-0.038976284930482503,0.039555728786252436
1738005772653467100,0.420467041015625,-0.10618658456802367,-0.04778302051406354,0.017638240282237528
1738005772663536000,0.4305361328125,-0.0520884991556406,-0.042491964901238674,0.016753712532669305
1738005772673605000,0.440605224609375,0.022298341047763823,-0.050605092197470364,0.026904775397293267
1738005772683674000,0.450674072265625,0.08502572311758995,-0.06027604339495301,0.024409159189276396
1738005772693743000,0.4607431640625,0.1654945135831833,-0.0556037042023614,0.02483881931081414
1738005772703811000,0.47081103515625,0.22841771048605441,-0.04817647681105881,0.015767624104768035
1738005772713880000,0.480880126953125,0.26572423557341096,-0.03959167688246816,-0.003653371408395469
1738005772723949300,0.49094921875,0.24302958868443963,-0.01432045750375837,0.03375584686845541
1738005772734018000,0.50101806640625,0.16867606622874737,-0.026902546907588837,0.05302271126583218
1738005772744086000,0.5110859375,0.09151274704933166,-0.021242036927863955,0.054302777671627694
1738005772754155300,0.5211552734375,0.057719783040881156,0.010714213172718881,0.04886263244431466
1738005772764224000,0.53122412109375,-0.0027834932386875152,0.052960313554108136,0.0360571826133877
1738005772774293200,0.541293212890625,-0.049070028117299075,0.09949026526715606,0.09029909694325178
1738005772784361200,0.551361328125,-0.10290040250420569,0.11936327886413782,0.1443503110066056
1738005772794430000,0.561429931640625,-0.1491588803321123,0.09328834188710898,0.15879468715097755
1738005772804499200,0.571499267578125,-0.14342355155050754,0.0777526633746922,0.1305622798791155
1738005772814568000,0.58156787109375,-0.11768003848493098,0.03410509869754314,0.09810849205255508
1738005772824636000,0.591635986328125,-0.053827451777458186,-0.019064144899509847,0.06197842686604708
1738005772834705200,0.601705078125,0.060281742483377455,-0.047037316713295876,0.04894150636680424
1738005772844774000,0.61177392578125,0.1591968747437,-0.09046875442173331,0.03642323944680392
1738005772854843100,0.621843017578125,0.15341419968903064,-0.10726199524719267,0.03764942024089396
1738005772864911000,0.6319111328125,0.10391863963603973,-0.13266622988842428,0.03459346673637628
1738005772874980000,0.64197998046875,0.042349195429682726,-0.10158489945884794,0.019252762806788087
1738005772885049000,0.652049072265625,-0.02923310874700546,-0.06520707005634903,-0.01266249769628048
1738005772895118000,0.6621181640625,-0.06718202339112758,-0.0484768114645034,-0.03504975913651287
1738005772905187000,0.67218701171875,-0.11741875720024109,-0.009746062260307371,-0.0648895650723949
1738005772915255000,0.682255126953125,-0.1574327876806259,0.012265936126746237,-0.06660279873106628
1738005772925324300,0.69232421875,-0.13838555738329886,-0.002351677692681551,-0.05941475039049983
1738005772935393000,0.70239306640625,-0.07815116117298603,-0.03533814762383699,-0.032442316584475335
1738005772945462000,0.7124619140625,-0.01018061775267124,-0.056128093402646476,0.009266242854110896
1738005772955530200,0.7225302734375,0.03564239126741886,-0.05432528176438063,0.003732574124448001
1738005772965599000,0.732598876953125,0.0576741903334856,-0.04793254851996898,-0.05375146393179893
1738005772975668200,0.742668212890625,0.061200610893964766,-0.04687248154040426,-0.045755862068012354
1738005772985737000,0.752737060546875,0.014727029010653495,-0.03310816008206457,-0.03795044901408255
1738005772995805000,0.762804931640625,-0.006200608205795288,-0.027873912690393625,-0.03390698230955749
1738005773005874200,0.772874267578125,0.004107435318827629,-0.03386405648328364,-0.014313735502026975
1738005773015943200,0.782943115234375,-0.007613397613167762,-0.022896708799712357,-0.009075213794037699
1738005773026012200,0.79301220703125,-0.006073182433843612,0.009975121775828301,0.032419702893868085
1738005773036080000,0.803080078125,-0.01161678803563118,0.02993106441590935,0.04315411860439926
1738005773046149000,0.813149169921875,-0.02497837391197681,0.014999964200519024,0.062242484629713
1738005773056218000,0.823218017578125,-0.046102410483360286,-0.0021845774974673985,0.07628478277921676
1738005773066287000,0.833287109375,-0.08569733876883984,-0.00652710021380335,0.07051281178165227
1738005773076356000,0.843356201171875,-0.0803524706095457,-0.00866875188499689,0.08479885555915534
1738005773086424000,0.853424072265625,-0.08638765912055969,-0.0011707608124241233,0.04240885319504887
1738005773096493000,0.8634931640625,-0.07031038454473018,-0.015478468432463704,0.02388038607481867
1738005773106562000,0.87356201171875,-0.048324178186059,-0.02722520299069583,0.0363133675978519
1738005773116631000,0.883631103515625,-0.0015086509972810744,-0.01797309825979173,0.06334167804326862
1738005773126699000,0.893698974609375,0.03650514557659626,-0.0065088704373687505,0.033270036112889645
1738005773136768000,0.90376806640625,0.014484452426433562,-0.021218327258713542,0.022836283849366007
1738005773146837000,0.9138369140625,-0.03880056303739547,-0.011787285764329134,0.03081464231740683
1738005773156906200,0.92390625,-0.08513736679852009,0.0029615897519513963,0.012538871316611766
1738005773166974000,0.933973876953125,-0.05493745884597301,0.018058109662123022,-0.01213843728955835
1738005773177043200,0.944043212890625,-0.0302379018753767,0.021054368868656456,-0.007889803401753307
1738005773187112200,0.9541123046875,-0.02284311544895172,-0.026902035450935363,-0.00856437819506973
1738005773197181000,0.964180908203125,0.01404664553105831,-0.0330415611192584,0.00959408656898886
1738005773207250200,0.974250244140625,0.025024551141262053,-0.029201215771399436,0.027198205385915934
1738005773217318100,0.984318115234375,0.023966566520929336,-0.013425737153738737,0.046585042901150876
1738005773227387100,0.99438720703125,0.00048690673410892486,-0.0162345474967733,0.01565187050430104
1738005773237456100,1.0044560546875,-0.00020516718327999114,-0.010685352404415607,-0.028015549650788306
1738005773247524900,1.01452490234375,0.037678281009197234,0.012711670600250363,-0.023033925313316283
1738005773257593000,1.024593017578125,0.07113631397485733,0.02819554586019367,-0.028058621607534584
1738005773267662000,1.034662109375,0.08572714938521385,0.015579444588907062,-0.03066394526772201
1738005773277731000,1.04473095703125,0.0373223071783781,0.027531711656600236,-0.023117438878305255
1738005773287800000,1.054800048828125,0.017848375901579856,0.02791884781066328,-0.022080551844928412
1738005773297869300,1.064869384765625,0.0138859020113945,0.04144928744789213,-0.011843125871103257
1738005773307937000,1.07493701171875,-0.0015823007553815841,0.08738251537680626,-0.0026874307193793354
1738005773318006000,1.085006103515625,-0.011342062747478484,0.08184621629863977,-0.009825904297176748
1738005773328075300,1.0950751953125,0.014853285738825796,0.04047317242473364,-0.015382278048992157
1738005773338144000,1.10514404296875,0.06379647260606289,0.02739570071939379,-0.026039208076521752
1738005773348212000,1.1152119140625,0.14364040917158127,0.04096029835455119,-0.018472499149292707
1738005773358281200,1.12528125,0.19666531239449977,0.03406374377384782,0.0034002368975430725
1738005773368350000,1.135349853515625,0.15759762285351753,0.008569602359458804,0.05073591550290584
1738005773378419200,1.145419189453125,0.07280746205747127,-0.009173376938886939,0.05749207523223012
1738005773388488000,1.155488037109375,-0.016389993786811826,-0.0016652297984808683,0.05810739411897957
1738005773398556000,1.165555908203125,-0.03925415202379227,-0.0056069896942004555,0.034266865130513906
1738005773408625200,1.175625244140625,0.014753917017579077,0.009666275022365152,0.02228785618636757
1738005773418694100,1.185694091796875,0.03767009770274162,0.01518726693354547,0.013642923568375407
1738005773428763100,1.19576318359375,-0.0047381344377994536,-0.012045644439570605,0.029718590709008275
1738005773438832000,1.20583203125,-0.039515433308482166,-0.02142678237762302,0.07544723597653209
1738005773448900000,1.215900146484375,-0.05315115995109081,-0.0336511809175834,0.07919255998469889
1738005773458969000,1.225968994140625,-0.05240355645418167,-0.02514361094366759,0.0538633268084377
1738005773469038000,1.2360380859375,-0.025665771654248236,-0.027097704153507946,0.020542035432346162
1738005773479107000,1.246107177734375,0.04052022643685341,-0.015353490345925092,-0.010292590227164328
1738005773489175000,1.256175048828125,0.06707564040720462,-0.021160167330689726,-0.02970262595489621
1738005773499244000,1.266244140625,0.0834200414866209,-0.032663448521867394,-0.011661284764483571
1738005773509313000,1.27631298828125,0.07505670228898524,-0.024717202225141226,-0.005870097609795629
1738005773519382000,1.286382080078125,0.02501987496614456,0.006882379924878478,0.01857446168642491
1738005773529451000,1.296450927734375,-0.05632277572453022,0.017728220120631157,0.030589236063696443
1738005773539519000,1.30651904296875,-0.10955226160883903,0.04901855365838855,-0.011942823385912925
1738005773549588200,1.316588134765625,-0.10255261197984218,0.08652966140713542,-0.039084165751747786
1738005773559657200,1.3266572265625,-0.0798603031784296,0.07690178216639906,-0.023714893314801155
1738005773569726000,1.336725830078125,-0.009957914912700653,0.04108081946168095,-0.0020402371233329175
1738005773579795200,1.346795166015625,0.07253449033498764,0.018381971321627496,0.013669957705773412
1738005773589863200,1.35686328125,0.1222761341035366,-0.006562792581692338,0.009769297005422412
1738005773599932200,1.36693212890625,0.1759983719408512,-0.04179495908040553,0.02627721808347851
1738005773610001200,1.377001220703125,0.20224282026588916,-0.0498877011757344,0.03351498731728643
1738005773620070000,1.38706982421875,0.18146891230642795,-0.041082025038078424,0.015217369810864328
1738005773630139100,1.39713916015625,0.11941373040974139,-0.07825414662342518,0.009667772859707473
1738005773640207400,1.407207275390625,0.070901920697093,-0.056609556776657695,0.003991151995398104
1738005773650276000,1.417276123046875,0.012402385455369948,0.003929265740327537,-0.02999444850832224
1738005773660345300,1.427345458984375,-0.02194119817316532,-0.00702639150545001,-0.06432659742739051
1738005773670414300,1.437414306640625,-0.016250293055176734,-0.015599866322427988,-0.037837727620918304
1738005773680483000,1.447483154296875,0.015131518158316612,0.023454379215091466,-0.010202902649715542
1738005773690551300,1.45755126953125,0.03156359752118587,0.037206608376838264,0.007804992928821593
1738005773700620300,1.467620361328125,0.012239888370037078,-0.01453702286388725,-0.008029193606134504
1738005773710689300,1.477689208984375,0.02476853055357933,-0.041569333630986506,-0.03145909596709534
1738005773720758300,1.48775830078125,0.038918051937222475,-0.0431307377288118,-0.04071344745401293
1738005773730827000,1.497826904296875,0.047616906699538226,-0.051663551741838454,-0.004307962859608233
1738005773740895200,1.507895263671875,0.04461246418654918,-0.07304430302064865,0.010837729954533278
1738005773750964200,1.517964111328125,0.04812251813411712,-0.04523216698747128,0.025918467773683368
1738005773761033200,1.528033203125,0.003035422173142433,0.0006182049635797738,0.026365663551911712
1738005773771102200,1.538102294921875,-0.04689326860010624,-0.02044500479865819,0.008386793138459324
1738005773781171200,1.548171142578125,-0.05888941134214401,-0.04763736496567726,-0.018362791697122155
1738005773791239200,1.5582392578125,-0.05910802252888679,-0.01602715182378888,-0.009084420013800262
1738005773801308200,1.56830810546875,-0.020718378379940984,0.011802702529169618,-0.04626722738994285
1738005773811377400,1.57837744140625,0.007467267140746116,0.00723013391662389,-0.06815572726149112
1738005773821446100,1.588446044921875,0.030225042393803594,-0.003548194000869989,-0.05100470424061641
1738005773831515400,1.598515380859375,0.021379472637176513,0.003114076899923384,-0.05647084242571145
1738005773841583400,1.608583251953125,0.007296586748957634,-0.027699542504176496,-0.06583661839785054
1738005773851652000,1.618652099609375,0.0037590602725744247,-0.02642897457908839,-0.061027464550454165
1738005773861721300,1.628721435546875,0.008235913425683975,-0.008277304881997407,-0.036448300822824235
1738005773871790000,1.6387900390625,0.03640694589912891,-0.0500092451961711,-0.04848009940013289
1738005773881859300,1.648859375,0.07172668108344078,-0.06929565454423427,-0.0338540282796137
1738005773891928300,1.65892822265625,0.0593254646718502,-0.05193955567162484,-0.017068733298592268
1738005773901996000,1.66899609375,0.03136836721003056,-0.06258961756695061,-0.025270580057892948
1738005773912065300,1.679065185546875,0.04357318426668644,-0.022597360526956618,-0.0765810805783607
1738005773922134300,1.68913427734375,0.041812604334950446,0.00526157379001379,-0.08009403886906802
1738005773932203300,1.699203369140625,0.004437105664610862,-0.005403429946117103,-0.051809463018551466
1738005773942272300,1.709272216796875,-0.012432196071743964,-0.03291037248764187,-0.005752681775204837
1738005773952340200,1.71934033203125,0.05407178192734718,-0.04217113544903695,0.0206347552170977
1738005773962409200,1.7294091796875,0.07632043861448765,-0.058341568201035254,0.012987382269091904
1738005773972478200,1.739478271484375,0.08400339433252811,-0.07320869980212301,0.007637655271589755
1738005773982547200,1.749547119140625,0.0831499923735857,-0.09319211497101933,0.015117087774164973
1738005773992616200,1.7596162109375,0.08451017481088638,-0.10190580197628588,0.029605303060263394
1738005774002684200,1.76968408203125,0.06288403393626213,-0.11397515608500688,0.03915657340083271
1738005774012753200,1.779753173828125,0.042727381092309946,-0.11675623817089945,0.006241634335927665
1738005774022822100,1.789822265625,0.017098434317111968,-0.08267915999144315,-0.005648381150513887
1738005774032891400,1.799891357421875,-0.028380291309952736,-0.06392945133596659,0.00425488096550107
1738005774042960100,1.809960205078125,-0.07944821524620056,-0.05810699226018041,-0.00081759999319911
1738005774053029400,1.820029296875,-0.09539631048440933,-0.05830547397434711,-0.007077975562214851
1738005774063097300,1.830097412109375,-0.11551146227419376,-0.045122678731009364,-0.020890191282890738
1738005774073166000,1.840166015625,-0.1222018998235464,-0.020364267712645233,-0.011018091490119696
1738005774083235300,1.8502353515625,-0.15077742144465445,-0.03633563422858715,-0.013091609828546643
1738005774093304000,1.860303955078125,-0.16281506524085998,-0.05439330549929291,-0.029507212980650364
1738005774103373300,1.870373291015625,-0.17144202381074428,-0.06271057706549764,-0.013747552986629306
1738005774113442300,1.8804423828125,-0.16295651953816412,-0.06275346635915338,-0.011082863822020589
1738005774123510000,1.890510009765625,-0.1221148060619831,-0.05239920907262712,-0.03846245365682989
1738005774133579300,1.900579345703125,-0.04085808008909225,-0.02783376334309578,-0.074620283633098
1738005774143648300,1.910648193359375,0.011437339815497398,-0.034537864091619845,-0.11719989028517157
1738005774153717200,1.92071728515625,0.07893558954894542,-0.07850114365443586,-0.12904613969512282
1738005774163786200,1.9307861328125,0.1637590680927038,-0.10718092936761676,-0.12341708429958671
1738005774173855200,1.940855224609375,0.22990064252018927,-0.11483348994739354,-0.09052150752227753
1738005774183923200,1.950923095703125,0.2539034493982792,-0.112411815758422,-0.05511588415279984
1738005774193992200,1.9609921875,0.26946400662362574,-0.13594108684062958,-0.05525960347242653
1738005774204061200,1.971061279296875,0.2593967861175537,-0.1379138847509399,-0.05932195754051208
1738005774214130200,1.981130126953125,0.2449830608397722,-0.10421250801607966,-0.025920732796005902
1738005774224199200,1.99119921875,0.26029928791522977,-0.11802161846421658,-0.011883914539217949
1738005774234267100,2.00126708984375,0.23343641543090343,-0.1365333901779726,-0.012191811444610356
1738005774244336000,2.011336181640625,0.15956570805609224,-0.09325089595355093,-0.02751925403382629
1738005774254405400,2.0214052734375,0.08761106343567371,-0.04882277535796165,-0.03975903280600905
1738005774264474000,2.03147412109375,0.015036241090297699,-0.053204935964941975,-0.057047144476324314
1738005774274543400,2.04154345703125,-0.041836569732427595,-0.07815788317471742,-0.07469312967360019
1738005774284612000,2.051612060546875,-0.03957797715067863,-0.05619714005086571,-0.06815959971901028
1738005774294680000,2.06168017578125,-0.009567454290390014,-0.06599694179240614,-0.04494860080573707
1738005774304749300,2.071749267578125,0.03487608307003975,-0.11893628562372177,-0.03397343514189124
1738005774314818000,2.081818115234375,0.04536006768345833,-0.1349732281891629,-0.017989793666265904
1738005774324887300,2.09188720703125,0.06506430058479308,-0.14392642303872852,-0.01977287769075483
1738005774334956300,2.101956298828125,0.04847030865848064,-0.1804851619660854,-0.046399822527356444
1738005774345025300,2.112025390625,0.02325929503440857,-0.20096604179572314,-0.023569676157832144
1738005774355093200,2.12209326171875,0.02825929527878761,-0.19727884118296204,-0.018955971817299723
1738005774365162200,2.132162353515625,0.03015723785459995,-0.22697894638720897,-0.04064768874142319
1738005774375231200,2.142231201171875,0.029879005435109136,-0.23198135778438297,-0.04731262652333826
1738005774385300200,2.15230029296875,0.02685410465598106,-0.22402765883356332,-0.055308520648069674
1738005774395369200,2.162369140625,0.04093991315364837,-0.2682830897433683,-0.07463325271252542
1738005774405438200,2.172438232421875,0.08633797475993633,-0.3198228324424475,-0.1066228936260566
1738005774415506200,2.182506103515625,0.1725911938458681,-0.3506330177804455,-0.13491908684913068
1738005774425575200,2.1925751953125,0.21797639597058294,-0.338123007232137,-0.13367938898634166
1738005774435644200,2.20264404296875,0.19315759653449058,-0.3459073044328019,-0.1537500075146556
1738005774445713400,2.21271337890625,0.17757950365245342,-0.3503955922953784,-0.16387608206849544
1738005774455782100,2.2227822265625,0.1517868907481432,-0.3580807399705052,-0.19730649637486786
1738005774465851400,2.232851318359375,0.1171656592220068,-0.35104422892984,-0.18920622856020927
1738005774475919400,2.24291943359375,0.07312719553112983,-0.3102349929511547,-0.1871426105612889
1738005774485988000,2.252988037109375,0.005141454541683197,-0.32444183401260523,-0.18223653567805886
1738005774496057300,2.263057373046875,-0.02621288414299488,-0.3741594027858227,-0.2192013346556574
1738005774506126000,2.2731259765625,0.0149795424669981,-0.4072819201868027,-0.22081724541969597
1738005774516195300,2.2831953125,0.10522212345004081,-0.4296551531016826,-0.2203523678543046
1738005774526264000,2.29326416015625,0.1921153940051794,-0.43040578880589453,-0.19027937421705574
1738005774536333300,2.303333251953125,0.2231014838993549,-0.4303063470194116,-0.17007278128415346
1738005774546401300,2.3134013671875,0.17426701810359954,-0.39891368561834095,-0.12318860930595546
1738005774556470300,2.32347021484375,0.052879357272386546,-0.42898412197232244,-0.08268021943736821
1738005774566539300,2.333539306640625,0.0019119711011648178,-0.4001791755095124,-0.0968056658256799
1738005774576608300,2.343608154296875,0.017341595423221588,-0.39568635760229076,-0.1062117190092802
1738005774586677200,2.35367724609375,0.05860533370375633,-0.4587660602411255,-0.10770129997991025
1738005774596746200,2.363746337890625,0.1331423960328102,-0.4506584128376096,-0.06938121393583714
1738005774606814200,2.373814208984375,0.18673194740116594,-0.4324121236596256,-0.02612403681576252
1738005774616883200,2.38388330078125,0.19312135617733,-0.46605680177118625,-0.04309668932873755
1738005774626951700,2.39395166015625,0.15838438931703566,-0.45207766851838677,-0.07064093167334795
1738005774637021000,2.40402099609375,-0.05989128186106681,-0.32384847122933713,-0.04987809309717268
1738005774647089700,2.414089599609375,0.0834375771433115,-0.3870522751718759,-0.060653845465090124
1738005774657159000,2.424158935546875,0.16810907999575136,-0.5974216302048415,-0.2085754938861355
1738005774667227000,2.434226806640625,0.09362345559298992,-0.4262648165436461,-0.2135116351140663
1738005774677295600,2.444295654296875,0.021769933259487152,-0.31869306122753766,-0.17937371185915543
1738005774687364900,2.45436474609375,0.0595259556800127,-0.44111569112967697,-0.14642019434953107
1738005774697433600,2.46443359375,0.08551672150492667,-0.4474216959387064,-0.13306810695389285
1738005774707502800,2.4745029296875,0.0871492911428213,-0.4381434338532388,-0.1288750939771533
1738005774717571800,2.48457177734375,0.0737251614242792,-0.4407744399439543,-0.16041359358970075
1738005774727640800,2.494640869140625,0.10813011985123157,-0.4798383300926536,-0.19346198630854486
1738005774737708800,2.504708740234375,0.16273732382953165,-0.5318361187575384,-0.23094642524607478
1738005774747777800,2.51477783203125,0.2390758826225996,-0.5508500313071534,-0.22650625084154308
1738005774757846800,2.5248466796875,0.2899801404297352,-0.5152769424162805,-0.21889332815241067
1738005774767915800,2.534915771484375,0.23370880263149738,-0.550331085466966,-0.1566665160158649
1738005774777984800,2.54498486328125,0.10652911439538001,-0.5853701770789921,-0.08445493749231099
1738005774788053800,2.5550537109375,0.011848258703947066,-0.5180945571202784,-0.11157017730250954
1738005774798121700,2.565121826171875,-0.08763093717992305,-0.42686716635096816,-0.06661269907057285
1738005774808190700,2.575190673828125,-0.20326690261662006,-0.36808187297042455,-0.06006218144856393
1738005774818259700,2.585259765625,-0.28114567658901213,-0.34942513982802625,-0.08104067206941544
1738005774828329000,2.595328857421875,-0.3266530437886715,-0.3525954404272139,-0.08489435182288288
1738005774838397700,2.605397705078125,-0.3454559439361095,-0.3244224351923913,-0.04908920774180442
1738005774848466700,2.615466796875,-0.24768939718902108,-0.3395410938691348,0.002860613595508039
1738005774858535700,2.62553564453125,-0.12440028665065765,-0.38884295798093077,0.04548891822751611
1738005774868603600,2.635603759765625,-0.01896656627655029,-0.42162287248931823,0.0851860647784546
1738005774878673000,2.6456728515625,0.061140989661216734,-0.4172616085398942,0.16187266982421278
1738005774888741600,2.65574169921875,0.024354689055681226,-0.3891458499176427,0.27310828141011295
1738005774898811000,2.665810791015625,-0.10259469755589962,-0.3362341247456148,0.3844186387326568
1738005774908880000,2.6758798828125,-0.2560363697737455,-0.26455215958673506,0.4377600240262225
1738005774918948600,2.685948486328125,-0.3390659506380558,-0.18529316503601148,0.5291959064470604
1738005774929017900,2.696017822265625,-0.34736616147160526,-0.21341462274668738,0.6260674405831843
1738005774939085800,2.7060859375,-0.23335633593201635,-0.3185778008174151,0.6948840063735843
1738005774949154800,2.71615478515625,0.01658814670741558,-0.4518619068758562,0.7763540828362107
1738005774959223800,2.726223876953125,0.2525596335738897,-0.5544343560673296,0.824474920469895
1738005774969292500,2.73629248046875,0.31545594246983527,-0.6614480391092598,0.838505199388042
1738005774979361800,2.74636181640625,0.3168435974359512,-0.7859333736948668,0.8647240748804063
1738005774989430800,2.7564306640625,0.3337275122195482,-1.006083168181777,0.8962566196762025
1738005774999498800,2.766498779296875,0.3379337317377329,-1.0615106025017798,0.8954552401654422
1738005775009567700,2.776567626953125,0.31362989608645436,-1.2206692641269414,0.8147550520967691
1738005775019637000,2.786636962890625,0.1665045674085617,-1.1743319489091635,0.7268328038200735
1738005775029705700,2.796705810546875,-0.023349895927309988,-1.0628646474592387,0.635821576552093
1738005775039774700,2.806774658203125,-0.2589817755758762,-0.9394177160106599,0.513058718377538
1738005775049843700,2.81684375,-0.41657063060104843,-0.8421888563368469,0.32034064577147364
1738005775059912700,2.82691259765625,-0.5417337183177471,-0.7951323599990456,0.09011972178835422
1738005775069981000,2.83698095703125,-0.6436439407408238,-0.7427491887457668,-0.019589776208810507
1738005775080049700,2.847049560546875,-0.58072542001307,-0.7284086748346686,-0.08913830953557043
1738005775090118700,2.85711865234375,-0.28497838661968705,-0.7823988428931683,-0.10338354637864977
1738005775100188000,2.86718798828125,0.14571838448941707,-0.8528948862031102,-0.07606270099375396
1738005775110256600,2.877256591796875,0.5449129328757524,-0.9568151332743465,-0.01506170432511717
1738005775120326000,2.887325927734375,0.8453875793129205,-1.0466099704898892,0.08502254477981477
1738005775130394600,2.89739453125,1.0133294860482216,-1.0961476161189376,0.152226962665841
1738005775140462600,2.907462646484375,1.0774831015288828,-1.1095447117000818,0.19387849468756466
1738005775150531800,2.91753173828125,1.0654057102441787,-1.1518684804275632,0.31075905335787685
1738005775160600600,2.9276005859375,1.0440624779641627,-1.2139523038968443,0.30629692284986376
1738005775170669800,2.937669921875,0.9964104999512433,-1.229459523499757,0.3129033719101921
1738005775180738600,2.947738525390625,0.9604156419843435,-1.1990445114918054,0.32349289925731717
1738005775190807800,2.957807861328125,0.9440057744532823,-1.198869008794427,0.31528241253383454
1738005775200876800,2.967876708984375,1.0002888026893137,-1.2789600519888102,0.30220852102506907
1738005775210945800,2.97794580078125,1.0687076743990183,-1.3727595948010682,0.2236895129203796
1738005775221013800,2.988013671875,1.096140455725789,-1.4092561186797916,0.23273469690233467
1738005775231082800,2.998082763671875,1.0842816756278275,-1.4654163973189889,0.2193659506328404
1738005775241151700,3.00815185546875,0.9911375279843807,-1.523278219179064,0.15324012176375834
1738005775251220700,3.018220703125,0.8339315347969531,-1.569950684635341,0.0968340516699478
1738005775261289700,3.028289794921875,0.6166957280606031,-1.5939020535871387,0.02156451034788042
1738005775271358700,3.038358642578125,0.42896600179374217,-1.5614768708005546,-0.04440247469767928
1738005775281428000,3.048427978515625,0.30701661542654035,-1.6028842553354798,-0.10385419609770179
1738005775291495700,3.05849560546875,0.22949030815362928,-1.6699970128826795,-0.11180701826568692
1738005775301564700,3.068564697265625,0.165446582788229,-1.7181250839747488,-0.18132511992156505
1738005775311634000,3.078634033203125,0.09784253459274768,-1.7590674813464282,-0.2195449604615569
1738005775321702700,3.08870263671875,0.005939326921105385,-1.7948606792613864,-0.22760252164565026
1738005775331772000,3.09877197265625,-0.15093933400809764,-1.7891611524455249,-0.2156395870534703
1738005775341840600,3.108840576171875,-0.4209241496354341,-1.7194548712737858,-0.20996300272177904
1738005775351909600,3.11890966796875,-0.7360200266212225,-1.6372890676319598,-0.17257325633037834
1738005775361979000,3.128978759765625,-0.992996307593584,-1.5808679460994899,-0.15367460419088602
1738005775372046600,3.139046630859375,-1.1833797632396221,-1.5267102394543588,-0.1527672070223838
1738005775382115800,3.14911572265625,-1.2950205215603112,-1.5582482641428708,-0.16220573770347982
1738005775392184800,3.159184814453125,-1.260344929498434,-1.7439909082457423,-0.25274642485026266
1738005775402253800,3.16925390625,-1.1131354296684264,-1.885349343959987,-0.30251784270256754
1738005775412322800,3.17932275390625,-1.0859943247646093,-1.7532601102419196,-0.2618713230049238
1738005775422391600,3.1893916015625,-1.4377894085943699,-1.4475171680130063,-0.07626984093841165
1738005775432460800,3.199460693359375,-2.202315983253717,-1.0035306341547519,0.187401188432239
1738005775442529800,3.20952978515625,-3.1781355305969714,-0.3621890520721674,0.37415070802271366
1738005775452597800,3.21959765625,-4.033278195726871,0.2858554982477799,0.4095768992561847
1738005775462666800,3.229666748046875,-4.675385428419709,0.925524069084227,0.3811700487328693
1738005775472735700,3.23973583984375,-5.1326054647952315,1.5882413974769412,0.1825007395721972
1738005775482804700,3.2498046875,-5.315455602326989,2.0553030289091168,0.08088054960425943
1738005775492873700,3.259873779296875,-5.120613998228311,2.3060215646609663,0.11950520808547735
1738005775502942700,3.269942626953125,-4.601683647871017,2.3247362020030615,0.19393435306064782
1738005775513011700,3.28001171875,-3.825972831374407,2.1892454892784357,0.23420221217162907
1738005775523080000,3.290079833984375,-2.8760318216532466,1.9301798348113894,0.21810762113481758
1738005775533148700,3.300148681640625,-1.717603544318676,1.5802170809753238,0.150851436528936
1738005775543217700,3.3102177734375,-0.4556856664150953,1.1738956033185124,0.04242109162211418
1738005775553287000,3.320286865234375,0.6636527095466852,0.7085523201115429,-0.04961757899746298
1738005775563355600,3.330355712890625,1.7775602926313876,0.3177055845601484,-0.07974493317045271
1738005775573425000,3.3404248046875,2.399886135533452,-0.044367129389662294,-0.17769728481322525
1738005775583493600,3.35049365234375,2.7429250814557076,-0.11716622547758743,-0.30374928419366476
1738005775593563000,3.36056298828125,2.7828420813024044,-0.022278257240960372,-0.454776150354743
1738005775603630800,3.370630859375,2.4118232415646315,0.16241375443097203,-0.6016706659514457
1738005775613699600,3.380699462890625,1.7872715393066405,0.44329654230009763,-0.7291095165804028
1738005775623768800,3.390768798828125,1.1818097374439238,0.7336418993130326,-0.7400300659801811
1738005775633838300,3.40083837890625,0.6493155566364527,0.9672392043940722,-0.7011103335425257
1738005775643907300,3.4109072265625,0.0037158056527376174,1.1999839112337678,-0.7336057320211082
1738005775653976300,3.420976318359375,-0.5132306774109602,1.365160225713253,-0.6990439025320112
1738005775664045300,3.43104541015625,-0.8030588421493768,1.4992261663317679,-0.6423921871140599
1738005775674114300,3.4411142578125,-0.9447212292462587,1.5877112361229955,-0.6647397741310298
1738005775684183300,3.451183349609375,-0.9943658423811197,1.6056205484315753,-0.7796497633807361
1738005775694251300,3.461251220703125,-1.0369605370044708,1.5931038889467715,-0.8834509141169488
1738005775704320500,3.471320556640625,-0.9959458050489425,1.4495942665480077,-0.9028618631601333
1738005775714389200,3.48138916015625,-0.7056161205291748,1.140256222436577,-0.8101571298472583
1738005775724458200,3.491458251953125,-0.11231003588438034,0.7822253129571676,-0.65063993710801
1738005775734527200,3.50152734375,0.6022820027828216,0.424648723116517,-0.5149312707837671
1738005775744596200,3.51159619140625,1.232602936092019,0.1823955986972898,-0.4037984254525974
1738005775754665500,3.52166552734375,1.7750258057177066,0.04453691473230719,-0.3244982769075781
1738005775764734200,3.531734130859375,2.2191402768045663,-0.13001524045560509,-0.224130826947093
1738005775774803500,3.541803466796875,2.4838433526366948,-0.2710460516506806,-0.11138009809050708
1738005775784871400,3.551871337890625,2.5543226640075445,-0.36113585322480646,-0.058382338602840894
1738005775794940200,3.561940185546875,2.4920921255439517,-0.3818504687450826,0.011269472435303032
1738005775805009400,3.572009521484375,2.345690434965491,-0.376756360476464,0.07542542600352317
1738005775815078100,3.582078125,2.0877374179154633,-0.30852884662039576,0.1291736385323107
1738005775825147400,3.5921474609375,1.7654934227406978,-0.2436030777234584,0.12606628363411873
1738005775835216400,3.60221630859375,1.5146803405731915,-0.19827588939629495,0.10781257833465933
1738005775845285400,3.612285400390625,1.3429285201609134,-0.12656864366568624,0.1138280392318964
1738005775855354400,3.622354248046875,1.2785966255038976,-0.08755173446387052,0.10759440553933382
1738005775865422300,3.63242236328125,1.3081681724250316,-0.1262092357687652,0.09342186860628425
1738005775875491300,3.6424912109375,1.3850912531077861,-0.1661959398508072,0.07144285917337984
1738005775885560300,3.652560302734375,1.4836521651029586,-0.167524631171301,0.04307940940037369
1738005775895629300,3.66262939453125,1.534403862696886,-0.1922296680346131,0.06269771758392453
1738005775905698300,3.6726982421875,1.530073140016198,-0.24426168776266274,0.04620813588015735
1738005775915767600,3.682767578125,1.4870862312048674,-0.2957105738405138,-0.016666289977543054
1738005775925836300,3.692836181640625,1.4169348366141319,-0.34956542508155103,-0.014959997516311704
1738005775935905300,3.7029052734375,1.341329268270731,-0.4186943447567522,0.011476795043051243
1738005775945974300,3.712974365234375,1.28853232858479,-0.599286035837233,-0.0014034370571374892
1738005775956043300,3.723043212890625,1.2851152136176824,-0.6562330078747123,0.022291107589378953
1738005775966111500,3.733111572265625,1.2867881152659655,-0.6196120538987219,0.051913325251825154
1738005775976180200,3.74318017578125,1.215122224459052,-0.6224036573786288,0.048860257824137804
1738005775986249500,3.75324951171875,1.0586007064044476,-0.6607307576853781,0.10423932295776903
1738005775996318500,3.763318359375,0.8561281690359115,-0.6948543418876826,0.14599354816898702
1738005776006387200,3.77338720703125,0.6594692863821983,-0.6956769833821803,0.16192038142345844
1738005776016456400,3.78345654296875,0.48514030895829197,-0.6748526604097336,0.16094810232520101
1738005776026525200,3.793525146484375,0.3061825026899576,-0.6740324300680309,0.11353051759004593
1738005776036594400,3.803594482421875,0.18323826006650923,-0.6912341055639087,0.07459032688625157
1738005776046663200,3.8136630859375,0.11747545582354069,-0.6748200002491473,0.056785059474036094
1738005776056731100,3.823731201171875,0.08869652058482169,-0.6307070100173354,-0.03054338762797415
1738005776066800400,3.83380029296875,0.08247370054721832,-0.6021165100228041,-0.11417203036397695
1738005776076869400,3.843869384765625,0.12707388977408407,-0.584054929761961,-0.1575899510037154
1738005776086938400,3.8539384765625,0.13851356767714024,-0.5649261586610228,-0.18447108979709445
1738005776097007400,3.86400732421875,0.0028127193331718443,-0.5764144249461591,-0.22349318663068116
1738005776107076400,3.874076416015625,-0.2758393868744373,-0.7217869916725903,-0.31526005457155404
1738005776117145300,3.884145263671875,-0.49257308930754656,-0.9569474544171244,-0.4928452573124319
1738005776127214300,3.89421435546875,-0.6148164901852607,-1.2153168702483177,-0.5742242944907396
1738005776137283300,3.904283447265625,-0.6104559568881989,-1.3751876987308262,-0.5113135917432606
1738005776147351300,3.914351318359375,-0.6396101551800966,-1.215797712567821,-0.2837095357276499
1738005776157420300,3.924420166015625,-0.8371575111061335,-0.5209709893394261,0.2147429670073092
1738005776167489300,3.9344892578125,-1.6207319005846976,0.4147608777653426,0.7717358484510332
1738005776177558500,3.94455859375,-3.1333307587087154,1.1746489059038459,1.0070655302826315
1738005776187627300,3.954627197265625,-4.86203203562498,1.6469170199379324,1.0437309809874742
1738005776197696500,3.964696533203125,-6.18048136356771,1.9360588098473845,0.963082011649385
1738005776207765200,3.97476513671875,-6.817364139610529,2.1246967370003462,0.7776293634690344
1738005776217834200,3.984834228515625,-6.634986295765638,2.2502676748655737,0.5472438600413501
1738005776227903500,3.994903564453125,-5.725460298541188,2.3583188842616973,0.4177531183838844
1738005776237972200,4.00497216796875,-4.437168792974949,2.353407877475023,0.30473529955632983
1738005776248040400,4.01504052734375,-3.075934216272831,2.1746087688997386,0.16953268305808306
1738005776258109400,4.025109375,-1.9757061989724636,1.9116659807384013,0.17010946003273128
1738005776268178200,4.03517822265625,-1.0738456218093633,1.5970990960627793,0.31038192714117463
1738005776278247400,4.045247314453125,-0.36683307848572727,1.266775547067821,0.4465241625770926
1738005776288316200,4.055316162109375,0.22512100702822208,1.0015740201942622,0.5229308181703091
1738005776298385400,4.065385498046875,0.7526841611742973,0.7928754479177296,0.6077396836668253
1738005776308454400,4.075454345703125,1.1752286054879426,0.729946551926434,0.6512021741006523
1738005776318523400,4.0855234375,1.5208832868665456,0.7934693952228874,0.6447051402315497
1738005776328592400,4.09559228515625,1.7148434319555759,0.9054352207794785,0.6289436536066234
1738005776338661400,4.105661376953125,1.6970669522464275,0.9908554231073706,0.6224516612388193
1738005776348729300,4.115729248046875,1.486976925611496,1.1834983481179921,0.6230700123328715
1738005776358798300,4.12579833984375,1.211597557464242,1.3098035185419021,0.5452031479939818
1738005776368867300,4.135867431640625,1.0059943208545445,1.3695365411013365,0.49554414100758726
1738005776378936300,4.145936279296875,0.7643009492099284,1.2970942590944468,0.3079087419606745
1738005776389005300,4.15600537109375,0.8079986366391182,1.3440546015813946,0.3396282241633162
1738005776399074300,4.16607421875,0.9536778581619262,1.4400769350096583,0.4156683845316991
1738005776409143600,4.1761435546875,0.999501451703906,1.4257383207947014,0.4487563786085695
1738005776419212300,4.18621240234375,0.9468588257968426,1.3379641757518053,0.5665646831156685
1738005776429281300,4.19628125,0.7913625591367482,1.3475940277539193,0.6259190450884401
1738005776439350300,4.206350341796875,0.5589397046625614,1.4924335835821925,0.5581957544274628
1738005776449418200,4.216418212890625,0.3120768214255571,1.6178529841475189,0.5430547377884387
1738005776459487500,4.226487548828125,0.05342354715168476,1.6708303949669003,0.4875862773383036
1738005776469556200,4.23655615234375,-0.1857756695896387,1.6259227472260593,0.4109575764922425
1738005776479625200,4.246625244140625,-0.3085387104272842,1.6670581829518079,0.33946890541575847
1738005776489694500,4.256694580078125,-0.34781624332666394,1.7880074523657559,0.24511512625422327
1738005776499763200,4.26676318359375,-0.25316344468593593,1.8710583682790398,0.16253193745054303
1738005776509832400,4.27683251953125,-0.08799275622963905,1.8817185862421988,0.13509837067248298
1738005776519901200,4.286901123046875,0.02056698721051216,1.8551098346494137,0.13126144112441687
1738005776529970400,4.296970458984375,0.07744096707701682,1.8292526320762932,0.10915794679531828
1738005776540039400,4.307039306640625,0.22069091562628745,1.7871305234007537,0.03395637440923601
1738005776550107100,4.317107177734375,0.4116892883002758,1.6896172207623719,0.0014790230439975856
1738005776560176400,4.32717626953125,0.666299424663186,1.5670337742753326,0.006195457106642425
1738005776570245400,4.337245361328125,0.9429168101727962,1.4682020825147628,0.029913702289154753
1738005776580314400,4.347314453125,1.1831138057798147,1.379584910776466,0.041889633360225706
1738005776590383400,4.35738330078125,1.4040882145226001,1.3404910638809204,0.05971838211272843
1738005776600452400,4.367452392578125,1.5207546920508146,1.2715467069923876,0.14166431419248693
1738005776610521300,4.377521240234375,1.5741653797209263,1.1988476006802171,0.25053455748707054
1738005776620590300,4.38759033203125,1.6366390792906282,1.1362388765539972,0.3885353533364832
1738005776630659300,4.397659423828125,1.5943687943160534,1.1162277696605771,0.515897485467419
1738005776640728300,4.407728271484375,1.4918904166162013,1.120752918934822,0.638094051528722
1738005776650796300,4.41779638671875,1.339918816950917,1.1645168034680187,0.794557190459594
1738005776660865300,4.427865234375,1.1134528250545264,1.2259586757719516,1.0206456542804836
1738005776670934300,4.437934326171875,0.7977928844451904,1.2699153063982724,1.2863362798452376
1738005776681003300,4.448003173828125,0.5406622896939516,1.2383207292169331,1.4787641008004546
1738005776691072300,4.458072265625,0.3479670499742031,1.1997992753818632,1.6832355569012463
1738005776701141200,4.468141357421875,0.259015677845478,1.0781496756788342,1.8916627648904918
1738005776711210200,4.478210205078125,0.2509679804682731,0.9160347215313464,2.0591203952401873
1738005776721279200,4.488279296875,0.3254027514666319,0.8338513091675936,2.263163396795839
1738005776731348200,4.49834814453125,0.377163918364048,0.8340339722581207,2.5034417870759964
1738005776741417200,4.508417236328125,0.324505510365963,0.874316371351108,2.7519395780384537
1738005776751485400,4.5184853515625,0.06560089167952537,0.9822429314542561,2.9487545280367136
1738005776761554200,4.52855419921875,-0.4004717287153005,1.1866202795308083,3.0032629478156565
1738005776771623200,4.538623046875,-0.836979231929779,1.3854358287617563,2.9554125246211886
1738005776781692200,4.548692138671875,-1.1080126798272132,1.5093804805994033,2.861942506024241
1738005776791761200,4.55876123046875,-1.1421119333058596,1.4869487224303186,2.586830848902464
1738005776801830400,4.568830322265625,-0.8257944055706262,1.3307726568125187,2.2679355796337126
1738005776811899100,4.578899169921875,-0.2613578570574522,1.1471075496360659,2.039333452491462
1738005776821968400,4.588968505859375,0.25739830577671524,1.0024678272288292,1.9602637151688336
1738005776832037000,4.599037109375,0.6648264295011759,0.8573555188737809,1.8751845082983374
1738005776842106400,4.6091064453125,1.1368325315982102,0.7489036197222769,1.7755407695025205
1738005776852174300,4.61917431640625,1.539439518776536,0.658579863261804,1.7116791227057575
1738005776862243000,4.6292431640625,1.6431266877442596,0.6525531503181904,1.7178681866042316
1738005776872312300,4.639312255859375,1.4329033901184796,0.6827496242046356,1.7112702496439218
1738005776882381300,4.64938134765625,1.081761217239499,0.6784791803438216,1.6152958470106125
1738005776892450300,4.6594501953125,0.6812193458974362,0.6604420769371092,1.569693495003879
1738005776902519300,4.669519287109375,0.254955588799715,0.6529679416641593,1.570487860251963
1738005776912588300,4.67958837890625,-0.13419511995613576,0.673084262497723,1.5811280583404004
1738005776922657300,4.6896572265625,-0.46055940993130207,0.7257127137489616,1.6797506373949347
1738005776932726300,4.699726318359375,-0.7321089906573295,0.7728307310156524,1.7662271438427268
1738005776942794200,4.709794189453125,-0.9648130001604557,0.8716867534998803,1.7805735029727219
1738005776952863200,4.71986328125,-1.1907213581740856,1.0092057571817188,1.803396598546952
1738005776962932200,4.72993212890625,-1.5512380931198595,1.0918941233929247,1.8116151224464176
1738005776973001200,4.740001220703125,-1.962021372491121,1.1006716694146395,1.816179215491563
1738005776983070200,4.7500703125,-2.1931793215960265,1.0419636790540068,1.8282050227195024
1738005776993139200,4.76013916015625,-2.175586966282129,0.9701997347000986,1.8145672502502799
1738005777003208200,4.770208251953125,-1.8979384841591118,0.9349735960833728,1.7443569650791584
1738005777013277200,4.780277099609375,-1.454415549224615,0.9128890439167618,1.627317270324379
1738005777023346200,4.79034619140625,-1.0152332738429308,0.862759642939642,1.5044392248049379
1738005777033415400,4.80041552734375,-0.6347855115026235,0.8323589517179876,1.3474791692025958
1738005777043483100,4.810483154296875,-0.3285083162665367,0.826748783686012,1.1644335821639746
1738005777053552000,4.82055224609375,-0.14486147539913655,0.845298001333326,1.0226327364444732
1738005777063621400,4.830621337890625,-0.0171492877215147,0.8330646157693118,0.8567487851522863
1738005777073690000,4.840690185546875,0.15726035372316835,0.7341844086918979,0.689694694102183
1738005777083759400,4.85075927734375,0.3998942210882902,0.5703961145047098,0.5598472844941541
1738005777093828000,4.860828125,0.6571265226483345,0.4555537836637348,0.531920837898925
1738005777103897300,4.8708974609375,0.7121662728250027,0.5930625582125038,0.6431991926480084
1738005777113966300,4.88096630859375,0.4841460372239351,0.9109688164439051,0.7888201811775565
1738005777124035300,4.891035400390625,0.07071019751727581,1.230356472339481,0.8220889751814305
1738005777134104300,4.901104248046875,-0.36984453526139255,1.573549439779669,0.8062280467700212
1738005777144172300,4.91117236328125,-0.7603174325317144,1.8637895463198422,0.7968189248465001
1738005777154241300,4.9212412109375,-0.9761281749010086,2.012928552907705,0.8413231794182211
1738005777164310300,4.931310302734375,-0.9081716600060462,1.9538252065539359,0.8687007234264165
1738005777174379300,4.941379150390625,-0.5491986473709345,1.8019047525539993,0.814438241232559
1738005777184448300,4.9514482421875,-0.14304711945354937,1.661635427250713,0.7624914886351675
1738005777194517200,4.961517333984375,0.12803718184828758,1.5720906192734836,0.6911567294787615
1738005777204586200,4.971586181640625,0.30879356197118757,1.4941642067670822,0.5747906231366098
1738005777214655200,4.9816552734375,0.46434360464513297,1.528056831757724,0.4662319026097655
1738005777224724200,4.99172412109375,0.5106657953590155,1.6137020019479096,0.3668205477977171
1738005777234792200,5.001792236328125,0.4340525112777948,1.6597350004568696,0.24213095934428272
1738005777244861400,5.011861328125,0.2984592149615288,1.724940170817077,0.1278590122697875
1738005777254930200,5.02193017578125,0.1872749682366848,1.753346181090176,-0.03822813344430178
1738005777264999200,5.031999267578125,0.1642430522173643,1.7040481894358992,-0.25904022776484487
1738005777275068200,5.042068115234375,0.2591594702303409,1.6434139802530408,-0.45859037488065657
1738005777285137200,5.05213720703125,0.40400925519168374,1.5968576885223387,-0.5894327503427863
1738005777295206400,5.062206298828125,0.513363363879919,1.560109089578688,-0.7221502720270305
1738005777305275100,5.072275146484375,0.5194523284047842,1.5717083419576285,-0.8206005632545799
1738005777315344400,5.082344482421875,0.3577057691782713,1.6453893719792365,-0.9338442267272621
1738005777325413000,5.0924130859375,0.09947685779631137,1.679082528875023,-1.0098683858089148
1738005777335481000,5.102481201171875,-0.1474246038854122,1.6645628590047359,-1.0345091983295978
1738005777345550300,5.11255029296875,-0.3190180188655853,1.5740905609190463,-1.0775723141822964
1738005777355619000,5.122619140625,-0.40466216614246364,1.5172998754218219,-1.1635557033509016
1738005777365688300,5.132688232421875,-0.3987573260128498,1.4965733137354253,-1.3375073718950152
1738005777375757300,5.14275732421875,-0.3169061412781477,1.4154206326588987,-1.499639715568721
1738005777385826300,5.152826416015625,-0.2294470535337925,1.2906808849208056,-1.632629551388323
1738005777395895300,5.162895263671875,-0.17748305754065513,1.1859759902779012,-1.741887506225705
1738005777405964000,5.172964111328125,-0.17809212934970856,1.0994644855819642,-1.7961130174100397
1738005777416033300,5.183033203125,-0.22592004845142363,1.0483244462575763,-1.8224679403722286
1738005777426102300,5.193102294921875,-0.2916314147680998,1.0430174989558756,-1.867782999870181
1738005777436170200,5.203170166015625,-0.3810761233717203,1.0563098920535297,-1.9012366489216683
1738005777446239200,5.2132392578125,-0.44103871690332885,1.0148424478944391,-1.9518087521649896
1738005777456308500,5.22330859375,-0.4652841003656387,0.8722979442007839,-1.9659471676327287
1738005777466377200,5.233377197265625,-0.45206455330848694,0.7151249034348874,-1.9989324685201049
1738005777476446200,5.2434462890625,-0.3780266726732254,0.5762182447869331,-2.046374603174627
1738005777486515200,5.25351513671875,-0.31600071687102316,0.4760673601865768,-2.0618048120185732
1738005777496584200,5.263584228515625,-0.2817097402125597,0.4155667873207479,-2.0185050378657876
1738005777506653200,5.273653076171875,-0.32069735025465484,0.39852833956256506,-2.0182956328988073
1738005777516721200,5.28372119140625,-0.36777474325001236,0.4193395107924938,-2.023124660490453
1738005777526790100,5.2937900390625,-0.3641314183115959,0.46278388104774054,-1.9676782292090356
1738005777536859400,5.303859375,-0.3579910158604383,0.4573331413611769,-1.8900003846362232
1738005777546928000,5.31392822265625,-0.3366998060286045,0.4412357738453895,-1.7719157108731567
1738005777556997400,5.323997314453125,-0.22240473380684853,0.40740160104371603,-1.6438756064154207
1738005777567066000,5.334066162109375,-0.0013344634741544723,0.30415695167910306,-1.5126917971044778
1738005777577135400,5.34413525390625,0.30674715083539483,0.16620521913580596,-1.3134618949189782
1738005777587204000,5.3542041015625,0.5350672461658715,0.07348674955852329,-1.1039115281186997
1738005777597273300,5.3642734375,0.6433908427625894,-0.016171455665305257,-0.9302797391787171
1738005777607342300,5.37434228515625,0.6981541140854358,-0.08335296759977937,-0.7779770078629255
1738005777617410300,5.384410400390625,0.6226479144632816,-0.05269369850717485,-0.6255402749039233
1738005777627479300,5.394479248046875,0.36469957358837124,-0.02218428621403873,-0.4585913977939635
1738005777637548500,5.404548583984375,0.03143032653033733,-0.018001337973587214,-0.33926421315651384
1738005777647617300,5.4146171875,-0.27186872967779635,-0.004902604284510016,-0.19174188451766966
1738005777657686300,5.424686279296875,-0.5142816477686166,0.031000118419528006,-0.009646401278115809
1738005777667755300,5.43475537109375,-0.6496697769016027,0.06506349686719477,0.10221099546793848
1738005777677824300,5.44482421875,-0.7270961309313774,0.07694898230899125,0.10065832266584038
1738005777687893500,5.4548935546875,-0.7800123130828142,0.06776497437823563,0.07911269968152046
1738005777697962200,5.464962158203125,-0.8076099295824766,0.06630279287118464,0.04533040319755673
1738005777708030200,5.4750302734375,-0.7886246586054563,0.09641637424714863,0.005837510514445602
1738005777718099500,5.485099365234375,-0.7490127791851758,0.10774020721819251,-0.02255005078651011
1738005777728168200,5.495168212890625,-0.7159294247508049,0.09904843978378922,0.0035057796312496065
1738005777738237400,5.505237548828125,-0.6356371598958969,0.1177989886894822,-0.004992401459813118
1738005777748306200,5.51530615234375,-0.498747394028306,0.10366484753806143,-0.0318088409865275
1738005777758375400,5.52537548828125,-0.30017770931720733,-0.01791314823348075,-0.07288363256622106
1738005777768444400,5.5354443359375,0.024576807373762128,-0.2125079014316201,-0.15072496060505508
1738005777778513400,5.545513427734375,0.3888262991070747,-0.39644546887390314,-0.2361096166955307
1738005777788582400,5.55558251953125,0.7302963882774114,-0.5612623754564673,-0.3169333215460181
1738005777798651100,5.565651123046875,0.9997527961164713,-0.6864949482128023,-0.388500610816665
1738005777808719400,5.57571923828125,1.2220552385926247,-0.7444736013855785,-0.43575913253258913
1738005777818788400,5.585788330078125,1.317633919906616,-0.7653527232851832,-0.45442306260075416
1738005777828857300,5.595857421875,1.2549281651467084,-0.7908804747082293,-0.4185110606117174
1738005777838926300,5.60592626953125,1.046055697607994,-0.7766881370961666,-0.3734167311923578
1738005777848995300,5.615995361328125,0.7177040332078933,-0.7490472659766674,-0.30079489136748017
1738005777859064300,5.626064208984375,0.3733136726766825,-0.7507105230137705,-0.2605051492182538
1738005777869133300,5.63613330078125,0.042050504744052884,-0.729852955358848,-0.30362759404275563
1738005777879202300,5.646202392578125,-0.1937099697202444,-0.6259608384035528,-0.2819584177440032
1738005777889271300,5.656271240234375,-0.4236228872001171,-0.3870690071109682,-0.21659433049503712
1738005777899339500,5.666339599609375,-0.7795657383590936,-0.15281002325080334,-0.16872794254645704
1738005777909408300,5.676408203125,-1.231141046845913,-0.0016045856524258852,-0.13487751272972673
1738005777919477200,5.686477294921875,-1.6540397114247083,0.05194397611841559,-0.0729568804655224
1738005777929546200,5.696546142578125,-1.9708739565104245,-0.008756795494630933,-0.013841405282542109
1738005777939615200,5.706615234375,-2.0458347972095012,-0.10840089961662888,0.011015716869942844
1738005777949684500,5.7166845703125,-1.7410960635870694,-0.2904102389426902,0.057568428404070435
1738005777959753200,5.726753173828125,-1.080163134393096,-0.5132121919061988,0.12195285696592181
1738005777969822500,5.736822509765625,-0.332028891608119,-0.6978157489765435,0.18413674327619373
1738005777979891200,5.74689111328125,0.2862362777262926,-0.8611218856699764,0.2425329642739147
1738005777989960400,5.75696044921875,0.7684545617580414,-1.007109369424358,0.26581374048776923
1738005778000028400,5.7670283203125,1.1958236497491597,-1.1724644745368509,0.2626500157598406
1738005778010097200,5.77709716796875,1.4690905557870864,-1.2955109354257583,0.2618685465259477
1738005778020166400,5.78716650390625,1.5831073955893515,-1.3541861194953322,0.24035569330006837
1738005778030235400,5.7972353515625,1.5846762523412703,-1.3748761485636234,0.2038585483668372
1738005778040304400,5.807304443359375,1.5380343281537294,-1.4067434052065013,0.16377952635884285
1738005778050373400,5.817373291015625,1.515516791397333,-1.4250184820875524,0.1186900923103094
1738005778060442400,5.8274423828125,1.5305483563125133,-1.424760123412311,0.10896920102387667
1738005778070511400,5.837511474609375,1.6036591852307318,-1.4580004219740628,0.11916322624739259
1738005778080580400,5.847580322265625,1.6939169637829063,-1.514507906615734,0.12115867438092827
1738005778090649300,5.8576494140625,1.7610557325541971,-1.5391671315759419,0.14127353390976785
1738005778100717300,5.86771728515625,1.7782038512319325,-1.4972421529076994,0.1760631808053702
1738005778110786600,5.87778662109375,1.6653063708484173,-1.4266602579452097,0.1853658466797322
1738005778120855300,5.887855224609375,1.4385229835659266,-1.3790624943375587,0.1633877870948985
1738005778130924300,5.89792431640625,1.1554349407374858,-1.3208873687446117,0.12036273823026566
1738005778140993300,5.9079931640625,0.9311392786175012,-1.2335846406057476,0.07707838084232062
1738005778151062300,5.918062255859375,0.8441600833445787,-1.188026566132158,0.01149170035123825
1738005778161131300,5.92813134765625,0.8708324016928672,-1.1626744635369628,-0.05096603446435183
1738005778171200300,5.9382001953125,0.9521142621070146,-1.193684738024324,-0.10542374696936457
1738005778181269500,5.94826953125,1.059188735425472,-1.238487025694549,-0.16501907809115945
1738005778191337500,5.95833740234375,1.1703951939821242,-1.234930502256751,-0.15094360832441597
1738005778201406200,5.96840625,1.2339385686099529,-1.2600699119493364,-0.12535134029779582
1738005778211475500,5.978475341796875,1.1799217317402362,-1.3785579058162867,-0.10505973596256225
1738005778221544200,5.988544189453125,1.1797335156917572,-1.5135693105913697,-0.047441404002159834
1738005778231613400,5.998613525390625,1.2103636317551136,-1.5927438234627247,0.017879647822678087
1738005778241682200,6.00868212890625,1.162982287377119,-1.6067407846331596,0.09382252182904631
1738005778251751400,6.01875146484375,0.9462094219774008,-1.6162655688256025,0.14123027928993104
1738005778261820400,6.0288203125,0.5675701703637838,-1.601100148397684,0.18251308759711682
1738005778271889400,6.038889404296875,0.17260346880555152,-1.6007007738165557,0.23325141425281762
1738005778281958400,6.04895849609375,-0.1495686301767826,-1.6001318878874182,0.2839423215702176
1738005778292026400,6.0590263671875,-0.41981940326392647,-1.5630616557739674,0.2778717694848776
1738005778302095400,6.069095458984375,-0.6015010815382004,-1.4935072041630744,0.2044599848587066
1738005778312164400,6.079164306640625,-0.801469527131319,-1.4369384908534586,0.09339410381652415
1738005778322233300,6.0892333984375,-1.1083166312098502,-1.4424287588328122,-0.07258271339088677
1738005778332302300,6.09930224609375,-1.4202309555500745,-1.5764434076555072,-0.2107661723308265
1738005778342371300,6.109371337890625,-1.515360139530897,-1.7467723556578159,-0.27162191530987617
1738005778352440300,6.1194404296875,-1.5042536391049623,-1.7577400321349501,-0.1522122034881264
1738005778362509300,6.12950927734375,-1.6155542056858538,-1.5848697290867566,0.1656431282736361
1738005778372578300,6.139578369140625,-1.8935820425152778,-1.3708125523865222,0.5911946454487741
1738005778382647300,6.149647216796875,-2.3543530493706464,-0.9389311015374958,1.0567756098691374
1738005778392715500,6.159715576171875,-3.119944622913003,-0.2862856698259711,1.4054105491675435
1738005778402784300,6.1697841796875,-4.2845857834130525,0.410139501575008,1.4875518028900026
1738005778412853200,6.179853271484375,-5.455092621076107,1.0043651122175157,1.5702347622737287
1738005778422922500,6.189922607421875,-6.232651695787906,1.4901156620286404,1.6193062516957522
1738005778432991200,6.1999912109375,-6.553613249936699,1.905345107153803,1.511393281726539
1738005778443060500,6.210060546875,-6.324778190821409,2.192129228021204,1.2500786792889236
1738005778453129200,6.220129150390625,-5.339129323381186,2.1120687260955573,1.1167896413270384
1738005778463198500,6.230198486328125,-3.820755973508954,1.794629062462598,1.0747384059306233
1738005778473267200,6.24026708984375,-2.2978601777762173,1.5279764599978922,1.0151428190805016
1738005778483336400,6.25033642578125,-1.0037900888085365,1.344395377843082,0.9690301794640719
1738005778493404400,6.260404296875,0.33315409624576564,1.1174281584262846,1.000636812409386
1738005778503473400,6.270473388671875,1.5362638113498688,0.7986808462608606,1.0828184712074695
1738005778513542400,6.28054248046875,2.3411674045830964,0.5049767168719321,1.0376380709398538
1738005778523611400,6.290611328125,2.796956531372666,0.334780674534291,1.0186455665044485
1738005778533680400,6.300680419921875,2.8977842192560432,0.3570226822849363,1.0544507471181452
1738005778543749400,6.310749267578125,2.7623902449041604,0.4639640307430178,1.0824936962325125
1738005778553818000,6.320818115234375,2.4101667065292594,0.6045028937026858,1.0499738208997995
1738005778563887400,6.330887451171875,1.91232122977674,0.7620499554127455,0.9426558211490511
1738005778573956400,6.340956298828125,1.385520292174816,0.9640091364316642,0.8021371972598135
1738005778584024300,6.3510244140625,0.9488637358784675,1.169727304657921,0.6346626888405531
1738005778594093300,6.36109326171875,0.5666711756974459,1.3044888993903994,0.4310307523038238
1738005778604162600,6.37116259765625,0.20338205342888832,1.3970362501844762,0.2962392373571172
1738005778614231300,6.381231201171875,-0.11252455541789531,1.4913378972999751,0.2044925719540566
1738005778624300300,6.39130029296875,-0.37275486975014205,1.525460970045626,0.19582217610124497
1738005778634369000,6.401369140625,-0.5401356354713439,1.5006095835141837,0.24065259388741103
1738005778644438300,6.411438232421875,-0.6385492479503154,1.427709766998142,0.25452096024211496
1738005778654507300,6.42150732421875,-0.694862086802721,1.33872478486076,0.2532358523350209
1738005778664576300,6.431576171875,-0.6355746160537004,1.1769637587174773,0.23520346163604408
1738005778674645200,6.441645263671875,-0.4319505705624819,0.9826648101281374,0.19690419918429106
1738005778684713200,6.451713134765625,-0.09765373402237891,0.7535444312654436,0.09064696053285151
1738005778694782200,6.4617822265625,0.30737960352003574,0.5840973806641996,-0.015537212882377206
1738005778704851200,6.471851318359375,0.6991600762575865,0.4913999538749456,-0.11713256067000329
1738005778714920200,6.481920166015625,1.0491285291820764,0.40372525061853226,-0.22353191120587287
1738005778724989200,6.4919892578125,1.2524702506005763,0.30526750673688946,-0.30741222714800387
1738005778735058400,6.502058349609375,1.3740461274802684,0.2588335992768407,-0.3989742566991597
1738005778745127200,6.512127197265625,1.4103309083044528,0.2124262144975364,-0.4853717796266079
1738005778755196200,6.522196044921875,1.4041168560951947,0.14082907807789743,-0.4844753057109192
1738005778765265200,6.53226513671875,1.3361001354455948,0.08532412154227495,-0.4452002570295706
1738005778775334100,6.542334228515625,1.2699977239847182,0.06592866232916712,-0.3759855222344398
1738005778785402400,6.55240234375,1.2255693841934203,0.0690717095952481,-0.25007209107447415
1738005778795471000,6.56247119140625,1.1439771426558494,0.0521411791909486,-0.12321410907339304
1738005778805540400,6.572540283203125,1.0115192217558622,0.034717093116045,-0.0076727265849709505
1738005778815609300,6.582609375,0.8534358612120151,0.059473421775177115,0.10268610216639935
1738005778825678000,6.592677978515625,0.7005500693112612,0.10736198502294719,0.1849325332963839
1738005778835747300,6.602747314453125,0.6302560513794422,0.12126191555969416,0.24110431971028445
1738005778845816000,6.612816162109375,0.6254910289347172,0.09466551199182867,0.278175172878243
1738005778855885300,6.62288525390625,0.6318512116163969,0.05668620220944285,0.3062225424394011
1738005778865954000,6.6329541015625,0.6672638857811689,0.02493205055221915,0.34300022134706376
1738005778876023300,6.643023193359375,0.7155828032702207,-0.028939386497437953,0.3749281221359968
1738005778886091300,6.65309130859375,0.7938514533430338,-0.10295476303994655,0.3985310064436868
1738005778896160000,6.663159912109375,0.9020447015583515,-0.1850175446987152,0.45861127153821285
1738005778906229200,6.673229248046875,1.0005646970212458,-0.31242081255763765,0.4807546046873554
1738005778916298200,6.68329833984375,1.0532406406760215,-0.4793821838229894,0.46134135408923027
1738005778926367200,6.6933671875,1.1181295846939086,-0.5580507929988205,0.40268812612313776
1738005778936436200,6.703436279296875,1.162409455925226,-0.615982465224713,0.3542878504935652
1738005778946505200,6.713505126953125,1.143780158779025,-0.6029713002212346,0.32241124150045214
1738005778956574200,6.72357421875,1.006315807893872,-0.6026693946652114,0.3188006497878581
1738005778966643200,6.733643310546875,0.7622358333736657,-0.6146035780869424,0.32632815921586006
1738005778976712200,6.743712158203125,0.5082371069073677,-0.5760268869332968,0.3259981600765139
1738005778986780200,6.7537802734375,0.24873861398100852,-0.46581075458824633,0.37027901768852023
1738005778996849400,6.763849365234375,-0.03806815710961819,-0.3599572013668716,0.3771654527340084
1738005779006918100,6.773918212890625,-0.3062345251381397,-0.2611278476938605,0.3068594155708328
1738005779016987400,6.7839873046875,-0.508704724419117,-0.13598127272054553,0.2784214757895097
1738005779027056000,6.79405615234375,-0.6202566354125738,-0.035812487137317654,0.2960691414872184
1738005779037125000,6.804125,-0.6607593261927366,0.04584902024418115,0.2611860441545024
1738005779047194400,6.8141943359375,-0.6632406216144562,0.15610387716442345,0.22555622010771184
1738005779057263000,6.82426318359375,-0.6689315267324447,0.31110286182686686,0.17031126621514558
1738005779067332400,6.834332275390625,-0.7203045710951089,0.4167939179629087,0.1333597285779193
1738005779077401000,6.844401123046875,-0.8239215974360704,0.3165472448378801,0.19054840041678398
1738005779087469000,6.854468994140625,-0.9471814818799495,0.0868313112348318,0.28423374226484444
1738005779097538300,6.864538330078125,-0.9705413146793842,-0.15695771751478313,0.29499679954797026
1738005779107607000,6.87460693359375,-0.8068833688735961,-0.3815734053693712,0.2043237547257915
1738005779117676300,6.88467626953125,-0.48231473014354703,-0.6000747019968926,0.03841167331766337
1738005779127745000,6.8947451171875,-0.14174188207387922,-0.9193065097436308,-0.17971056086439638
1738005779137814300,6.904814208984375,0.07028641914725303,-1.2064352062650023,-0.29596151639427987
1738005779147883300,6.91488330078125,0.19977730693519113,-1.120808010122925,-0.33585590255036946
1738005779157952300,6.9249521484375,0.1280576401144266,-0.504938211492449,-0.22968725549783556
1738005779168021200,6.935021240234375,-0.6085854868412017,0.5084466580048204,0.06718180419541896
1738005779178090000,6.945090087890625,-1.9253326870411633,1.486231514071673,0.4126744999453425
1738005779188158200,6.955158203125,-3.487863158547878,2.13862063293457,0.48880986431650814
1738005779198227200,6.965227294921875,-5.018770411300659,2.430931992790848,0.3256493831714615
1738005779208296200,6.975296142578125,-5.716550431376695,2.4643267512619493,0.2022944408552721
1738005779218365200,6.985365234375,-5.253807832187414,2.3794801841035484,0.05903638206478208
1738005779228434400,6.995434326171875,-3.8170384142905474,2.319952328727394,-0.06913198841512203
1738005779238503200,7.005503173828125,-2.00277423864007,2.1120031135134396,-0.05771583751812577
1738005779248572200,7.015572265625,-0.38802199698686596,1.8592343672335148,-0.17327946837097405
1738005779258641200,7.02564111328125,1.1587567786365747,1.374679895339161,-0.24447821659017352
1738005779268710100,7.035710205078125,2.503779640728235,0.8063941240519285,-0.2678294276917353
1738005779278779400,7.045779296875,3.549720187523961,0.2984025163382292,-0.3415902084186673
1738005779288847000,7.05584716796875,4.057100969862938,-0.053460518161207435,-0.33300412984844296
1738005779298916000,7.065916015625,4.056722784200311,-0.18091420103311537,-0.2862887750985101
1738005779308985300,7.0759853515625,3.6510055560469623,-0.1005612920321524,-0.17718180957175791
1738005779319054000,7.08605419921875,2.8243618401706216,0.08224865961968898,-0.16367628518007696
1738005779329123300,7.096123291015625,1.7991630526304243,0.35132118270769713,-0.26544315360970794
1738005779339192000,7.106192138671875,0.6726543466478586,0.656509121402353,-0.3644885611861944
1738005779349261300,7.11626123046875,-0.3225356715977192,1.0176529022052883,-0.4823700405273586
1738005779359330300,7.126330322265625,-1.2069131990402937,1.4310422724217176,-0.4960262985013425
1738005779369399300,7.1363994140625,-1.7537310887545345,1.7017359669707715,-0.4273826050598174
1738005779379468300,7.14646826171875,-1.9489380190342664,1.7387980157777665,-0.4068530272502452
1738005779389536300,7.156536376953125,-1.8796037860453128,1.6007082264706491,-0.4147025717068463
1738005779399605200,7.166605224609375,-1.568046604579687,1.399958421241492,-0.43383916078805923
1738005779409674200,7.17667431640625,-0.964698433870077,1.1838296989642083,-0.4290909798802808
1738005779419743200,7.1867431640625,-0.2636971136599779,0.9755250944413244,-0.4048716807072982
1738005779429812200,7.196812255859375,0.3141612264841795,0.7165591009564697,-0.417114235958457
1738005779439881200,7.206881103515625,0.8159393665105104,0.5265782347619533,-0.4389943150615319
1738005779449950200,7.2169501953125,1.230892625042796,0.41192733483985067,-0.4288494262093678
1738005779460019200,7.227019287109375,1.5218781431227921,0.3127927146099508,-0.38515477098748085
1738005779470088200,7.237088134765625,1.625341440206766,0.22641849949285386,-0.30047998019941147
1738005779480157200,7.2471572265625,1.537926776126027,0.19249869423434138,-0.18117540925256906
1738005779490225400,7.257225341796875,1.2853805865556,0.20870587880015373,-0.07035926518775522
1738005779500294100,7.267294189453125,0.9027829527050256,0.2086740223571658,0.026384149056673047
1738005779510363100,7.277363037109375,0.4952408472120762,0.22178002603724598,0.07440349907726049
1738005779520432000,7.28743212890625,0.20017361277639864,0.27709669345915316,0.030271073492616412
1738005779530501000,7.297501220703125,0.029966099196672438,0.3971617273844778,0.016233926442265508
1738005779540570400,7.3075703125,-0.09611351884305476,0.523459664350003,0.06444711853452026
1738005779550639000,7.31763916015625,-0.2320037522792816,0.5852614560075103,0.07051547866277397
1738005779560708400,7.327708251953125,-0.36836920201182366,0.598099018009752,0.007698591678589582
1738005779570777000,7.337777099609375,-0.4300280780673027,0.5824038746193051,-0.055583136338368054
1738005779580846300,7.347846435546875,-0.3994230964452028,0.5885825632542372,-0.09368497652187943
1738005779590915300,7.357915283203125,-0.2370359012275934,0.6065113109156489,-0.08856237281113863
1738005779600983000,7.367983154296875,-0.04235737873613834,0.6119219377875328,-0.07420614987425506
1738005779611052300,7.37805224609375,0.029222587352991103,0.6560856352932751,-0.05624408446513116
1738005779621121300,7.388121337890625,-0.06856734026968479,0.7360128662280738,-0.042784079715609546
1738005779631189800,7.398189697265625,-0.26433891869485376,0.827622497780621,-0.0507997745193541
1738005779641259000,7.408259033203125,-0.4644979184240102,0.8761115111395716,-0.07609152522943914
1738005779651327700,7.41832763671875,-0.610384645217657,0.9509798512496054,-0.03478971996083855
1738005779661396700,7.428396728515625,-0.6686369277000427,1.035842200499028,0.03645012745372951
1738005779671466000,7.438466064453125,-0.6543091271400451,1.0175511953964829,0.10612301781252026
1738005779681534700,7.44853466796875,-0.545975009149313,0.9240804461471736,0.16588519340120256
1738005779691604000,7.45860400390625,-0.3615378946870565,0.7849956544533372,0.19631284569501875
1738005779701672000,7.468671875,-0.120223877748847,0.6251409003227949,0.2062429958179593
1738005779711740700,7.47874072265625,0.10001344889104366,0.43377252529263494,0.17738120460137724
1738005779721810000,7.488809814453125,0.33511867431700226,0.33460122631415723,0.07944631555005907
1738005779731878700,7.498878662109375,0.5268792635351419,0.2481181439951062,0.047423722214996814
1738005779741948000,7.508947998046875,0.5524123487204313,0.20195655067041515,0.022111147912591694
1738005779752017000,7.519016845703125,0.425204603433609,0.29984862349331376,0.04246434624195099
1738005779762086000,7.5290859375,0.06190846690237522,0.432203960801661,0.03270882203355431
1738005779772155000,7.53915478515625,-0.33560148939788337,0.535757420387119,-0.025337489547953007
1738005779782224000,7.549223876953125,-0.5851975969910621,0.6019622693091631,-0.11274886569306254
1738005779792292900,7.55929296875,-0.6831646347463131,0.6344635860718786,-0.10152882189005613
1738005779802360800,7.56936083984375,-0.6519879907160997,0.605893398213014,-0.03230674403868616
1738005779812429800,7.579429931640625,-0.5214993240624666,0.536764186276868,0.12425181809067726
1738005779822498800,7.589498779296875,-0.3547732228577137,0.5140153249826281,0.2634733879067004
1738005779832567800,7.59956787109375,-0.22693477845191953,0.5049268133156001,0.3582995703529566
1738005779842636800,7.60963671875,-0.10606675758063792,0.46395782019793985,0.4243122577037662
1738005779852706000,7.6197060546875,0.006688683983683586,0.40024223080836235,0.5158862334210426
1738005779862774800,7.62977490234375,0.13517887029647827,0.3275806800276041,0.6230553262203932
1738005779872843800,7.63984375,0.25035364796221254,0.25781550827547906,0.7166942716434598
1738005779882912800,7.649912841796875,0.31709844897985456,0.19204948916211723,0.8203834133725613
1738005779892981800,7.659981689453125,0.36556232789754867,0.12963453404232858,0.8995452128928154
1738005779903050000,7.670050048828125,0.4183107522666454,0.18206344413347542,0.9342257003255188
1738005779913118700,7.68011865234375,0.45216392202973366,0.2703098828632384,0.9604150574624538
1738005779923187700,7.690187744140625,0.46773675421476363,0.3047274085108191,0.9588263269662857
1738005779933257000,7.700257080078125,0.45924306663572784,0.3147765088383108,0.9618057811684906
1738005779943325700,7.71032568359375,0.4167109158545732,0.32272308392859994,1.0245369626305996
1738005779953395000,7.72039501953125,0.38726094948649403,0.3236268278352916,1.172153947282955
1738005779963463700,7.730463623046875,0.3685141634404659,0.3007389964617789,1.3675225709304213
1738005779973533000,7.740532958984375,0.34801147363781926,0.2916472699243575,1.5686806646995246
1738005779983602000,7.750601806640625,0.2770294734418392,0.3323895416140556,1.7301520602464675
1738005779993671000,7.7606708984375,0.10372925454378128,0.3746026165086776,1.9145687164425849
1738005780003739000,7.77073876953125,-0.056578796312212944,0.348615796206519,2.0748019484966993
1738005780013807900,7.780807861328125,-0.10967033503055572,0.3597292378298938,2.156667892409116
1738005780023876900,7.790876953125,-0.1569236691147089,0.462939656131342,2.1953592959836126
1738005780033945900,7.80094580078125,-0.20570377437472342,0.5248467347942293,2.228780211809277
1738005780044014800,7.811014892578125,-0.19897475838065146,0.4585452936299145,2.2583258936367927
1738005780054083800,7.821083740234375,-0.14052140036821364,0.34126112259477376,2.2789374506413935
1738005780064152800,7.83115283203125,-0.06837795517742633,0.24842889044471084,2.311717145954072
1738005780074221800,7.841221923828125,0.004941548055410385,0.17046178060173986,2.337934852402657
1738005780084290800,7.851290771484375,0.056773442101478576,0.11461239454261958,2.2784078738093374
1738005780094359000,7.861359130859375,0.09986498033106327,0.08297361289337277,2.2103128272265193
1738005780104427800,7.871427734375,0.175405666744709,0.021338702235370873,2.14608088581264
1738005780114497000,7.8814970703125,0.2299035651296377,-0.07039433650113641,2.107640242128819
1738005780124565800,7.891565673828125,0.23087270242273805,-0.16650420208238065,2.066450153606385
1738005780134634800,7.901634765625,0.22072423337399957,-0.246161676165089,2.0258580309771
1738005780144703700,7.911703857421875,0.2558803024291992,-0.15332527929656206,1.948972213564813
1738005780154772700,7.921772705078125,0.19005612338781355,-0.08464344580173493,1.768946047412604
1738005780164842000,7.931842041015625,0.1259019233852625,-0.1535536812249571,1.6906734518170357
1738005780174910700,7.94191064453125,0.03808101659119129,-0.24144509597197172,1.6706842644944786
1738005780184980000,7.95197998046875,-0.015627192720770833,-0.24905593630187212,1.6375011029474436
1738005780195048000,7.9620478515625,-0.013261632633209227,-0.18258154972344637,1.5717492584899067
1738005780205116700,7.97211669921875,0.04544073170423507,-0.1574408248566091,1.4773244233861564
1738005780215186000,7.98218603515625,0.14477028998434543,-0.21452684003859757,1.3951444450885058
1738005780225254700,7.992254638671875,0.27280104209184647,-0.35536351690106094,1.3511790466338396
1738005780235324000,8.002323974609375,0.3161263890773058,-0.4731292609080672,1.2992311249926685
1738005780245393000,8.012392822265625,0.33505963760614393,-0.20538254306372253,1.4912470041461288
1738005780255462000,8.0224619140625,0.1701993302732706,-0.006721636405214667,1.6454001856341958
1738005780265531000,8.03253076171875,-0.07635960158109664,0.06489994033593684,1.6618734737902878
1738005780275599600,8.042599609375,-0.2125537863999605,0.20071531843766569,1.6380208890378474
1738005780285667800,8.052667724609375,-0.3315928382784128,0.38404107412453736,1.5869383520543574
1738005780295736800,8.06273681640625,-0.4464449598610401,0.6217771960433572,1.4563440330691635
1738005780305805800,8.072805908203126,-0.5473275928020477,0.8306710716962814,1.3712532818913459
1738005780315874800,8.082874755859375,-0.5770762498557567,0.8700359906181693,1.2548083381593227
1738005780325944000,8.092944091796875,-0.4371253428518772,0.7569353158127516,1.103759479362145
1738005780336012800,8.1030126953125,-0.14145371278226374,0.6390468222089112,0.9680660106070339
1738005780346081800,8.113081787109374,0.21940087581574916,0.6256066181384027,0.865587998233363
1738005780356150800,8.12315087890625,0.4761784193456173,0.6331221814002841,0.6852710324410348
1738005780366219800,8.1332197265625,0.636386516958475,0.6572665887061506,0.48996904428899285
1738005780376288800,8.143288818359375,0.5646633430063724,0.7156593756377697,0.36487303045913577
1738005780386356700,8.153356689453124,0.18485095596015452,0.8166223072733729,0.22426095613278446
1738005780396425700,8.16342578125,-0.21457389405071733,1.0223659752670675,0.04775324643030762
1738005780406495000,8.173494873046875,-0.49897185043394565,1.1997060441404581,-0.07321582366265356
1738005780416563700,8.183563720703125,-0.7522475233227014,1.3057444524094461,-0.21541195231005547
1738005780426633000,8.193633056640625,-0.8949702331274747,1.3276326052211225,-0.38511407365091144
1738005780436701700,8.20370166015625,-0.8781640597552061,1.26882897246629,-0.5651670547448099
1738005780446771000,8.21377099609375,-0.6430640950262546,1.1851273375593125,-0.7882792792338877
1738005780456839700,8.223839599609375,-0.23617490048408507,1.132843681157753,-1.0263003921065479
1738005780466909000,8.233908935546875,0.25580373006165025,1.0332656280092893,-1.2578653876423835
1738005780476977000,8.243976806640624,0.7234802785217762,0.8848436105843633,-1.3839403295069932
1738005780487046000,8.2540458984375,1.0362649559557437,0.7600855234719812,-1.380282245390862
1738005780497115000,8.264114990234376,1.1156459511846304,0.7057773024402558,-1.3335975049749016
1738005780507183900,8.274183837890625,1.0067390017420053,0.736465213105455,-1.3315874803267418
1738005780517252900,8.2842529296875,0.7797983780711889,0.7722966972041875,-1.300449122480303
1738005780527321900,8.29432177734375,0.5421744478225707,0.7271363898765295,-1.178581496112421
1738005780537390800,8.304390869140626,0.36562779434919357,0.6830231073837727,-1.1006397399064152
1738005780547459800,8.3144599609375,0.31363924843668933,0.6997775505688041,-1.0729233193326742
1738005780557528800,8.32452880859375,0.31220658528506756,0.8195259928256273,-1.020830509328097
1738005780567597800,8.334597900390625,0.24741408737897871,0.9951001480050384,-1.0618117774054407
1738005780577665800,8.344665771484374,0.019686697244644166,1.1019994108870625,-1.0898431091472507
1738005780587735000,8.354735107421876,-0.3743295717209577,1.195569382727146,-1.0703140866823493
1738005780597803800,8.3648037109375,-0.7873767043709754,1.1721637380246073,-1.009787356461957
1738005780607872800,8.374872802734375,-1.1137865870535373,0.9490538516230881,-0.938525662541762
1738005780617941800,8.384941650390624,-1.2721084325283765,0.7236592883504926,-0.9149641696903854
1738005780628010800,8.3950107421875,-1.2096125211268662,0.6199076758444308,-0.9152143450591713
1738005780638083600,8.40508349609375,-0.9333610463201999,0.5564827764971182,-0.9922286111567169
1738005780648152600,8.415152587890624,-0.4632727605432272,0.4291297775207087,-1.143550733937323
1738005780658221600,8.4252216796875,0.013219547057151794,0.26806056956648827,-1.3158571194924413
1738005780668289500,8.43528955078125,0.3189139739692211,0.10427545371707528,-1.4149690894991158
1738005780678358500,8.445358642578125,0.42363633120357985,-0.026285620585642752,-1.458921336211264
1738005780688427500,8.455427490234374,0.38794133296608924,-0.0497945429995656,-1.4574058170817792
1738005780698496500,8.46549658203125,0.23245441865622996,-0.06017667467370629,-1.4373324586071072
1738005780708565500,8.4755654296875,0.01919628337919712,-0.062173912905529136,-1.405435975869745
1738005780718634500,8.485634521484375,-0.2518020932048559,0.04707589515801519,-1.3797801410876214
1738005780728703500,8.495703369140625,-0.4433423176705837,0.14381719051059336,-1.3002565225176512
1738005780738772500,8.5057724609375,-0.6243827754318714,0.15382051546759903,-1.2214546423509716
1738005780748841500,8.515841552734376,-0.7077899574369192,0.11450995708145201,-1.110498870619759
1738005780758909400,8.525909423828125,-0.7713678188562393,0.1120681168872863,-1.0254100191380828
1738005780768978700,8.535978759765625,-0.7995546334207058,0.15778408533632754,-0.9669611181050538
1738005780779047400,8.54604736328125,-0.8175064696967601,0.22681783754136411,-0.9290617416910827
1738005780789116700,8.55611669921875,-0.814852740317583,0.2769207158377394,-0.8598656019985675
1738005780799185400,8.566185302734375,-0.7681728222072124,0.31129111440796403,-0.883369884769991
1738005780809254400,8.57625439453125,-0.6529846005380153,0.24631606300920247,-0.8470265786916017
1738005780819323600,8.58632373046875,-0.4461217192560434,0.09390512207858263,-0.7918286422785371
1738005780829392400,8.596392333984374,-0.1879839932888746,0.000524389200285077,-0.7101107285346835
1738005780839461600,8.606461669921876,0.058787120011448854,-0.04059351086877286,-0.6610705840989947
1738005780849529600,8.616529541015625,0.21151859813332557,-0.07717526534553616,-0.63028790782243
1738005780859598300,8.626598388671875,0.23740181193053722,-0.14233944610822946,-0.5735376274008304
1738005780869667600,8.63666748046875,0.24462708700895308,-0.23262590276561676,-0.45452761895377186
1738005780879736300,8.646736328125,0.21721710203588007,-0.3191384669074788,-0.3618848814938217
1738005780889805600,8.6568056640625,0.20533318749666213,-0.4288048929478973,-0.2598825786068104
1738005780899874600,8.66687451171875,0.2639326759815216,-0.5359939690893516,-0.17804871033309028
1738005780909943600,8.676943603515625,0.36971944757699965,-0.5887782684894278,-0.134804831086006
1738005780920012500,8.687012451171874,0.4458844033688307,-0.5980224091095849,-0.09052483199052512
1738005780930081500,8.69708154296875,0.387758962136507,-0.515596310563758,-0.06621049321154132
1738005780940149500,8.7071494140625,0.18150339909791946,-0.3731885119270533,-0.050183304855134336
1738005780950218500,8.717218505859375,-0.01115969191789627,-0.27287951415553685,-0.03965129811521619
1738005780960287500,8.72728759765625,-0.15756956580281256,-0.26536153974086046,-0.018428331214003262
1738005780970356500,8.7373564453125,-0.3185866417109966,-0.3003139759827405,-0.025657113423757254
1738005780980425500,8.747425537109375,-0.3785580030709505,-0.3456299853287637,-0.06760826771287247
1738005780990494500,8.757494384765625,-0.3275111219227314,-0.34783969726748765,-0.0991996482901275
1738005781000563700,8.767563720703125,-0.1753629966467619,-0.3702301005128771,-0.10035427995165809
1738005781010632400,8.777632568359374,0.05341653288900852,-0.4569681805063039,-0.06626114568654447
1738005781020701400,8.787701416015626,0.3394757004827261,-0.57743850729689,-0.05679699650700204
1738005781030769700,8.797769775390625,0.6452104594051837,-0.6976004257254302,-0.026308124678395686
1738005781040838400,8.80783837890625,0.9081956254035234,-0.8015835088998079,-0.007049187859147787
1738005781050907600,8.81790771484375,1.1154513053953647,-0.8941828821420669,0.00435453738111537
1738005781060976400,8.827976318359376,1.238776071768999,-0.9832986510522663,0.0034464666424668393
1738005781071045400,8.83804541015625,1.249414370161295,-1.014818482496962,-0.00500291372067295
1738005781081114600,8.848114501953125,1.2007383097976445,-1.0378522251471876,0.07243925893274135
1738005781091183400,8.858183349609375,1.1122773515343665,-1.0697701159987598,0.17962101941742
1738005781101252600,8.868252685546874,1.068782493200898,-1.0656435375880449,0.25988045971496027
1738005781111320600,8.878320556640626,1.026137529695034,-1.102154163057357,0.3102692970795557
1738005781121389300,8.888389404296875,1.070617891934514,-1.169048674743995,0.35071700626946983
1738005781131458600,8.89845849609375,1.1586176624268292,-1.215921412012726,0.37613866696953774
1738005781141527300,8.90852734375,1.2559978402048348,-1.30929951454252,0.3972031919060275
1738005781151596500,8.918596435546876,1.3547627503395079,-1.4649218918003142,0.39642954065240915
1738005781161665500,8.92866552734375,1.486277252909541,-1.6171544804893434,0.4057659991985187
1738005781171734500,8.938734619140625,1.5845868204921483,-1.7080466114223003,0.3887940773379057
1738005781181803500,8.948803466796875,1.6199053866326807,-1.7644573576912284,0.38652375778574494
1738005781191872500,8.95887255859375,1.6113795503497124,-1.7774987717024981,0.36746845377981663
1738005781201940500,8.9689404296875,1.5155945328086613,-1.7529703335151074,0.32891236702278254
1738005781212009500,8.979009521484375,1.3520517378151415,-1.7145830274537204,0.32161135982703415
1738005781222078500,8.989078369140625,1.1323527558356523,-1.6955777366019784,0.2510409178403206
1738005781232147500,8.9991474609375,0.9781944597810506,-1.691598603837937,0.17006428745044394
1738005781242216700,9.009216796875,0.8594558521538972,-1.7111571446582674,0.0840112214459572
1738005781252285400,9.019285400390626,0.8190034302562474,-1.7383295214831829,0.09643051237035542
1738005781262354700,9.029354736328125,0.9559458030939102,-1.755881690917164,0.05363401156459004
1738005781272423400,9.03942333984375,1.035822472885251,-1.788807662832737,0.018531745922705158
1738005781282491400,9.049491455078124,0.9727660049915313,-1.788056990595907,0.0611309979901649
1738005781292560600,9.059560546875,0.7832973261028527,-1.759659309759736,0.11098136283019557
1738005781302629400,9.06962939453125,0.5624848299235106,-1.701877567398548,0.14740469360854475
1738005781312698600,9.07969873046875,0.29595044701099393,-1.6514399041898549,0.10594632780505343
1738005781322767600,9.089767578125,0.07359305947721004,-1.598495957248658,0.0617648754469119
1738005781332836400,9.09983642578125,-0.06574468406438827,-1.5508346268855033,0.029602069923561066
1738005781342905600,9.109905517578126,-0.07199322306513786,-1.544918826970458,0.0042469533873721954
1738005781352974300,9.119974365234375,0.0027010756522417067,-1.5542404898062347,-0.04508625571075826
1738005781363043600,9.130043701171875,-0.0627940175652504,-1.6355546450547873,-0.13739534076955168
1738005781373111600,9.140111572265624,-0.150265380269289,-1.7142060108348727,-0.2472386212142184
1738005781383180500,9.1501806640625,-0.19502046779692173,-1.89650582100749,-0.39176856310404834
1738005781393249500,9.16024951171875,-0.31632804912924767,-2.001754247942567,-0.49655642332267014
1738005781403318500,9.170318603515625,-0.5814280153244733,-1.5902398778177798,-0.4113155596170574
1738005781413387500,9.180387451171875,-1.2843763779491186,-0.978376173023507,-0.10101440609451383
1738005781423456500,9.19045654296875,-2.295830133253336,-0.1858361128062941,0.1753407848149538
1738005781433525500,9.200525390625,-3.5872611058890818,0.5666613118905574,0.3366040905691683
1738005781443594500,9.210594482421875,-5.056040696030855,0.8445176646105944,0.34943105811215935
1738005781453663500,9.22066357421875,-6.177966165876388,0.8149122154198587,0.3233723416175693
1738005781463731500,9.2307314453125,-6.768916042783856,0.9593415099468081,0.1920370680719614
1738005781473800400,9.240800537109376,-6.744743140035867,1.2423359562076628,0.0019210311904549597
1738005781483869400,9.250869384765625,-6.189070912736654,1.512715762501955,-0.1805268456833437
1738005781493938400,9.2609384765625,-5.363285859516263,1.7058762816458939,-0.39504860768802463
1738005781504007700,9.271007568359375,-4.340915573400259,1.7350808949507772,-0.5194170378956944
1738005781514076400,9.281076416015624,-3.3395267005145546,1.5933118326090274,-0.45539172496981917
1738005781524145700,9.291145751953126,-2.504820674213767,1.3424590029530226,-0.3053791504178196
1738005781534214400,9.30121435546875,-1.8536930997192858,1.0400081610720604,-0.09051716014072299
1738005781544282400,9.311282470703125,-1.2253963657140732,0.7540944663636386,0.1428555789368227
1738005781554351600,9.3213515625,-0.5300099627763033,0.556184341539815,0.32450134564749894
1738005781564420400,9.33142041015625,0.13357435770928858,0.4498473156504333,0.5743164297536015
1738005781574489600,9.341489501953125,0.5963140342891216,0.48291525331996377,0.8170904362417757
1738005781584558600,9.35155859375,0.8463654844343662,0.5458468527249991,1.1412100890953094
1738005781594627600,9.361627685546875,0.8931523700505495,0.6372868267990648,1.3699100505888462
1738005781604696600,9.371696533203124,0.7475655029863119,0.8175123879808932,1.4366095511600374
1738005781614765300,9.381765380859376,0.4798018705397844,1.080085904438421,1.49605645025447
1738005781624834600,9.39183447265625,0.09334639221727847,1.3242600600481031,1.45758146590963
1738005781634902300,9.40190234375,-0.1990735425800085,1.5254092398583887,1.3171394143879414
1738005781644971000,9.411970947265624,-0.23421499858796596,1.5809899650439618,1.2102184511307625
1738005781655040000,9.4220400390625,-0.10470715966522694,1.5277790377296507,1.1672517813898622
1738005781665109200,9.432109130859375,0.07704056958258151,1.468797856450826,1.2250356426429003
1738005781675178000,9.442177978515625,0.2528448802560568,1.4525462482213973,1.3025129231423138
1738005781685247200,9.452247314453125,0.3841963012188673,1.4753122067809104,1.3491934257745741
1738005781695316000,9.46231591796875,0.4143938710838556,1.4690667365200816,1.3257216570332646
1738005781705385200,9.47238525390625,0.4406862502038479,1.3876254477605223,1.3284211252503095
1738005781715453200,9.482453125,0.5168611428678035,1.2038622870370745,1.296478173022717
1738005781725522000,9.49252197265625,0.6361018547981977,0.9965674440786242,1.2083791799396275
1738005781735591200,9.502591064453124,0.8578285432130098,0.805851906934008,1.05220384497419
1738005781745660200,9.51266015625,1.1620073048651218,0.6488157173555344,0.8800703317679465
1738005781755729200,9.522729248046875,1.504559928575158,0.5921352872997522,0.6359548475429415
1738005781765798100,9.532798095703125,1.8072078273981809,0.5241110043982043,0.363570715688914
1738005781775867100,9.5428671875,2.0837106466174125,0.3972247461507097,0.15245028656031936
1738005781785936100,9.55293603515625,2.2857950614511964,0.26917722557149826,-0.013108999354764818
1738005781796004000,9.563004150390626,2.4391858802646396,0.09355930431559681,-0.10617967990320175
1738005781806073000,9.573072998046875,2.492671971258521,-0.025716259732469916,-0.22781431949911637
1738005781816142000,9.58314208984375,2.412778934854269,-0.07655008265189826,-0.2888910848177038
1738005781826211300,9.59321142578125,2.2840526016980407,-0.09455927513837814,-0.29834433814389627
1738005781836280000,9.603280029296876,2.1310966671705245,-0.1019303884282708,-0.23156632897639645
1738005781846349300,9.613349365234376,1.930226888823509,-0.08336969953887165,-0.12053782080253586
1738005781856418000,9.62341796875,1.7139309932857751,-0.054079526842385525,-0.05050124823050573
1738005781866487000,9.633487060546875,1.5338772084742784,-0.07487849617786706,0.03218043251158669
1738005781876556000,9.64355615234375,1.3847048841387033,-0.14572320679500697,0.12111819624006748
1738005781886624000,9.6536240234375,1.2616788084506987,-0.1739034454882145,0.20250713375788182
1738005781896693200,9.663693359375,1.1421814914107322,-0.1664545177217573,0.26666432943511753
1738005781906762200,9.67376220703125,1.0023018960773944,-0.12037592650540173,0.3331932957449928
1738005781916831000,9.6838310546875,0.8823030592560768,-0.07908442343510687,0.3589562076307833
1738005781926900200,9.693900146484374,0.8786977282404899,-0.11335852202400565,0.41786600417383013
1738005781936969000,9.703968994140626,0.9659101477473974,-0.1615980906665325,0.45447135872188954
1738005781947038200,9.7140380859375,1.08699970241487,-0.2527207424197346,0.49486890862714494
1738005781957107000,9.72410693359375,1.2100029817491769,-0.3579147357538342,0.49848991213589905
1738005781967176200,9.73417626953125,1.3168757950156926,-0.5057089036040008,0.48820773370489473
1738005781977244200,9.744244140625,1.4282581946611403,-0.6450104798536748,0.4402462148187682
1738005781987313200,9.754313232421875,1.578943846169114,-0.7339059570766985,0.39458109977412964
1738005781997382100,9.764382080078125,1.7807535357147455,-0.7947718561235815,0.3085541271921247
1738005782007451100,9.774451171875,1.867536916154623,-0.8909327212397009,0.22223277477342634
1738005782017520000,9.78452001953125,1.8249656024068592,-0.9794467979297041,0.1374481669353321
1738005782027589000,9.794589111328126,1.731421057268977,-1.0536589391533284,0.08001673584915697
1738005782037658000,9.804658203125,1.6454606836497783,-1.1085848536919802,0.011324965482205152
1738005782047727000,9.81472705078125,1.5568910043150186,-1.1291556402947753,-0.06080496263988316
1738005782057795000,9.824795166015624,1.4321552020996808,-1.1573650320172308,-0.1294403266444802
1738005782067864000,9.834864013671876,1.2847995717972516,-1.1810172718919814,-0.15190606014840305
1738005782077933000,9.84493310546875,1.051082001337409,-1.1787767994888125,-0.16020185053516178
1738005782088002300,9.855002197265625,0.7764946603506803,-1.175144142074883,-0.22450422683674842
1738005782098071000,9.865071044921875,0.4342009798377752,-1.096007038604468,-0.2845771488750353
1738005782108140300,9.875140380859374,0.047923196169734,-1.0506265126548706,-0.28279114224109797
1738005782118209000,9.885208984375,-0.27985855938792226,-1.0646788572743535,-0.23450682114139199
1738005782128278000,9.895278076171875,-0.5207143111646175,-1.046877754580602,-0.19043478397447614
1738005782138346200,9.90534619140625,-0.6608809067457914,-0.9745853293731808,-0.17885043690372257
1738005782148415000,9.9154150390625,-0.7489350377738475,-0.9160292416386305,-0.15288133492134512
1738005782158484200,9.925484130859376,-0.876077316609025,-0.8544306444030254,-0.123515612770617
1738005782168553200,9.93555322265625,-1.0579647465884685,-0.7609461588893085,-0.10994078600239009
1738005782178622200,9.945622314453125,-1.3603145392477511,-0.7266209146350622,-0.15484763002563268
1738005782188691200,9.955691162109375,-1.6469658275157213,-0.8569695152308792,-0.24912487335223704
1738005782198760000,9.965760009765624,-1.824635932061076,-1.0821658525176345,-0.4584122053021565
1738005782208829200,9.9758291015625,-1.79663499545753,-1.1373996639616786,-0.5590981466272845
1738005782218898200,9.985898193359375,-1.8056524146497248,-1.0208571050740778,-0.530432681700401
1738005782228966100,9.995966064453125,-1.9150784195303916,-0.8909568327676505,-0.4130490323461592
1738005782239035100,10.00603515625,-2.051997411492467,-0.6072829528752715,-0.11957144172210246
1738005782249104100,10.016104248046876,-2.6077356897652146,0.04447166747637093,0.16315536657851187
1738005782259173000,10.026173095703125,-3.7167584234178066,0.9676664898954331,0.35493221281170845
1738005782269242000,10.0362421875,-4.920495330509543,1.7989619771003722,0.44202553598359223
1738005782279311000,10.04631103515625,-6.002681495162844,2.5766946548134086,0.25499347312469034
1738005782289380000,10.056380126953124,-6.689295978102088,3.310102453109622,-0.06289104819893837
1738005782299449000,10.066448974609376,-6.788687495702504,3.6398245290800926,-0.1560169660659507
1738005782309517000,10.07651708984375,-6.196406077930331,3.572268119418621,-0.039744419758766886
1738005782319586000,10.0865859375,-4.9474774454593655,3.2655542863309384,0.11925101412869989
1738005782329655300,10.0966552734375,-3.384409798336029,2.844391651764512,0.2578288061484694
1738005782339724000,10.10672412109375,-1.7624258518636227,2.4628663233205677,0.20121734967567026
1738005782349793300,10.116793212890625,-0.21576398061811922,2.0516766551055015,-0.015994418597966433
1738005782359862000,10.126862060546875,1.1695534824609757,1.4851372890941799,-0.2067676772791892
1738005782369931300,10.13693115234375,2.2271914813131093,0.9174326786957681,-0.4302865098077804
1738005782380000000,10.147,2.8794325700074435,0.5130960912458599,-0.591946705925092
1738005782390069200,10.1570693359375,3.283683817261457,0.3316275442656129,-0.678483125866577
1738005782400137200,10.16713720703125,3.3723259773105383,0.406247170311585,-0.7978639038547873
1738005782410206000,10.1772060546875,3.0818858181536197,0.66893335336335,-0.89315120100677
1738005782420275200,10.187275146484374,2.5857512369722127,0.9165916247617453,-0.9400757415279746
1738005782430344200,10.19734423828125,1.9629250433325767,1.078181459056586,-0.9440141038902103
1738005782440413200,10.2074130859375,1.1096592779904604,1.1899419712994248,-1.0137252073675393
1738005782450482200,10.217482177734375,0.2095347308397293,1.4159355964437126,-1.1416978726122529
1738005782460551000,10.227551025390625,-0.5110772987693548,1.6474907281726598,-1.193400879581645
1738005782470620200,10.2376201171875,-0.8294026591956615,1.750960747258365,-1.1191201301012188
1738005782480688000,10.247688232421876,-0.8866758675128221,1.7640534530654548,-1.031186337517202
1738005782490757000,10.257757080078125,-0.8125766120791434,1.7316671409845352,-0.9126526048123836
1738005782500826000,10.267826171875,-0.6306576179176568,1.6831553312718868,-0.7739950255546718
1738005782510895000,10.27789501953125,-0.3640530923783779,1.5566080957204103,-0.7409480576079338
1738005782520964000,10.287964111328124,-0.1673760895460844,1.4103518049620092,-0.816496488936618
1738005782531033000,10.298033203125,0.011950550034642219,1.2673168143376707,-0.9114974434278905
1738005782541102000,10.30810205078125,0.21405191600322723,1.136537201913446,-1.00640860074386
1738005782551171000,10.318171142578125,0.4018722431629896,1.0423056974247098,-1.057665106054768
1738005782561239300,10.3282392578125,0.6363040993720293,0.9569481850694864,-1.097295909371227
1738005782571308000,10.33830810546875,0.9174228879541159,0.8693089915178716,-1.066013686074689
1738005782581377000,10.348376953125,1.114872628724575,0.7888587596222758,-0.9952402140628546
1738005782591446300,10.3584462890625,1.1874328380227088,0.7536816477790474,-0.890671805281192
1738005782601515000,10.368514892578125,1.1828905184179543,0.7262653061304241,-0.8182093572691083
1738005782611584300,10.378584228515624,1.1572463740736245,0.604945522903651,-0.8023232944164425
1738005782621653000,10.388653076171876,1.1512672996640205,0.49682263651080427,-0.8569841282781213
1738005782631722200,10.39872216796875,1.1350216827839612,0.4107233658775687,-0.8932488892275839
1738005782641787100,10.408787109375,1.0817740767210722,0.39733744927756487,-0.8704900179959834
1738005782651856100,10.418856201171875,0.9867144508451223,0.42986901504807173,-0.8509107997138052
1738005782661925000,10.428925048828125,0.8400742753356695,0.47037791637331244,-0.8321821338463574
1738005782671994000,10.438994140625,0.6844634423851966,0.5010031370658428,-0.7960022016361356
1738005782682063000,10.44906298828125,0.6232026257365941,0.48407764816284177,-0.7101297254960983
1738005782692132400,10.45913232421875,0.5778168390899896,0.47218766920901833,-0.6621016807124018
1738005782702201000,10.469201171875,0.5924269637227058,0.4572106840252876,-0.6069540131818503
1738005782712270000,10.47927001953125,0.5765840824246407,0.4150425442509353,-0.5236885046698153
1738005782722339000,10.489339111328125,0.5407558131963014,0.3652960051115602,-0.42477023060433566
1738005782732407000,10.499406982421876,0.5442489160090684,0.35850780627615747,-0.31926603880990295
1738005782742476300,10.509476318359376,0.580723666447401,0.3379053824260831,-0.25983042829446495
1738005782752545000,10.519544921875,0.5765127707540989,0.33496735621280965,-0.17892518264036625
1738005782762614000,10.529614013671875,0.49120296999812124,0.34619485266990957,-0.11610416747033596
1738005782772683300,10.539683349609374,0.3520189557135105,0.40589813767820593,0.008975004822574555
1738005782782752000,10.549751953125,0.15200257932543754,0.5044543004330247,0.1337309365104884
1738005782792821200,10.5598212890625,-0.09480477433204651,0.5695478271123021,0.23679924292750656
1738005782802890000,10.569889892578125,-0.34919746855199335,0.5714863939594477,0.3581036093894392
1738005782812958200,10.579958251953125,-0.5683703808307647,0.506470754821971,0.49614678307585414
1738005782823027200,10.590027099609374,-0.7211497897475957,0.437129434505105,0.5462932813182473
1738005782833096000,10.600095947265626,-0.7499988676130771,0.286313361550495,0.5596469030838459
1738005782843165200,10.610165283203125,-0.6496838054269551,0.10781455109603702,0.44040005367361007
1738005782853234200,10.620234130859375,-0.4969073191195726,-0.05788198786526918,0.1380941732212901
1738005782863303200,10.63030322265625,-0.3308785525292158,-0.18404650770947337,-0.07224960897900164
1738005782873372200,10.6403720703125,-0.17361702976226806,-0.32094979064576323,-0.19660883296690881
1738005782883441200,10.650441162109376,-0.017504092508554458,-0.5788379988312721,-0.33082784525528547
1738005782893509000,10.660509033203125,0.14242168103158473,-0.8502025053139776,-0.4728004673451185
1738005782903578000,10.670578125,0.2573293321937323,-1.0307312141608447,-0.6532012389633804
1738005782913647000,10.680647216796874,0.24121406369507312,-1.0505379575885831,-0.8220942358784377
1738005782923716000,10.690716064453126,0.039711248141527176,-0.9872232040848582,-0.9953152520604431
1738005782933785000,10.70078515625,-0.3161474318653345,-0.7964988260466604,-1.1223279862318187
1738005782943854000,10.71085400390625,-0.7434194892227649,-0.38367446930184956,-1.3213508946031332
1738005782953923300,10.72092333984375,-1.2062193715572356,0.08387896423526107,-1.5904980903625487
1738005782963992000,10.730991943359374,-1.7793056749939917,0.5042393425080925,-1.8415204313665627
1738005782974060000,10.74106005859375,-2.397433481684327,0.6971377035845071,-2.055417449069023
1738005782984129300,10.75112939453125,-2.751100204604864,0.7338667941100895,-2.249445837088674
1738005782994198000,10.761197998046875,-2.560027013128996,0.7518235988222062,-2.338783870447427
1738005783004267300,10.771267333984374,-1.8343372418642043,0.7136220976565033,-2.3713747651897368
1738005783014336000,10.7813359375,-0.750914813414216,0.6548373157326132,-2.3890850477948784
1738005783024405200,10.7914052734375,0.2475023501843214,0.5573266434427351,-2.4192576293490826
1738005783034474200,10.80147412109375,0.9435825806051492,0.4553816419672221,-2.422933541382849
1738005783044543000,10.81154296875,1.4298784893393515,0.288146714457497,-2.355551026983559
1738005783054611200,10.821611083984376,1.6871218968153,0.11073686828352511,-2.261150157277286
1738005783064680200,10.83168017578125,1.8165069861412046,-0.13626834603361784,-2.0483542326845225
1738005783074749200,10.841749267578125,1.7485352736771105,-0.2942821484725922,-1.8315698229774833
1738005783084818200,10.851818115234375,1.4027555046141147,-0.18850407164022326,-1.7929986847817896
1738005783094887000,10.861886962890624,0.8209294298827647,0.11332030890546739,-1.6592448788523673
1738005783104956200,10.8719560546875,0.13259586806595325,0.556933260210976,-1.4696867681145667
1738005783115025200,10.882025146484375,-0.4938642981618643,0.9961222575943917,-1.351884856815636
1738005783125094100,10.89209423828125,-1.1092015973508358,1.3445600668855011,-1.3380658825606107
1738005783135162000,10.902162109375,-1.8039491178631781,1.601208284947276,-1.3589970269083975
1738005783145231400,10.9122314453125,-2.550369542467594,1.7526102680310607,-1.376270963922888
1738005783155300000,10.922300048828125,-3.2045676104485987,1.842787967084348,-1.433686795581132
1738005783165369000,10.932369140625,-3.3614801736474034,1.7653488997034728,-1.496969035054743
1738005783175438000,10.94243798828125,-2.8963369430571793,1.5751213652715086,-1.5426593576058745
1738005783185507000,10.952507080078124,-1.947370331326127,1.3822113137573002,-1.5864923618525266
1738005783195576000,10.962576171875,-0.902334624415636,1.1986252631664276,-1.485971547961235
1738005783205645000,10.97264501953125,0.0012877017229795456,1.150441954755783,-1.3042401853263377
1738005783215713000,10.982713134765625,0.7627385221987962,1.100690227984637,-1.1775149628594517
1738005783225782300,10.9927822265625,1.3537486048609018,0.8845376864403486,-1.071689539754018
1738005783235851000,11.00285107421875,1.7409920186907053,0.635229309747368,-0.9817730489201844
1738005783245920300,11.012920166015626,1.9690344661235808,0.45231867420002814,-0.946084772684425
1738005783255989000,11.022989013671875,1.9767881489902734,0.39673385736122724,-0.9704974755376576
1738005783266058200,11.033058349609375,1.8126655082821845,0.4427198018580675,-0.9865252849485725
1738005783276127000,11.043126953125,1.5310153893023728,0.6166444362647832,-0.9614956923060118
1738005783286196200,11.0531962890625,1.1608780085742474,0.8501774439379572,-0.8967514905210584
1738005783296264200,11.06326416015625,0.7753139261335134,1.124338522336632,-0.8272307219840586
1738005783306333200,11.073333251953125,0.3475491168230772,1.389293088711798,-0.6655349430967122
1738005783316402200,11.083402099609375,-0.03272211990654468,1.6338707836210726,-0.43110728813875465
1738005783326471200,11.09347119140625,-0.3482154717773199,1.8767352448716759,-0.1991025860114023
1738005783336540200,11.1035400390625,-0.6567547667264938,1.997465903098881,0.024481822566688058
1738005783346609200,11.113609130859375,-0.9340291548401117,1.9915581403598188,0.21171404764018953
1738005783356678100,11.12367822265625,-1.1721779857456684,1.886100746849179,0.3758764723693952
1738005783366746000,11.13374609375,-1.265216334927082,1.7631570887476204,0.5346090906022116
1738005783376815000,11.143815185546876,-1.159267066246271,1.6127482083544133,0.6777988699294626
1738005783386884000,11.153884033203125,-0.8932774577349424,1.448383137192577,0.7993189249686896
1738005783396953000,11.163953125,-0.5041477917671203,1.3325965112388134,0.9048289254494011
1738005783407022300,11.174022216796875,-0.07810323037803173,1.1546380912713705,1.0069633120171726
1738005783417091000,11.184091064453124,0.24191022926568984,0.9147507461354136,1.0845181147322058
1738005783427160000,11.19416015625,0.46763329384028907,0.6257715994417667,1.0988471574012189
1738005783437229000,11.20422900390625,0.6336877793937921,0.4643393668614328,1.1029333307363092
1738005783447297000,11.214297119140625,0.691182521507144,0.3668520754471421,1.0922507548108695
1738005783457366300,11.2243662109375,0.6622966187626123,0.27874329162240025,1.0471860898774117
1738005783467435000,11.23443505859375,0.6395937885671854,0.19634923218265174,1.0127033169738948
1738005783477504000,11.24450390625,0.6017284605532884,0.1264703709229827,0.9351973218366503
1738005783487573200,11.2545732421875,0.5248270071804523,0.09303250396251678,0.9098863549694418
1738005783497642000,11.26464208984375,0.4153133240163326,0.06200330557897687,0.9134816760476678
1738005783507711200,11.274711181640624,0.23467735540270804,0.04655848368778825,0.9006902912747115
1738005783517780000,11.284780029296876,0.056737201744318004,0.06203048584684729,0.9150899880271405
1738005783527848200,11.29484814453125,-0.09721534260511398,0.0903060016080737,0.9787311970062553
1738005783537917200,11.304917236328125,-0.21152327430844306,0.13466639072969555,1.0617001337245107
1738005783547986000,11.31498583984375,-0.3008370500087738,0.18587664574608206,1.162121725025028
1738005783558055200,11.32505517578125,-0.42897009344696996,0.23317308831959963,1.2619967883586882
1738005783568124200,11.335124267578125,-0.5483978523820638,0.1931638801448047,1.3148698620207606
1738005783578193200,11.345193115234375,-0.6241489666759967,0.12080679220333694,1.3796189591765402
1738005783588262100,11.35526220703125,-0.5654723213016987,0.051726680105924606,1.4273228135071694
1738005783598330000,11.365330078125,-0.343688934263587,-0.049027065758407117,1.4690369259037077
1738005783608399000,11.375399169921875,-0.017078560572862625,-0.10553820366188883,1.5147441995896398
1738005783618468000,11.385468017578125,0.3310118235200643,-0.1664450923062861,1.5776377320066093
1738005783628537000,11.395537109375,0.6358920114398002,-0.2171273779258132,1.6623028051182627
1738005783638605600,11.40560546875,0.8516460551857947,-0.2513354986064136,1.7301679884679615
1738005783648674800,11.4156748046875,0.9001210400193929,-0.29612872618734837,1.784038548734784
1738005783658743600,11.42574365234375,0.8728402343839406,-0.34385800722017884,1.7646569719165563
1738005783668812800,11.435812744140625,0.8673094882637262,-0.39942601905465125,1.6940705469094215
1738005783678880800,11.445880859375,0.9677736035317182,-0.5194790702812373,1.6125667143076656
1738005783688949800,11.45594970703125,1.1169400826483964,-0.6414617743961513,1.5104764591425657
1738005783699018800,11.466018798828125,1.2610673985540866,-0.7269039693601429,1.4405999359704553
1738005783709087500,11.47608740234375,1.3990928904533386,-0.797373051597923,1.4113573287427426
1738005783719156700,11.48615673828125,1.4835650713413953,-0.8526141695655882,1.3393532920226454
1738005783729225700,11.496225830078124,1.4803805960863827,-0.9183975782051682,1.207427359107509
1738005783739294700,11.506294677734376,1.4052508285611867,-0.9888193141698837,1.079291173864156
1738005783749363700,11.51636376953125,1.314375794893503,-1.0795197219230235,0.9790768686387687
1738005783759431700,11.526431640625,1.1971990297555923,-1.1236132768020033,0.8760982132665812
1738005783769500700,11.536500732421874,1.0615355908125639,-1.1544443222649394,0.8121673736911267
1738005783779569700,11.546569580078126,0.956634369879961,-1.188559942356497,0.7635611636932939
1738005783789638700,11.556638671875,0.8645224878937006,-1.2401350851625204,0.6841716928970069
1738005783799707600,11.566707763671875,0.7313865216016769,-1.2817676567554472,0.6092865843152627
1738005783809777000,11.57677685546875,0.6296469795703887,-1.3269061906427144,0.6107404729180037
1738005783819845600,11.586845703125,0.5938730708777904,-1.3574378147676587,0.5978409515954554
1738005783829913600,11.59691357421875,0.6236614754199982,-1.3787801702648401,0.5838736914435402
1738005783839982800,11.60698291015625,0.6232096399992704,-1.3488795375198126,0.5360220626726746
1738005783850051600,11.617051513671875,0.6492781472355127,-1.3708788956210016,0.44098680405300106
1738005783860120800,11.627120849609375,0.5878314526259899,-1.3924346016079188,0.3553409397430718
1738005783870189600,11.637189453125,0.5008148479521274,-1.4229197562426328,0.2954258203486912
1738005783880258800,11.6472587890625,0.4513169498115778,-1.4905879557155073,0.2356065625442192
1738005783890327800,11.657327880859375,0.5179103596597909,-1.6038719511985777,0.14530846111481077
1738005783900396800,11.667396728515625,0.6427490377277135,-1.676852723996341,0.05455503539964556
1738005783910464800,11.67746484375,0.6519675324499606,-1.6710308859750627,0.03636013848218135
1738005783920533800,11.68753369140625,0.5598837075144052,-1.633130340517312,0.002158840268012136
1738005783930602800,11.697602783203125,0.36876550785303114,-1.5897168768569827,-0.03654452773891389
1738005783940671700,11.707671630859375,0.18912848714888095,-1.5891607042789457,-0.11936175362733192
1738005783950740700,11.71774072265625,-0.0014537059396505356,-1.5970475120060146,-0.25888332017008214
1738005783960809700,11.727809814453124,-0.2217477312028408,-1.7311054154485463,-0.42146147138252854
1738005783970878700,11.737878662109376,-0.34779110888540743,-1.9004303009748458,-0.5995922522421926
1738005783980946700,11.74794677734375,-0.3976660236448049,-1.9722917143538594,-0.682374434216693
1738005783991015700,11.758015625,-0.5012485631942749,-1.8868539033040403,-0.7474661342650651
1738005784001085000,11.7680849609375,-0.7415455120444298,-1.774818008185923,-0.7752835309952497
1738005784011153700,11.778153564453126,-1.0590572180002926,-1.6959901167951523,-0.7320735540177673
1738005784021223000,11.788222900390625,-1.3419628899991511,-1.5873896029531955,-0.6576145984262227
1738005784031291600,11.798291748046875,-1.567058178064227,-1.2237523248340934,-0.44103908222950994
1738005784041360600,11.808360595703125,-1.971369046550989,-0.6754540603689849,-0.17571261380203068
1738005784051428900,11.818428955078126,-2.7023592623114583,-0.1355882548149675,0.03935037893988192
1738005784061497600,11.82849755859375,-3.5917034722506997,0.24836766177676617,0.2063743123137392
1738005784071566800,11.83856689453125,-4.309247930982709,0.46273240658883,0.3841538503166288
1738005784081635800,11.8486357421875,-4.836068157806992,0.7306669751554727,0.4894616427561268
1738005784091704600,11.85870458984375,-4.915306529694796,1.019476756631583,0.5161568670559674
1738005784101773800,11.86877392578125,-4.3959851341933005,1.1497205816786735,0.4676784846888855
1738005784111842600,11.878842529296875,-3.4593098487585783,1.0671489006496966,0.30603385146688666
1738005784121911800,11.888911865234375,-2.4054595517516133,0.9488326831530779,0.19238642949890344
1738005784131979800,11.898979736328124,-1.3052215975791215,0.8438766632933169,0.15109821436423806
1738005784142048500,11.909048583984376,-0.2503139004737139,0.6442457060262561,0.028081162232905625
1738005784152117800,11.91911767578125,0.5887222639858722,0.34605116988290097,-0.20069091464877128
1738005784162186500,11.9291865234375,1.2320236748993396,0.11472630324587225,-0.479494667754136
1738005784172255700,11.939255859375,1.492879427653551,0.13698986524119972,-0.7556429379146545
1738005784182324700,11.94932470703125,1.3799690877884625,0.2929300032112747,-0.9321006709955633
1738005784192393700,11.959393798828126,1.1288462090194225,0.4827066520705819,-1.0520986310340463
1738005784202461700,11.969461669921875,0.8284919740915297,0.6699282826848327,-1.1326275541890412
1738005784212530700,11.97953076171875,0.22347148625552654,0.9316720703199505,-1.207730945163965
1738005784222599700,11.989599609375,-0.5415040012151002,1.177584667094797,-1.1602666717428713
1738005784232668700,11.999668701171874,-1.107750229498744,1.3492289354793727,-1.0487013167459518
1738005784242737700,12.009737548828125,-1.361885149565339,1.4106199543789029,-0.9725506086751818
1738005784252806700,12.019806640625,-1.3292472008109093,1.4376403555124997,-0.9452123737640679
1738005784262876000,12.0298759765625,-1.108234798145294,1.3811790481001138,-0.9460344307366758
1738005784272943600,12.039943603515624,-0.7721446484476328,1.2725260734185575,-0.9281133549250662
1738005784283012600,12.0500126953125,-0.3665753043323755,1.1425105041693895,-0.855436241248995
1738005784293081900,12.060081787109375,0.029342998862266538,1.0901520289659499,-0.6472588433023542
1738005784303150600,12.070150634765625,0.2527665543228388,0.9624899640403687,-0.553406218595989
1738005784313219800,12.0802197265625,0.580714314097166,0.7824806028924882,-0.2618981379466131
1738005784323288600,12.09028857421875,0.8425824587643146,0.49446306777261195,-0.09922291956786065
1738005784333357800,12.10035791015625,1.0683774195313454,0.3342288128051907,0.04653232633322477
1738005784343426800,12.1104267578125,1.2592086189448832,0.2502343324314803,0.2829119738754816
1738005784353494500,12.12049462890625,1.4133470412552356,0.1535497357022017,0.259857498964481
1738005784363563800,12.130563720703124,1.5657412502467631,0.09361673359125852,0.2817084250383079
1738005784373632800,12.1406328125,1.675941162109375,0.09095262894853949,0.29955977834826336
1738005784383701800,12.15070166015625,1.7154554263740778,0.1489617503248155,0.29658103653211143
1738005784393770800,12.160770751953125,1.6419272488266228,0.2587413178835064,0.2799792448918335
1738005784403839700,12.17083984375,1.5073171183288097,0.3300314341805875,0.3186341341145336
1738005784413908700,12.18090869140625,1.336226392173767,0.3645167643673718,0.35543249048404396
1738005784423976700,12.190976806640625,1.17228670681715,0.3909756591606885,0.35573092544134705
1738005784434045700,12.201045654296875,1.0457955853670835,0.39388687043227255,0.3490619690714404
1738005784444114700,12.21111474609375,0.9949047715634107,0.21967582029961047,0.481829175116308
1738005784454184000,12.221183837890624,1.0357891551375389,-0.10463847834318876,0.6469903285592794
1738005784464252700,12.231252685546876,1.018457496586442,0.39133163299150764,0.2468363422899507
1738005784474321700,12.24132177734375,1.2277630948454141,0.36945750870518385,0.15142103484412656
1738005784484390700,12.251390625,1.4472621703386306,0.1655203056115657,-0.11889465670539065
1738005784494458600,12.261458740234374,1.631589394685626,-0.010101341971382499,-0.24905253876838832
1738005784504528000,12.27152783203125,1.8187801917701958,-0.2271127653673291,-0.24524910963112487
1738005784514596600,12.2815966796875,1.862454498323798,-0.2556216514930129,-0.39291608917135745
1738005784524665600,12.29166552734375,1.8552210399389266,-0.26720651002041995,-0.39614107909984886
1738005784534734800,12.30173486328125,1.7332377513021229,-0.3088637776631862,-0.4000855424093082
1738005784544803600,12.311803466796874,1.5717717625826597,-0.35872714811526235,-0.3698380324553698
1738005784554872800,12.321872802734376,1.328046592849493,-0.46650165946185584,-0.2561050510957837
1738005784564940800,12.33194091796875,1.1263730969041585,-0.5883673861335963,-0.1296089246770367
1738005784575009800,12.342009765625,1.047031264641881,-0.7516156551599502,-0.060510066779959015
1738005784585078800,12.352078857421875,1.0751555353641509,-0.9232993787720799,-0.06177418213137425
1738005784595147500,12.3621474609375,1.1342010140508412,-1.0511395767435432,-0.05730070824543945
1738005784605216800,12.372216796875,1.2169763278931378,-1.1807865318760276,-0.018089271985366938
1738005784615285800,12.38228564453125,1.249744040507078,-1.3366732591584325,0.043609771683719004
1738005784625354800,12.392354736328125,1.2234323721647262,-1.4746215941682457,0.03720711983349174
1738005784635423200,12.40242333984375,1.1945429622888564,-1.6462199775844812,0.002701002587005496
1738005784645492000,12.412491943359376,1.186641395384073,-1.7726853800714015,-0.043776817080006
1738005784655561000,12.42256103515625,1.1102706878870725,-1.8070111357823013,-0.08811937828399241
1738005784665630200,12.432630126953125,0.957428735128045,-1.8450323850102721,-0.19242486181315033
1738005784675699000,12.442698974609375,0.7467103474617004,-1.8803630799800157,-0.27972083141766485
1738005784685768200,12.452768310546874,0.4718722465842962,-1.8473587821312247,-0.294611672687903
1738005784695837000,12.4628369140625,0.1987380270153284,-1.7468423521541059,-0.25015443559568373
1738005784705906200,12.47290625,-0.127217682158947,-1.654902904125303,-0.22093166557960212
1738005784715974100,12.48297412109375,-0.45922027028203005,-1.5732085173875092,-0.15052428693380207
1738005784726043000,12.49304296875,-0.784106304398179,-1.458832635014504,-0.07512805049214512
1738005784736112000,12.503112060546876,-1.1161948172390461,-1.3146543195739389,-0.05117759485580027
