time,seconds_elapsed,z,y,x
1738005772250720800,0.017720703125,-34.593170166015625,-19.265823364257812,14.972972869873047
1738005772260789800,0.027789794921875,-34.100067138671875,-18.907730102539062,14.977359771728516
1738005772270858800,0.037858642578125,-34.249053955078125,-19.18182373046875,14.85624885559082
1738005772280926700,0.0479267578125,-34.230072021484375,-19.76935577392578,15.0078125
1738005772290995700,0.05799560546875,-34.438690185546875,-19.993194580078125,14.796411514282227
1738005772301064700,0.068064697265625,-34.168365478515625,-19.826637268066406,14.857717514038086
1738005772311134000,0.078134033203125,-34.486541748046875,-19.931785583496094,14.920717239379883
1738005772321202000,0.088201904296875,-34.412689208984375,-19.966758728027344,14.912603378295898
1738005772331270700,0.098270751953125,-34.289398193359375,-19.598876953125,14.962177276611328
1738005772341340000,0.10833984375,-34.070159912109375,-19.5767822265625,14.612619400024414
1738005772351408600,0.11840869140625,-34.211639404296875,-19.561370849609375,14.61117935180664
1738005772361476600,0.1284765625,-34.078643798828125,-19.58959197998047,14.714559555053711
1738005772371545900,0.1385458984375,-34.312896728515625,-19.7711181640625,14.636482238769531
1738005772381614600,0.148614501953125,-34.081756591796875,-19.809432983398438,14.825441360473633
1738005772391683800,0.158683837890625,-33.631561279296875,-19.550506591796875,14.943439483642578
1738005772401752800,0.1687529296875,-33.621978759765625,-19.721778869628906,14.84992790222168
1738005772411820500,0.178820556640625,-33.957183837890625,-19.533920288085938,14.854598999023438
1738005772421889800,0.188889892578125,-34.029266357421875,-19.586898803710938,14.833505630493164
1738005772431958800,0.198958740234375,-34.110443115234375,-19.563438415527344,14.786731719970703
1738005772442027800,0.20902783203125,-33.825775146484375,-19.865394592285156,14.724864959716797
1738005772452095700,0.219095703125,-33.967315673828125,-19.654220581054688,15.003484725952148
1738005772462164700,0.229164794921875,-33.811614990234375,-19.95105743408203,14.93842887878418
1738005772472233700,0.239233642578125,-34.159942626953125,-19.730995178222656,14.84720230102539
1738005772482302700,0.249302734375,-33.738739013671875,-19.873992919921875,14.556459426879883
1738005772492371000,0.259370849609375,-34.287811279296875,-19.57630157470703,14.735456466674805
1738005772502439700,0.269439697265625,-34.101593017578125,-19.378883361816406,14.817686080932617
1738005772512509000,0.279509033203125,-34.128936767578125,-19.64190673828125,14.66314697265625
1738005772522577700,0.28957763671875,-33.872650146484375,-19.441978454589844,14.91650390625
1738005772532645600,0.299645751953125,-33.836883544921875,-19.66680908203125,15.030376434326172
1738005772542715000,0.30971484375,-34.081146240234375,-19.50605010986328,14.799612045288086
1738005772552783600,0.31978369140625,-34.022796630859375,-19.474258422851562,14.671375274658203
1738005772562852900,0.329852783203125,-34.162811279296875,-19.65234375,14.91832160949707
1738005772572920800,0.3399208984375,-33.916900634765625,-19.584228515625,15.15017318725586
1738005772582989600,0.349989501953125,-34.081817626953125,-19.603515625,14.907302856445312
1738005772593058800,0.360058837890625,-34.365509033203125,-19.505599975585938,14.709371566772461
1738005772603127800,0.3701279296875,-33.993377685546875,-19.5970458984375,14.657600402832031
1738005772613195800,0.38019580078125,-34.124176025390625,-19.593170166015625,14.753641128540039
1738005772623261000,0.390260986328125,-33.958892822265625,-19.488929748535156,14.64271354675293
1738005772633330200,0.400330078125,-34.016754150390625,-19.41181182861328,14.794412612915039
1738005772643399000,0.41039892578125,-34.180389404296875,-19.35248565673828,14.883247375488281
1738005772653467100,0.420467041015625,-33.970123291015625,-19.401260375976562,14.774188995361328
1738005772663536000,0.4305361328125,-34.270111083984375,-19.71276092529297,14.63637924194336
1738005772673605000,0.440605224609375,-33.847991943359375,-19.728652954101562,14.820531845092773
1738005772683674000,0.450674072265625,-34.259552001953125,-19.766029357910156,14.993892669677734
1738005772693743000,0.4607431640625,-34.384674072265625,-19.397972106933594,15.138114929199219
1738005772703811000,0.47081103515625,-34.199066162109375,-19.46099853515625,15.061029434204102
1738005772713880000,0.480880126953125,-34.450286865234375,-19.503013610839844,15.101856231689453
1738005772723949300,0.49094921875,-34.217681884765625,-19.434478759765625,14.980585098266602
1738005772734018000,0.50101806640625,-34.328216552734375,-19.4873046875,15.106491088867188
1738005772744086000,0.5110859375,-34.134063720703125,-19.72553253173828,15.132469177246094
1738005772754155300,0.5211552734375,-34.637725830078125,-19.668960571289062,14.958852767944336
1738005772764224000,0.53122412109375,-34.254302978515625,-19.476776123046875,15.352880477905273
1738005772774293200,0.541293212890625,-34.218048095703125,-19.461952209472656,14.897218704223633
1738005772784361200,0.551361328125,-34.148223876953125,-19.527069091796875,14.920814514160156
1738005772794430000,0.561429931640625,-34.190460205078125,-19.398094177246094,14.95479965209961
1738005772804499200,0.571499267578125,-34.193084716796875,-19.37555694580078,15.163928985595703
1738005772814568000,0.58156787109375,-34.228118896484375,-19.184608459472656,14.96333122253418
1738005772824636000,0.591635986328125,-34.069427490234375,-19.278732299804688,14.940887451171875
1738005772834705200,0.601705078125,-34.215057373046875,-19.47014617919922,15.086536407470703
1738005772844774000,0.61177392578125,-34.307952880859375,-19.60564422607422,15.07533073425293
1738005772854843100,0.621843017578125,-34.284393310546875,-19.56853485107422,14.835624694824219
1738005772864911000,0.6319111328125,-34.609649658203125,-19.378097534179688,15.276437759399414
1738005772874980000,0.64197998046875,-34.359344482421875,-19.22815704345703,15.398271560668945
1738005772885049000,0.652049072265625,-34.563018798828125,-19.470703125,14.848079681396484
1738005772895118000,0.6621181640625,-34.157623291015625,-19.437637329101562,14.710691452026367
1738005772905187000,0.67218701171875,-34.358673095703125,-19.39887237548828,14.64779281616211
1738005772915255000,0.682255126953125,-34.139495849609375,-19.335098266601562,14.916980743408203
1738005772925324300,0.69232421875,-34.512115478515625,-19.423179626464844,14.995811462402344
1738005772935393000,0.70239306640625,-34.454498291015625,-19.529693603515625,14.927774429321289
1738005772945462000,0.7124619140625,-34.258026123046875,-19.539405822753906,14.89808464050293
1738005772955530200,0.7225302734375,-34.627227783203125,-19.26866912841797,14.717817306518555
1738005772965599000,0.732598876953125,-34.514312744140625,-19.183860778808594,14.760114669799805
1738005772975668200,0.742668212890625,-34.995819091796875,-19.356231689453125,14.667055130004883
1738005772985737000,0.752737060546875,-34.698516845703125,-19.423492431640625,14.704208374023438
1738005772995805000,0.762804931640625,-34.904937744140625,-19.3558349609375,14.869823455810547
1738005773005874200,0.772874267578125,-35.213836669921875,-19.246475219726562,14.669973373413086
1738005773015943200,0.782943115234375,-34.805816650390625,-19.247665405273438,14.850374221801758
1738005773026012200,0.79301220703125,-34.580902099609375,-19.266624450683594,14.728471755981445
1738005773036080000,0.803080078125,-34.324310302734375,-18.884864807128906,14.877351760864258
1738005773046149000,0.813149169921875,-34.731414794921875,-19.006973266601562,14.981475830078125
1738005773056218000,0.823218017578125,-34.656463623046875,-19.10027313232422,14.865053176879883
1738005773066287000,0.833287109375,-34.673248291015625,-19.086761474609375,14.75469970703125
1738005773076356000,0.843356201171875,-35.093231201171875,-18.94861602783203,14.846183776855469
1738005773086424000,0.853424072265625,-35.058380126953125,-18.94586181640625,14.867582321166992
1738005773096493000,0.8634931640625,-34.970245361328125,-19.276046752929688,14.990264892578125
1738005773106562000,0.87356201171875,-34.999359130859375,-19.02569580078125,15.218852996826172
1738005773116631000,0.883631103515625,-34.706268310546875,-19.242172241210938,15.037931442260742
1738005773126699000,0.893698974609375,-34.671539306640625,-19.22985076904297,15.082468032836914
1738005773136768000,0.90376806640625,-34.951446533203125,-19.068191528320312,15.121810913085938
1738005773146837000,0.9138369140625,-34.685150146484375,-19.076904296875,15.055253982543945
1738005773156906200,0.92390625,-34.576446533203125,-19.136154174804688,15.12884521484375
1738005773166974000,0.933973876953125,-34.879974365234375,-19.398773193359375,15.076238632202148
1738005773177043200,0.944043212890625,-34.778961181640625,-19.09027862548828,15.103696823120117
1738005773187112200,0.9541123046875,-34.623016357421875,-18.843284606933594,15.192365646362305
1738005773197181000,0.964180908203125,-34.318878173828125,-18.68724822998047,15.290290832519531
1738005773207250200,0.974250244140625,-34.785858154296875,-18.841835021972656,14.95173454284668
1738005773217318100,0.984318115234375,-34.491546630859375,-18.8277587890625,15.109960556030273
1738005773227387100,0.99438720703125,-34.510955810546875,-18.91289520263672,15.232528686523438
1738005773237456100,1.0044560546875,-34.642913818359375,-19.0281982421875,14.936527252197266
1738005773247524900,1.01452490234375,-34.752655029296875,-19.06511688232422,14.767923355102539
1738005773257593000,1.024593017578125,-34.584625244140625,-19.05017852783203,15.023347854614258
1738005773267662000,1.034662109375,-34.370269775390625,-18.928504943847656,15.046289443969727
1738005773277731000,1.04473095703125,-34.530548095703125,-19.161842346191406,15.065546035766602
1738005773287800000,1.054800048828125,-34.478057861328125,-19.017738342285156,15.099966049194336
1738005773297869300,1.064869384765625,-34.796661376953125,-18.887657165527344,15.146768569946289
1738005773307937000,1.07493701171875,-34.585906982421875,-18.96404266357422,15.101261138916016
1738005773318006000,1.085006103515625,-34.929229736328125,-19.079673767089844,15.101299285888672
1738005773328075300,1.0950751953125,-35.066925048828125,-18.891517639160156,14.93783187866211
1738005773338144000,1.10514404296875,-34.593109130859375,-18.943283081054688,15.06534194946289
1738005773348212000,1.1152119140625,-34.725250244140625,-18.863327026367188,14.855825424194336
1738005773358281200,1.12528125,-34.723785400390625,-18.947303771972656,14.927635192871094
1738005773368350000,1.135349853515625,-34.235137939453125,-19.014663696289062,14.905031204223633
1738005773378419200,1.145419189453125,-34.460601806640625,-19.16705322265625,15.060810089111328
1738005773388488000,1.155488037109375,-34.084930419921875,-19.14954376220703,14.774641036987305
1738005773398556000,1.165555908203125,-34.395355224609375,-19.04535675048828,14.881452560424805
1738005773408625200,1.175625244140625,-34.595611572265625,-19.189247131347656,14.842971801757812
1738005773418694100,1.185694091796875,-34.798126220703125,-18.93946075439453,15.01565933227539
1738005773428763100,1.19576318359375,-34.636077880859375,-19.21881866455078,14.851739883422852
1738005773438832000,1.20583203125,-34.839019775390625,-18.954124450683594,15.087810516357422
1738005773448900000,1.215900146484375,-34.559661865234375,-19.190513610839844,15.263481140136719
1738005773458969000,1.225968994140625,-34.475372314453125,-19.05541229248047,15.210531234741211
1738005773469038000,1.2360380859375,-34.643463134765625,-18.98333740234375,14.941904067993164
1738005773479107000,1.246107177734375,-34.556304931640625,-19.236427307128906,15.043325424194336
1738005773489175000,1.256175048828125,-34.589752197265625,-18.958908081054688,15.101741790771484
1738005773499244000,1.266244140625,-34.454864501953125,-19.070045471191406,15.000310897827148
1738005773509313000,1.27631298828125,-34.289215087890625,-19.05511474609375,15.052972793579102
1738005773519382000,1.286382080078125,-34.745086669921875,-19.38397216796875,14.84259033203125
1738005773529451000,1.296450927734375,-34.472869873046875,-19.24974822998047,15.061136245727539
1738005773539519000,1.30651904296875,-34.576202392578125,-19.13666534423828,15.004352569580078
1738005773549588200,1.316588134765625,-34.310089111328125,-18.98706817626953,14.804475784301758
1738005773559657200,1.3266572265625,-34.535369873046875,-19.18437957763672,14.899768829345703
1738005773569726000,1.336725830078125,-34.617340087890625,-19.256919860839844,14.944475173950195
1738005773579795200,1.346795166015625,-34.556304931640625,-19.046958923339844,14.955015182495117
1738005773589863200,1.35686328125,-34.577545166015625,-19.138404846191406,14.934295654296875
1738005773599932200,1.36693212890625,-34.699310302734375,-19.08319854736328,15.068395614624023
1738005773610001200,1.377001220703125,-34.385955810546875,-19.064002990722656,15.07773208618164
1738005773620070000,1.38706982421875,-34.403289794921875,-19.202041625976562,15.047664642333984
1738005773630139100,1.39713916015625,-34.560638427734375,-19.10674285888672,15.255701065063477
1738005773640207400,1.407207275390625,-34.757598876953125,-18.972702026367188,15.455116271972656
1738005773650276000,1.417276123046875,-34.365264892578125,-18.912109375,15.402078628540039
1738005773660345300,1.427345458984375,-34.325775146484375,-18.93798828125,15.373174667358398
1738005773670414300,1.437414306640625,-34.715362548828125,-18.803512573242188,15.21794319152832
1738005773680483000,1.447483154296875,-34.999237060546875,-19.00115966796875,15.061229705810547
1738005773690551300,1.45755126953125,-34.769378662109375,-18.813766479492188,15.079143524169922
1738005773700620300,1.467620361328125,-34.743194580078125,-18.960365295410156,15.007665634155273
1738005773710689300,1.477689208984375,-34.518341064453125,-18.94554901123047,14.966974258422852
1738005773720758300,1.48775830078125,-34.225555419921875,-18.873817443847656,15.122407913208008
1738005773730827000,1.497826904296875,-34.681427001953125,-18.645187377929688,15.134706497192383
1738005773740895200,1.507895263671875,-34.140777587890625,-18.938011169433594,15.236669540405273
1738005773750964200,1.517964111328125,-34.512603759765625,-18.853111267089844,15.1104736328125
1738005773761033200,1.528033203125,-34.714447021484375,-18.92070770263672,14.937004089355469
1738005773771102200,1.538102294921875,-34.629730224609375,-18.88031005859375,15.0316162109375
1738005773781171200,1.548171142578125,-34.683197021484375,-18.878189086914062,14.982229232788086
1738005773791239200,1.5582392578125,-34.445953369140625,-19.034866333007812,14.988903045654297
1738005773801308200,1.56830810546875,-34.302947998046875,-18.970687866210938,15.303611755371094
1738005773811377400,1.57837744140625,-34.612396240234375,-19.087051391601562,15.028039932250977
1738005773821446100,1.588446044921875,-34.535736083984375,-19.083145141601562,14.859596252441406
1738005773831515400,1.598515380859375,-34.788970947265625,-19.059646606445312,14.930553436279297
1738005773841583400,1.608583251953125,-34.378692626953125,-19.142173767089844,15.162185668945312
1738005773851652000,1.618652099609375,-34.804351806640625,-19.115089416503906,15.069538116455078
1738005773861721300,1.628721435546875,-35.086761474609375,-19.446502685546875,15.066246032714844
1738005773871790000,1.6387900390625,-35.369110107421875,-19.45128631591797,15.02684211730957
1738005773881859300,1.648859375,-34.574493408203125,-19.052139282226562,15.016576766967773
1738005773891928300,1.65892822265625,-34.310821533203125,-19.23491668701172,14.968866348266602
1738005773901996000,1.66899609375,-34.224456787109375,-19.352210998535156,14.789691925048828
1738005773912065300,1.679065185546875,-34.174102783203125,-19.108078002929688,15.130189895629883
1738005773922134300,1.68913427734375,-34.372039794921875,-19.297752380371094,14.920675277709961
1738005773932203300,1.699203369140625,-34.645111083984375,-19.23786163330078,14.759395599365234
1738005773942272300,1.709272216796875,-34.819122314453125,-19.270591735839844,14.840349197387695
1738005773952340200,1.71934033203125,-34.906158447265625,-19.449867248535156,14.878070831298828
1738005773962409200,1.7294091796875,-34.676544189453125,-19.514732360839844,14.707405090332031
1738005773972478200,1.739478271484375,-34.609710693359375,-19.342552185058594,14.869684219360352
1738005773982547200,1.749547119140625,-34.684051513671875,-19.301406860351562,14.973617553710938
1738005773992616200,1.7596162109375,-34.508209228515625,-19.084327697753906,14.804548263549805
1738005774002684200,1.76968408203125,-34.398284912109375,-19.112930297851562,14.578935623168945
1738005774012753200,1.779753173828125,-34.840911865234375,-19.184585571289062,14.595785140991211
1738005774022822100,1.789822265625,-34.594635009765625,-19.259307861328125,14.409147262573242
1738005774032891400,1.799891357421875,-34.728546142578125,-19.10504150390625,14.655191421508789
1738005774042960100,1.809960205078125,-34.616302490234375,-18.742599487304688,14.707185745239258
1738005774053029400,1.820029296875,-34.330474853515625,-18.878883361816406,14.880287170410156
1738005774063097300,1.830097412109375,-34.579559326171875,-19.089920043945312,15.258943557739258
1738005774073166000,1.840166015625,-34.344573974609375,-19.121803283691406,15.267038345336914
1738005774083235300,1.8502353515625,-34.450531005859375,-19.194320678710938,15.01424789428711
1738005774093304000,1.860303955078125,-34.524505615234375,-19.173507690429688,15.003156661987305
1738005774103373300,1.870373291015625,-34.458465576171875,-19.128700256347656,15.047626495361328
1738005774113442300,1.8804423828125,-34.360992431640625,-19.218231201171875,14.983871459960938
1738005774123510000,1.890510009765625,-34.723419189453125,-19.343154907226562,14.81515121459961
1738005774133579300,1.900579345703125,-34.437713623046875,-19.0928955078125,15.104982376098633
1738005774143648300,1.910648193359375,-34.347015380859375,-18.872901916503906,15.088069915771484
1738005774153717200,1.92071728515625,-34.733001708984375,-18.92852783203125,15.079130172729492
1738005774163786200,1.9307861328125,-34.437469482421875,-19.07904815673828,15.052068710327148
1738005774173855200,1.940855224609375,-34.588897705078125,-19.09966278076172,15.35045051574707
1738005774183923200,1.950923095703125,-34.858062744140625,-19.248336791992188,15.337095260620117
1738005774193992200,1.9609921875,-34.635223388671875,-19.204017639160156,15.24200439453125
1738005774204061200,1.971061279296875,-34.313934326171875,-19.32787322998047,15.27934455871582
1738005774214130200,1.981130126953125,-34.283599853515625,-19.129676818847656,15.35174560546875
1738005774224199200,1.99119921875,-34.637664794921875,-18.991966247558594,15.275320053100586
1738005774234267100,2.00126708984375,-34.610687255859375,-18.798004150390625,15.50358772277832
1738005774244336000,2.011336181640625,-34.317413330078125,-18.92713165283203,15.456230163574219
1738005774254405400,2.0214052734375,-34.457794189453125,-18.969383239746094,15.586624145507812
1738005774264474000,2.03147412109375,-34.733428955078125,-18.907188415527344,15.525764465332031
1738005774274543400,2.04154345703125,-34.839080810546875,-18.859230041503906,15.412405014038086
1738005774284612000,2.051612060546875,-34.801116943359375,-18.717796325683594,15.493766784667969
1738005774294680000,2.06168017578125,-34.290496826171875,-18.791061401367188,15.410360336303711
1738005774304749300,2.071749267578125,-34.481414794921875,-19.054061889648438,15.270498275756836
1738005774314818000,2.081818115234375,-34.561126708984375,-19.0552978515625,15.504573822021484
1738005774324887300,2.09188720703125,-34.576324462890625,-18.85810089111328,15.613176345825195
1738005774334956300,2.101956298828125,-34.848968505859375,-18.76036834716797,15.259963989257812
1738005774345025300,2.112025390625,-34.608306884765625,-18.835311889648438,15.22640609741211
1738005774355093200,2.12209326171875,-34.714202880859375,-18.892066955566406,15.2430419921875
1738005774365162200,2.132162353515625,-34.339080810546875,-18.576553344726562,15.420085906982422
1738005774375231200,2.142231201171875,-34.321075439453125,-18.333251953125,15.69146728515625
1738005774385300200,2.15230029296875,-34.184173583984375,-18.277549743652344,15.625825881958008
1738005774395369200,2.162369140625,-34.493133544921875,-18.293838500976562,15.679922103881836
1738005774405438200,2.172438232421875,-34.526336669921875,-18.41382598876953,15.323442459106445
1738005774415506200,2.182506103515625,-34.789520263671875,-18.39764404296875,15.46568489074707
1738005774425575200,2.1925751953125,-34.253692626953125,-18.490768432617188,15.528392791748047
1738005774435644200,2.20264404296875,-34.690032958984375,-18.585975646972656,15.61570930480957
1738005774445713400,2.21271337890625,-34.739715576171875,-18.424766540527344,15.538288116455078
1738005774455782100,2.2227822265625,-34.659881591796875,-18.316505432128906,15.256650924682617
1738005774465851400,2.232851318359375,-34.479217529296875,-18.402671813964844,15.460943222045898
1738005774475919400,2.24291943359375,-34.357269287109375,-18.4814453125,15.633333206176758
1738005774485988000,2.252988037109375,-34.600067138671875,-18.466018676757812,15.77963638305664
1738005774496057300,2.263057373046875,-35.123138427734375,-18.26915740966797,15.554336547851562
1738005774506126000,2.2731259765625,-34.939422607421875,-18.305625915527344,15.408670425415039
1738005774516195300,2.2831953125,-35.026763916015625,-18.229331970214844,15.50520133972168
1738005774526264000,2.29326416015625,-35.092254638671875,-18.04589080810547,15.657052993774414
1738005774536333300,2.303333251953125,-34.592742919921875,-18.016517639160156,15.593238830566406
1738005774546401300,2.3134013671875,-34.810638427734375,-17.91040802001953,15.601079940795898
1738005774556470300,2.32347021484375,-34.563079833984375,-18.11998748779297,15.698629379272461
1738005774566539300,2.333539306640625,-34.765167236328125,-18.1854248046875,15.636859893798828
1738005774576608300,2.343608154296875,-34.785919189453125,-17.958351135253906,15.854595184326172
1738005774586677200,2.35367724609375,-34.653778076171875,-17.838348388671875,15.95062255859375
1738005774596746200,2.363746337890625,-34.963775634765625,-17.84729766845703,15.788408279418945
1738005774606814200,2.373814208984375,-34.945465087890625,-17.589012145996094,15.72791862487793
1738005774616883200,2.38388330078125,-34.746551513671875,-17.720718383789062,15.755775451660156
1738005774626951700,2.39395166015625,-34.478546142578125,-17.510353088378906,15.624818801879883
1738005774637021000,2.40402099609375,-34.451629638671875,-17.844810485839844,15.531702041625977
1738005774647089700,2.414089599609375,-34.772125244140625,-17.758506774902344,15.489883422851562
1738005774657159000,2.424158935546875,-34.655670166015625,-17.526123046875,15.78662109375
1738005774667227000,2.434226806640625,-34.782989501953125,-17.585601806640625,15.601722717285156
1738005774677295600,2.444295654296875,-35.156646728515625,-17.557937622070312,15.490873336791992
1738005774687364900,2.45436474609375,-35.211944580078125,-17.515182495117188,15.479978561401367
1738005774697433600,2.46443359375,-34.941680908203125,-17.734573364257812,15.371025085449219
1738005774707502800,2.4745029296875,-35.132110595703125,-17.294395446777344,15.572547912597656
1738005774717571800,2.48457177734375,-35.019744873046875,-17.39472198486328,15.908763885498047
1738005774727640800,2.494640869140625,-34.710968017578125,-17.628997802734375,15.885665893554688
1738005774737708800,2.504708740234375,-35.003265380859375,-17.417633056640625,15.98284912109375
1738005774747777800,2.51477783203125,-34.914886474609375,-17.62120819091797,16.020998001098633
1738005774757846800,2.5248466796875,-34.736236572265625,-17.457603454589844,16.059886932373047
1738005774767915800,2.534915771484375,-34.874359130859375,-17.402999877929688,16.006704330444336
1738005774777984800,2.54498486328125,-34.848663330078125,-17.29883575439453,16.00774574279785
1738005774788053800,2.5550537109375,-35.190155029296875,-17.401329040527344,15.859060287475586
1738005774798121700,2.565121826171875,-34.708831787109375,-17.319259643554688,16.012554168701172
1738005774808190700,2.575190673828125,-35.105621337890625,-17.252243041992188,16.102981567382812
1738005774818259700,2.585259765625,-35.231536865234375,-17.242469787597656,15.951911926269531
1738005774828329000,2.595328857421875,-34.863128662109375,-17.314529418945312,15.942996978759766
1738005774838397700,2.605397705078125,-35.227081298828125,-17.10102081298828,16.102811813354492
1738005774848466700,2.615466796875,-35.298370361328125,-17.213241577148438,16.040916442871094
1738005774858535700,2.62553564453125,-34.981597900390625,-17.189620971679688,16.01381492614746
1738005774868603600,2.635603759765625,-35.037689208984375,-17.189727783203125,16.073780059814453
1738005774878673000,2.6456728515625,-34.765655517578125,-17.25299835205078,16.23334503173828
1738005774888741600,2.65574169921875,-34.423248291015625,-17.301849365234375,16.240758895874023
1738005774898811000,2.665810791015625,-34.923858642578125,-17.368698120117188,16.352563858032227
1738005774908880000,2.6758798828125,-35.043914794921875,-17.35187530517578,16.212644577026367
1738005774918948600,2.685948486328125,-35.231292724609375,-17.2093505859375,16.18712043762207
1738005774929017900,2.696017822265625,-34.706390380859375,-17.213134765625,16.440902709960938
1738005774939085800,2.7060859375,-35.385833740234375,-17.16278839111328,16.48992347717285
1738005774949154800,2.71615478515625,-34.892608642578125,-17.178695678710938,16.88189697265625
1738005774959223800,2.726223876953125,-35.172821044921875,-17.304466247558594,16.830141067504883
1738005774969292500,2.73629248046875,-35.187652587890625,-17.41199493408203,16.763429641723633
1738005774979361800,2.74636181640625,-35.242706298828125,-17.387229919433594,16.98896026611328
1738005774989430800,2.7564306640625,-35.272674560546875,-17.283737182617188,16.932952880859375
1738005774999498800,2.766498779296875,-35.027557373046875,-17.56078338623047,16.80828857421875
1738005775009567700,2.776567626953125,-35.418243408203125,-17.50324249267578,16.849023818969727
1738005775019637000,2.786636962890625,-35.182952880859375,-17.345787048339844,16.90643310546875
1738005775029705700,2.796705810546875,-34.958221435546875,-17.195831298828125,16.55218505859375
1738005775039774700,2.806774658203125,-34.907501220703125,-17.130142211914062,16.690542221069336
1738005775049843700,2.81684375,-35.074981689453125,-17.078125,16.63054084777832
1738005775059912700,2.82691259765625,-35.060455322265625,-17.24974822998047,16.27301597595215
1738005775069981000,2.83698095703125,-34.995635986328125,-17.214149475097656,16.087656021118164
1738005775080049700,2.847049560546875,-34.911346435546875,-17.183242797851562,16.068401336669922
1738005775090118700,2.85711865234375,-35.054046630859375,-17.127647399902344,16.061120986938477
1738005775100188000,2.86718798828125,-35.176849365234375,-17.262969970703125,16.121313095092773
1738005775110256600,2.877256591796875,-35.249420166015625,-17.302757263183594,16.251893997192383
1738005775120326000,2.887325927734375,-35.307891845703125,-17.46459197998047,16.121782302856445
1738005775130394600,2.89739453125,-35.228363037109375,-17.687217712402344,16.164525985717773
1738005775140462600,2.907462646484375,-35.515350341796875,-17.832763671875,16.36985969543457
1738005775150531800,2.91753173828125,-35.534332275390625,-17.790931701660156,16.19669532775879
1738005775160600600,2.9276005859375,-35.145355224609375,-18.02831268310547,16.65906524658203
1738005775170669800,2.937669921875,-35.410858154296875,-18.26268768310547,16.283164978027344
1738005775180738600,2.947738525390625,-35.512603759765625,-18.04412078857422,16.23128318786621
1738005775190807800,2.957807861328125,-35.553497314453125,-18.54509735107422,16.25634002685547
1738005775200876800,2.967876708984375,-35.235687255859375,-18.58965301513672,16.084983825683594
1738005775210945800,2.97794580078125,-35.488739013671875,-18.656356811523438,16.258638381958008
1738005775221013800,2.988013671875,-35.625152587890625,-18.626235961914062,16.117860794067383
1738005775231082800,2.998082763671875,-35.113250732421875,-18.831771850585938,16.024372100830078
1738005775241151700,3.00815185546875,-35.135711669921875,-18.63282012939453,16.103801727294922
1738005775251220700,3.018220703125,-34.916412353515625,-18.612411499023438,16.061763763427734
1738005775261289700,3.028289794921875,-34.843780517578125,-18.642311096191406,15.947505950927734
1738005775271358700,3.038358642578125,-34.972747802734375,-18.969520568847656,15.897651672363281
1738005775281428000,3.048427978515625,-34.825103759765625,-18.642318725585938,15.859209060668945
1738005775291495700,3.05849560546875,-34.985809326171875,-18.846023559570312,16.008481979370117
1738005775301564700,3.068564697265625,-34.951263427734375,-18.886611938476562,15.972501754760742
1738005775311634000,3.078634033203125,-34.451080322265625,-18.619354248046875,15.893653869628906
1738005775321702700,3.08870263671875,-34.699737548828125,-18.745819091796875,15.90031623840332
1738005775331772000,3.09877197265625,-34.993011474609375,-18.798477172851562,15.568422317504883
1738005775341840600,3.108840576171875,-34.991607666015625,-18.668380737304688,15.56119155883789
1738005775351909600,3.11890966796875,-34.873992919921875,-18.735633850097656,15.601072311401367
1738005775361979000,3.128978759765625,-34.837677001953125,-18.515365600585938,15.461990356445312
1738005775372046600,3.139046630859375,-35.312408447265625,-18.818832397460938,15.635234832763672
1738005775382115800,3.14911572265625,-35.217803955078125,-18.660690307617188,15.689170837402344
1738005775392184800,3.159184814453125,-35.535247802734375,-18.665679931640625,15.741439819335938
1738005775402253800,3.16925390625,-35.590545654296875,-18.83343505859375,15.605270385742188
1738005775412322800,3.17932275390625,-35.201873779296875,-18.748817443847656,15.796056747436523
1738005775422391600,3.1893916015625,-35.338836669921875,-18.358016967773438,15.965673446655273
1738005775432460800,3.199460693359375,-35.569976806640625,-18.250572204589844,15.987543106079102
1738005775442529800,3.20952978515625,-35.239410400390625,-18.10242462158203,16.2194881439209
1738005775452597800,3.21959765625,-35.719390869140625,-17.402755737304688,16.077415466308594
1738005775462666800,3.229666748046875,-35.930023193359375,-16.703903198242188,16.065824508666992
1738005775472735700,3.23973583984375,-35.770538330078125,-16.53601837158203,16.065975189208984
1738005775482804700,3.2498046875,-36.058868408203125,-16.10247039794922,16.18586540222168
1738005775492873700,3.259873779296875,-36.020721435546875,-15.486412048339844,16.32759666442871
1738005775502942700,3.269942626953125,-35.919830322265625,-15.677459716796875,16.62565040588379
1738005775513011700,3.28001171875,-35.842071533203125,-15.865211486816406,17.02627944946289
1738005775523080000,3.290079833984375,-35.729400634765625,-15.913017272949219,17.12017250061035
1738005775533148700,3.300148681640625,-35.502471923828125,-15.95184326171875,17.325469970703125
1738005775543217700,3.3102177734375,-35.839630126953125,-16.436134338378906,17.01116371154785
1738005775553287000,3.320286865234375,-35.305450439453125,-16.763282775878906,17.334823608398438
1738005775563355600,3.330355712890625,-35.085540771484375,-17.284156799316406,17.607730865478516
1738005775573425000,3.3404248046875,-34.504058837890625,-17.429039001464844,17.781082153320312
1738005775583493600,3.35049365234375,-34.740875244140625,-18.018722534179688,17.747556686401367
1738005775593563000,3.36056298828125,-34.300323486328125,-18.263282775878906,17.666799545288086
1738005775603630800,3.370630859375,-34.535736083984375,-18.41881561279297,17.37000846862793
1738005775613699600,3.380699462890625,-34.309234619140625,-18.67060089111328,17.36714744567871
1738005775623768800,3.390768798828125,-34.259063720703125,-18.89007568359375,17.323848724365234
1738005775633838300,3.40083837890625,-34.383575439453125,-18.809791564941406,17.27590560913086
1738005775643907300,3.4109072265625,-34.288238525390625,-18.380599975585938,17.31768035888672
1738005775653976300,3.420976318359375,-34.594085693359375,-18.414962768554688,16.962160110473633
1738005775664045300,3.43104541015625,-34.832672119140625,-18.25927734375,16.68117904663086
1738005775674114300,3.4411142578125,-34.968292236328125,-18.16967010498047,16.425548553466797
1738005775684183300,3.451183349609375,-34.309356689453125,-18.002647399902344,16.280508041381836
1738005775694251300,3.461251220703125,-34.670928955078125,-18.33716583251953,16.350614547729492
1738005775704320500,3.471320556640625,-34.545928955078125,-18.343292236328125,16.33338737487793
1738005775714389200,3.48138916015625,-34.546417236328125,-18.519485473632812,16.192733764648438
1738005775724458200,3.491458251953125,-34.718292236328125,-18.794326782226562,16.15689468383789
1738005775734527200,3.50152734375,-34.448211669921875,-18.88732147216797,16.197288513183594
1738005775744596200,3.51159619140625,-34.077178955078125,-19.126998901367188,16.337190628051758
1738005775754665500,3.52166552734375,-33.534759521484375,-19.375045776367188,16.340024948120117
1738005775764734200,3.531734130859375,-33.786102294921875,-19.604354858398438,16.148841857910156
1738005775774803500,3.541803466796875,-33.753326416015625,-20.03521728515625,16.028430938720703
1738005775784871400,3.551871337890625,-33.742340087890625,-20.25298309326172,15.997642517089844
1738005775794940200,3.561940185546875,-33.354400634765625,-20.25293731689453,15.853424072265625
1738005775805009400,3.572009521484375,-33.166229248046875,-20.42815399169922,15.842527389526367
1738005775815078100,3.582078125,-33.060882568359375,-20.51512908935547,15.830026626586914
1738005775825147400,3.5921474609375,-33.467437744140625,-20.627723693847656,15.450206756591797
1738005775835216400,3.60221630859375,-33.351104736328125,-20.593902587890625,15.572093963623047
1738005775845285400,3.612285400390625,-33.129547119140625,-20.816261291503906,15.682968139648438
1738005775855354400,3.622354248046875,-33.171905517578125,-20.867385864257812,15.707023620605469
1738005775865422300,3.63242236328125,-33.081451416015625,-20.879348754882812,15.7020263671875
1738005775875491300,3.6424912109375,-33.152374267578125,-20.849472045898438,15.693815231323242
1738005775885560300,3.652560302734375,-32.985260009765625,-20.912841796875,15.547735214233398
1738005775895629300,3.66262939453125,-32.737518310546875,-20.986328125,15.751518249511719
1738005775905698300,3.6726982421875,-32.558502197265625,-20.942153930664062,15.710836410522461
1738005775915767600,3.682767578125,-32.624847412109375,-21.090110778808594,15.810361862182617
1738005775925836300,3.692836181640625,-32.086456298828125,-21.12944793701172,15.730270385742188
1738005775935905300,3.7029052734375,-32.136749267578125,-21.02435302734375,15.547294616699219
1738005775945974300,3.712974365234375,-32.244537353515625,-21.278091430664062,15.407964706420898
1738005775956043300,3.723043212890625,-32.309356689453125,-21.146316528320312,15.467636108398438
1738005775966111500,3.733111572265625,-32.362213134765625,-21.03900909423828,15.41258430480957
1738005775976180200,3.74318017578125,-31.915435791015625,-21.208412170410156,15.673133850097656
1738005775986249500,3.75324951171875,-31.488800048828125,-21.657623291015625,15.41584587097168
1738005775996318500,3.763318359375,-31.157623291015625,-21.747817993164062,15.282054901123047
1738005776006387200,3.77338720703125,-31.508575439453125,-21.755752563476562,15.233030319213867
1738005776016456400,3.78345654296875,-31.462493896484375,-21.795944213867188,15.176790237426758
1738005776026525200,3.793525146484375,-31.739715576171875,-21.823081970214844,15.254705429077148
1738005776036594400,3.803594482421875,-31.272613525390625,-21.936965942382812,15.16160774230957
1738005776046663200,3.8136630859375,-31.277557373046875,-22.353858947753906,14.811866760253906
1738005776056731100,3.823731201171875,-31.248504638671875,-22.3212890625,14.568246841430664
1738005776066800400,3.83380029296875,-31.284759521484375,-22.577346801757812,14.398340225219727
1738005776076869400,3.843869384765625,-31.037200927734375,-22.635726928710938,14.096351623535156
1738005776086938400,3.8539384765625,-31.039581298828125,-22.78221893310547,13.954566955566406
1738005776097007400,3.86400732421875,-31.039642333984375,-22.85663604736328,13.902446746826172
1738005776107076400,3.874076416015625,-30.550323486328125,-23.208160400390625,13.608882904052734
1738005776117145300,3.884145263671875,-30.731109619140625,-23.198150634765625,13.695806503295898
1738005776127214300,3.89421435546875,-30.623809814453125,-23.45990753173828,13.554021835327148
1738005776137283300,3.904283447265625,-30.566680908203125,-23.539207458496094,13.723714828491211
1738005776147351300,3.914351318359375,-30.292022705078125,-23.4862060546875,13.432872772216797
1738005776157420300,3.924420166015625,-30.074737548828125,-23.64453125,13.440448760986328
1738005776167489300,3.9344892578125,-29.967193603515625,-23.678314208984375,13.422683715820312
1738005776177558500,3.94455859375,-30.180694580078125,-23.55754852294922,13.029138565063477
1738005776187627300,3.954627197265625,-30.594146728515625,-23.16473388671875,12.864418029785156
1738005776197696500,3.964696533203125,-30.584747314453125,-22.66809844970703,12.986309051513672
1738005776207765200,3.97476513671875,-30.895050048828125,-22.438636779785156,12.800529479980469
1738005776217834200,3.984834228515625,-30.451324462890625,-22.456161499023438,12.668590545654297
1738005776227903500,3.994903564453125,-30.691619873046875,-22.33763885498047,12.162973403930664
1738005776237972200,4.00497216796875,-30.777618408203125,-22.366897583007812,11.834207534790039
1738005776248040400,4.01504052734375,-30.587677001953125,-22.46308135986328,11.836118698120117
1738005776258109400,4.025109375,-30.176239013671875,-22.45050811767578,11.586435317993164
1738005776268178200,4.03517822265625,-30.345306396484375,-22.655799865722656,11.240978240966797
1738005776278247400,4.045247314453125,-29.933807373046875,-23.07146453857422,11.065296173095703
1738005776288316200,4.055316162109375,-29.716094970703125,-22.72460174560547,10.999107360839844
1738005776298385400,4.065385498046875,-29.732574462890625,-23.04450225830078,10.56822395324707
1738005776308454400,4.075454345703125,-29.068328857421875,-23.398338317871094,10.445371627807617
1738005776318523400,4.0855234375,-28.783294677734375,-23.43677520751953,10.314193725585938
1738005776328592400,4.09559228515625,-28.467498779296875,-23.5560302734375,10.340368270874023
1738005776338661400,4.105661376953125,-28.947357177734375,-23.513206481933594,10.245119094848633
1738005776348729300,4.115729248046875,-28.665679931640625,-23.343040466308594,9.858907699584961
1738005776358798300,4.12579833984375,-28.658538818359375,-23.34662628173828,9.814123153686523
1738005776368867300,4.135867431640625,-28.585418701171875,-23.46381378173828,9.616056442260742
1738005776378936300,4.145936279296875,-28.698455810546875,-23.47460174560547,9.401172637939453
1738005776389005300,4.15600537109375,-28.354156494140625,-23.409622192382812,8.870475769042969
1738005776399074300,4.16607421875,-28.118927001953125,-23.489410400390625,8.72353744506836
1738005776409143600,4.1761435546875,-28.134185791015625,-23.685104370117188,8.212919235229492
1738005776419212300,4.18621240234375,-28.473602294921875,-23.576210021972656,8.140336990356445
1738005776429281300,4.19628125,-28.026580810546875,-23.833656311035156,7.944751262664795
1738005776439350300,4.206350341796875,-27.856109619140625,-23.727928161621094,7.690261363983154
1738005776449418200,4.216418212890625,-27.728668212890625,-23.85773468017578,7.2984185218811035
1738005776459487500,4.226487548828125,-27.589935302734375,-23.819602966308594,7.080694675445557
1738005776469556200,4.23655615234375,-27.500152587890625,-24.011253356933594,6.715274333953857
1738005776479625200,4.246625244140625,-27.427032470703125,-23.825347900390625,6.42930269241333
1738005776489694500,4.256694580078125,-27.561004638671875,-23.587196350097656,6.294304370880127
1738005776499763200,4.26676318359375,-27.376007080078125,-23.44599151611328,6.155683994293213
1738005776509832400,4.27683251953125,-27.371978759765625,-23.31256103515625,5.901655673980713
1738005776519901200,4.286901123046875,-26.998321533203125,-23.227569580078125,5.8377299308776855
1738005776529970400,4.296970458984375,-26.748687744140625,-23.19775390625,5.651142597198486
1738005776540039400,4.307039306640625,-27.184844970703125,-23.26898956298828,5.225827693939209
1738005776550107100,4.317107177734375,-26.624114990234375,-23.18151092529297,5.217726230621338
1738005776560176400,4.32717626953125,-26.322418212890625,-23.1927490234375,4.938209056854248
1738005776570245400,4.337245361328125,-26.300628662109375,-23.171104431152344,4.766590595245361
1738005776580314400,4.347314453125,-26.495086669921875,-22.971359252929688,4.613279819488525
1738005776590383400,4.35738330078125,-26.272735595703125,-23.04010772705078,4.40430212020874
1738005776600452400,4.367452392578125,-26.131927490234375,-22.969390869140625,4.3700737953186035
1738005776610521300,4.377521240234375,-25.622283935546875,-22.899169921875,4.211820125579834
1738005776620590300,4.38759033203125,-25.590301513671875,-23.254737854003906,4.045994281768799
1738005776630659300,4.397659423828125,-25.018402099609375,-23.291946411132812,3.758995532989502
1738005776640728300,4.407728271484375,-25.209320068359375,-23.547279357910156,3.8346781730651855
1738005776650796300,4.41779638671875,-25.628509521484375,-23.637420654296875,3.623783588409424
1738005776660865300,4.427865234375,-24.844635009765625,-23.561477661132812,3.7409605979919434
1738005776670934300,4.437934326171875,-24.997833251953125,-23.485626220703125,3.589939594268799
1738005776681003300,4.448003173828125,-24.965667724609375,-23.523048400878906,3.4355263710021973
1738005776691072300,4.458072265625,-25.260406494140625,-23.62505340576172,3.4145026206970215
1738005776701141200,4.468141357421875,-25.325653076171875,-23.611793518066406,3.125030994415283
1738005776711210200,4.478210205078125,-25.297088623046875,-23.68749237060547,3.2339253425598145
1738005776721279200,4.488279296875,-25.181304931640625,-23.407211303710938,2.9425578117370605
1738005776731348200,4.49834814453125,-24.940765380859375,-23.535247802734375,3.13041353225708
1738005776741417200,4.508417236328125,-25.086517333984375,-23.424667358398438,2.9687905311584473
1738005776751485400,4.5184853515625,-24.909576416015625,-23.4417724609375,2.75059175491333
1738005776761554200,4.52855419921875,-24.653900146484375,-23.061973571777344,2.6105828285217285
1738005776771623200,4.538623046875,-24.763580322265625,-22.79827117919922,2.539973735809326
1738005776781692200,4.548692138671875,-25.115447998046875,-22.5933837890625,2.098541736602783
1738005776791761200,4.55876123046875,-25.259307861328125,-22.546119689941406,2.020270824432373
1738005776801830400,4.568830322265625,-25.414886474609375,-22.22667694091797,1.7061877250671387
1738005776811899100,4.578899169921875,-25.482635498046875,-21.88518524169922,1.6881327629089355
1738005776821968400,4.588968505859375,-25.637176513671875,-21.99120330810547,1.4601006507873535
1738005776832037000,4.599037109375,-25.608245849609375,-21.934654235839844,1.3879084587097168
1738005776842106400,4.6091064453125,-25.661285400390625,-21.66777801513672,1.115213394165039
1738005776852174300,4.61917431640625,-25.366180419921875,-21.614669799804688,0.9025492668151855
1738005776862243000,4.6292431640625,-25.371917724609375,-21.682708740234375,0.67156982421875
1738005776872312300,4.639312255859375,-25.144989013671875,-21.547569274902344,0.4469265937805176
1738005776882381300,4.64938134765625,-25.040130615234375,-21.389488220214844,0.19441699981689453
1738005776892450300,4.6594501953125,-25.293731689453125,-20.958648681640625,0.1724257469177246
1738005776902519300,4.669519287109375,-25.083343505859375,-20.642250061035156,-0.21219253540039062
1738005776912588300,4.67958837890625,-25.136749267578125,-20.505752563476562,-0.3828425407409668
1738005776922657300,4.6896572265625,-25.222076416015625,-19.857376098632812,-0.43442392349243164
1738005776932726300,4.699726318359375,-25.472686767578125,-19.55274200439453,-0.5782842636108398
1738005776942794200,4.709794189453125,-25.759796142578125,-19.686851501464844,-0.7493143081665039
1738005776952863200,4.71986328125,-25.856658935546875,-19.70014190673828,-1.0393109321594238
1738005776962932200,4.72993212890625,-25.940032958984375,-19.646148681640625,-0.9116702079772949
1738005776973001200,4.740001220703125,-25.893218994140625,-19.47057342529297,-0.938502311706543
1738005776983070200,4.7500703125,-26.215484619140625,-19.24346160888672,-0.978177547454834
1738005776993139200,4.76013916015625,-26.272979736328125,-19.234275817871094,-1.247054100036621
1738005777003208200,4.770208251953125,-26.077301025390625,-19.14826202392578,-1.4007329940795898
1738005777013277200,4.780277099609375,-25.867706298828125,-19.134231567382812,-1.50831937789917
1738005777023346200,4.79034619140625,-26.323455810546875,-18.973304748535156,-1.567746639251709
1738005777033415400,4.80041552734375,-26.048553466796875,-18.908363342285156,-1.6307258605957031
1738005777043483100,4.810483154296875,-26.338897705078125,-18.851150512695312,-1.5984258651733398
1738005777053552000,4.82055224609375,-25.937286376953125,-18.80931854248047,-1.536290168762207
1738005777063621400,4.830621337890625,-25.774627685546875,-18.765830993652344,-1.6732964515686035
1738005777073690000,4.840690185546875,-26.225677490234375,-19.14301300048828,-1.6342897415161133
1738005777083759400,4.85075927734375,-26.394012451171875,-19.260231018066406,-1.7566847801208496
1738005777093828000,4.860828125,-26.383331298828125,-19.321517944335938,-2.063196897506714
1738005777103897300,4.8708974609375,-26.303375244140625,-19.502159118652344,-2.167713165283203
1738005777113966300,4.88096630859375,-26.514251708984375,-19.589744567871094,-2.3954756259918213
1738005777124035300,4.891035400390625,-26.563385009765625,-19.56585693359375,-2.5080020427703857
1738005777134104300,4.901104248046875,-26.657745361328125,-19.484359741210938,-2.705918312072754
1738005777144172300,4.91117236328125,-26.585845947265625,-19.54479217529297,-2.8230273723602295
1738005777154241300,4.9212412109375,-26.482391357421875,-19.55523681640625,-2.816929340362549
1738005777164310300,4.931310302734375,-26.583404541015625,-19.732162475585938,-2.654881477355957
1738005777174379300,4.941379150390625,-26.621795654296875,-19.77691650390625,-2.939602851867676
1738005777184448300,4.9514482421875,-26.704071044921875,-19.77417755126953,-3.1957080364227295
1738005777194517200,4.961517333984375,-26.793853759765625,-19.962120056152344,-3.3773648738861084
1738005777204586200,4.971586181640625,-27.111541748046875,-19.950408935546875,-3.33001446723938
1738005777214655200,4.9816552734375,-27.380889892578125,-20.36742401123047,-3.56249737739563
1738005777224724200,4.99172412109375,-27.041473388671875,-20.13957977294922,-4.016400337219238
1738005777234792200,5.001792236328125,-27.344390869140625,-20.11237335205078,-4.10613489151001
1738005777244861400,5.011861328125,-27.669281005859375,-19.871444702148438,-4.253540515899658
1738005777254930200,5.02193017578125,-27.764556884765625,-19.722450256347656,-4.787117004394531
1738005777264999200,5.031999267578125,-27.836090087890625,-19.90972900390625,-5.198734760284424
1738005777275068200,5.042068115234375,-27.980438232421875,-19.747901916503906,-5.421180725097656
1738005777285137200,5.05213720703125,-28.731964111328125,-19.62957763671875,-5.628232955932617
1738005777295206400,5.062206298828125,-28.792144775390625,-19.68865203857422,-6.138079643249512
1738005777305275100,5.072275146484375,-29.162872314453125,-19.5306396484375,-6.7394208908081055
1738005777315344400,5.082344482421875,-28.788360595703125,-19.466323852539062,-6.702847957611084
1738005777325413000,5.0924130859375,-29.173065185546875,-19.315963745117188,-6.821465969085693
1738005777335481000,5.102481201171875,-29.342620849609375,-19.29528045654297,-7.183840751647949
1738005777345550300,5.11255029296875,-29.766143798828125,-19.457855224609375,-7.549450874328613
1738005777355619000,5.122619140625,-29.653656005859375,-19.420654296875,-8.047988891601562
1738005777365688300,5.132688232421875,-30.030059814453125,-19.193153381347656,-8.502740859985352
1738005777375757300,5.14275732421875,-29.408172607421875,-18.72203826904297,-8.596713066101074
1738005777385826300,5.152826416015625,-29.990936279296875,-18.555084228515625,-8.952018737792969
1738005777395895300,5.162895263671875,-30.312713623046875,-18.56646728515625,-9.423576354980469
1738005777405964000,5.172964111328125,-30.083831787109375,-18.389083862304688,-9.61494255065918
1738005777416033300,5.183033203125,-30.776458740234375,-18.265380859375,-10.110183715820312
1738005777426102300,5.193102294921875,-30.814300537109375,-18.008689880371094,-10.324030876159668
1738005777436170200,5.203170166015625,-30.770355224609375,-17.883392333984375,-10.51230525970459
1738005777446239200,5.2132392578125,-30.633026123046875,-17.575149536132812,-10.813552856445312
1738005777456308500,5.22330859375,-30.972381591796875,-17.69757080078125,-11.281797409057617
1738005777466377200,5.233377197265625,-31.228973388671875,-17.438827514648438,-11.623580932617188
1738005777476446200,5.2434462890625,-31.176910400390625,-17.152908325195312,-11.695586204528809
1738005777486515200,5.25351513671875,-30.974700927734375,-16.792083740234375,-11.987298011779785
1738005777496584200,5.263584228515625,-31.146514892578125,-16.649452209472656,-12.321487426757812
1738005777506653200,5.273653076171875,-31.503204345703125,-16.901123046875,-12.60898494720459
1738005777516721200,5.28372119140625,-31.386138916015625,-16.62408447265625,-12.713830947875977
1738005777526790100,5.2937900390625,-31.089752197265625,-16.290916442871094,-12.72711181640625
1738005777536859400,5.303859375,-31.451568603515625,-16.26946258544922,-13.164071083068848
1738005777546928000,5.31392822265625,-31.324920654296875,-16.18749237060547,-13.456616401672363
1738005777556997400,5.323997314453125,-30.917388916015625,-16.1019287109375,-13.508232116699219
1738005777567066000,5.334066162109375,-31.139312744140625,-15.693832397460938,-13.548094749450684
1738005777577135400,5.34413525390625,-31.215850830078125,-15.738349914550781,-13.632413864135742
1738005777587204000,5.3542041015625,-31.554046630859375,-16.021080017089844,-13.576921463012695
1738005777597273300,5.3642734375,-31.644317626953125,-15.878936767578125,-13.716287612915039
1738005777607342300,5.37434228515625,-31.108673095703125,-15.576095581054688,-13.437711715698242
1738005777617410300,5.384410400390625,-31.108673095703125,-15.576095581054688,-13.437711715698242
1738005777627479300,5.394479248046875,-31.126922607421875,-15.607688903808594,-13.767617225646973
1738005777637548500,5.404548583984375,-31.426727294921875,-15.687797546386719,-13.671313285827637
1738005777647617300,5.4146171875,-31.578521728515625,-15.666099548339844,-13.860280990600586
1738005777657686300,5.424686279296875,-31.783721923828125,-15.714309692382812,-14.008737564086914
1738005777667755300,5.43475537109375,-31.746917724609375,-15.482139587402344,-13.849884033203125
1738005777677824300,5.44482421875,-31.856842041015625,-15.286102294921875,-13.776510238647461
1738005777687893500,5.4548935546875,-32.013702392578125,-15.349708557128906,-13.641412734985352
1738005777697962200,5.464962158203125,-32.111358642578125,-14.959426879882812,-13.668720245361328
1738005777708030200,5.4750302734375,-32.035186767578125,-14.761817932128906,-13.847622871398926
1738005777718099500,5.485099365234375,-32.058380126953125,-14.861648559570312,-13.606952667236328
1738005777728168200,5.495168212890625,-32.201568603515625,-15.206253051757812,-13.681039810180664
1738005777738237400,5.505237548828125,-32.490020751953125,-15.249710083007812,-13.832670211791992
1738005777748306200,5.51530615234375,-32.508941650390625,-15.466094970703125,-13.677623748779297
1738005777758375400,5.52537548828125,-32.456085205078125,-15.382530212402344,-13.666102409362793
1738005777768444400,5.5354443359375,-32.411956787109375,-15.607620239257812,-13.767082214355469
1738005777778513400,5.545513427734375,-32.122650146484375,-15.64398193359375,-13.641414642333984
1738005777788582400,5.55558251953125,-32.171783447265625,-15.856285095214844,-13.904878616333008
1738005777798651100,5.565651123046875,-31.949310302734375,-15.934906005859375,-13.999271392822266
1738005777808719400,5.57571923828125,-32.114288330078125,-16.130409240722656,-13.938066482543945
1738005777818788400,5.585788330078125,-32.175262451171875,-16.490280151367188,-14.057336807250977
1738005777828857300,5.595857421875,-32.009979248046875,-16.7747802734375,-14.021516799926758
1738005777838926300,5.60592626953125,-32.139556884765625,-16.89868927001953,-13.751708030700684
1738005777848995300,5.615995361328125,-32.528717041015625,-17.196151733398438,-13.796456336975098
1738005777859064300,5.626064208984375,-31.868255615234375,-17.13019561767578,-13.805338859558105
1738005777869133300,5.63613330078125,-32.210845947265625,-17.3624267578125,-13.593181610107422
1738005777879202300,5.646202392578125,-31.923065185546875,-17.323219299316406,-13.597947120666504
1738005777889271300,5.656271240234375,-31.601348876953125,-17.214126586914062,-13.658838272094727
1738005777899339500,5.666339599609375,-31.780303955078125,-17.30860137939453,-13.966938018798828
1738005777909408300,5.676408203125,-32.089141845703125,-17.09168243408203,-13.956306457519531
1738005777919477200,5.686477294921875,-32.036773681640625,-17.07274627685547,-13.98090934753418
1738005777929546200,5.696546142578125,-32.250152587890625,-16.936859130859375,-13.848339080810547
1738005777939615200,5.706615234375,-32.029937744140625,-16.682769775390625,-13.73298454284668
1738005777949684500,5.7166845703125,-32.511260986328125,-16.927406311035156,-13.939464569091797
1738005777959753200,5.726753173828125,-32.314727783203125,-16.994361877441406,-13.909582138061523
1738005777969822500,5.736822509765625,-32.240386962890625,-17.021217346191406,-13.896820068359375
1738005777979891200,5.74689111328125,-32.218353271484375,-17.199615478515625,-14.003318786621094
1738005777989960400,5.75696044921875,-32.339630126953125,-17.340476989746094,-13.929426193237305
1738005778000028400,5.7670283203125,-31.873321533203125,-17.211769104003906,-13.866838455200195
1738005778010097200,5.77709716796875,-32.340179443359375,-17.060379028320312,-14.074920654296875
1738005778020166400,5.78716650390625,-32.468963623046875,-17.211944580078125,-13.998359680175781
1738005778030235400,5.7972353515625,-32.210052490234375,-17.336341857910156,-13.873347282409668
1738005778040304400,5.807304443359375,-32.220672607421875,-17.2039794921875,-14.031265258789062
1738005778050373400,5.817373291015625,-32.523773193359375,-17.265640258789062,-13.98509407043457
1738005778060442400,5.8274423828125,-32.605010986328125,-17.535308837890625,-13.982475280761719
1738005778070511400,5.837511474609375,-32.346099853515625,-17.52544403076172,-14.042390823364258
1738005778080580400,5.847580322265625,-32.575408935546875,-17.405250549316406,-14.158931732177734
1738005778090649300,5.8576494140625,-32.313751220703125,-17.446868896484375,-14.059972763061523
1738005778100717300,5.86771728515625,-32.009185791015625,-17.49840545654297,-14.028314590454102
1738005778110786600,5.87778662109375,-32.240631103515625,-17.43187713623047,-14.391311645507812
1738005778120855300,5.887855224609375,-32.368377685546875,-17.311630249023438,-14.12423324584961
1738005778130924300,5.89792431640625,-32.199371337890625,-17.372085571289062,-13.991357803344727
1738005778140993300,5.9079931640625,-32.482635498046875,-17.531829833984375,-14.093189239501953
1738005778151062300,5.918062255859375,-32.656951904296875,-17.459259033203125,-13.931629180908203
1738005778161131300,5.92813134765625,-32.910675048828125,-17.470062255859375,-14.461753845214844
1738005778171200300,5.9382001953125,-32.993743896484375,-17.4027099609375,-14.515512466430664
1738005778181269500,5.94826953125,-33.059295654296875,-17.474327087402344,-14.476669311523438
1738005778191337500,5.95833740234375,-32.881500244140625,-17.196266174316406,-14.476203918457031
1738005778201406200,5.96840625,-33.164215087890625,-17.055572509765625,-14.217077255249023
1738005778211475500,5.978475341796875,-33.477935791015625,-17.040138244628906,-14.519012451171875
1738005778221544200,5.988544189453125,-33.447723388671875,-17.37291717529297,-14.468168258666992
1738005778231613400,5.998613525390625,-33.676239013671875,-17.33837127685547,-14.58053207397461
1738005778241682200,6.00868212890625,-33.578460693359375,-17.31145477294922,-14.304973602294922
1738005778251751400,6.01875146484375,-33.380889892578125,-17.33313751220703,-14.313493728637695
1738005778261820400,6.0288203125,-33.692779541015625,-17.30132293701172,-14.47458267211914
1738005778271889400,6.038889404296875,-33.927398681640625,-17.21125030517578,-14.441879272460938
1738005778281958400,6.04895849609375,-33.999176025390625,-17.203704833984375,-14.64303207397461
1738005778292026400,6.0590263671875,-34.055877685546875,-17.089767456054688,-14.688274383544922
1738005778302095400,6.069095458984375,-34.373809814453125,-17.02539825439453,-14.587722778320312
1738005778312164400,6.079164306640625,-34.270477294921875,-17.052093505859375,-14.806341171264648
1738005778322233300,6.0892333984375,-34.588714599609375,-16.916702270507812,-14.903667449951172
1738005778332302300,6.09930224609375,-34.261810302734375,-16.837295532226562,-14.69247055053711
1738005778342371300,6.109371337890625,-34.138519287109375,-16.85797882080078,-14.721393585205078
1738005778352440300,6.1194404296875,-34.347930908203125,-16.966217041015625,-14.928153991699219
1738005778362509300,6.12950927734375,-34.387725830078125,-17.068572998046875,-15.208332061767578
1738005778372578300,6.139578369140625,-34.736358642578125,-16.94348907470703,-14.922039031982422
1738005778382647300,6.149647216796875,-34.833282470703125,-16.950729370117188,-14.847488403320312
1738005778392715500,6.159715576171875,-35.105987548828125,-16.788658142089844,-14.986440658569336
1738005778402784300,6.1697841796875,-35.476043701171875,-16.32715606689453,-14.938486099243164
1738005778412853200,6.179853271484375,-35.754852294921875,-15.904556274414062,-14.838884353637695
1738005778422922500,6.189922607421875,-35.922637939453125,-15.716255187988281,-15.254304885864258
1738005778432991200,6.1999912109375,-35.998931884765625,-15.524009704589844,-15.434343338012695
1738005778443060500,6.210060546875,-35.942108154296875,-15.141815185546875,-15.536890029907227
1738005778453129200,6.220129150390625,-36.268463134765625,-14.981689453125,-15.930440902709961
1738005778463198500,6.230198486328125,-35.984771728515625,-15.082466125488281,-15.951683044433594
1738005778473267200,6.24026708984375,-36.341644287109375,-15.467185974121094,-16.28278350830078
1738005778483336400,6.25033642578125,-36.240264892578125,-15.721122741699219,-16.583681106567383
1738005778493404400,6.260404296875,-36.002105712890625,-16.10814666748047,-16.680288314819336
1738005778503473400,6.270473388671875,-35.824310302734375,-16.5369873046875,-16.73801040649414
1738005778513542400,6.28054248046875,-35.639251708984375,-16.87146759033203,-16.591419219970703
1738005778523611400,6.290611328125,-35.557220458984375,-17.041893005371094,-16.705753326416016
1738005778533680400,6.300680419921875,-35.721405029296875,-17.358169555664062,-16.893596649169922
1738005778543749400,6.310749267578125,-35.444732666015625,-17.584556579589844,-17.11493492126465
1738005778553818000,6.320818115234375,-35.378204345703125,-17.69257354736328,-17.073169708251953
1738005778563887400,6.330887451171875,-35.659820556640625,-17.383750915527344,-17.250150680541992
1738005778573956400,6.340956298828125,-35.344512939453125,-17.27564239501953,-17.473779678344727
1738005778584024300,6.3510244140625,-35.288604736328125,-17.137062072753906,-17.568330764770508
1738005778594093300,6.36109326171875,-35.562591552734375,-17.094627380371094,-17.853097915649414
1738005778604162600,6.37116259765625,-35.359039306640625,-16.96795654296875,-18.023569107055664
1738005778614231300,6.381231201171875,-35.569793701171875,-16.978271484375,-18.248565673828125
1738005778624300300,6.39130029296875,-35.766998291015625,-16.65460968017578,-18.31109619140625
1738005778634369000,6.401369140625,-35.660308837890625,-16.559982299804688,-18.243202209472656
1738005778644438300,6.411438232421875,-35.525360107421875,-16.48290252685547,-18.082483291625977
1738005778654507300,6.42150732421875,-35.361785888671875,-16.434158325195312,-18.34791374206543
1738005778664576300,6.431576171875,-35.575042724609375,-16.596176147460938,-18.418195724487305
1738005778674645200,6.441645263671875,-35.466522216796875,-16.525802612304688,-18.63102912902832
1738005778684713200,6.451713134765625,-35.667388916015625,-16.47801971435547,-18.776668548583984
1738005778694782200,6.4617822265625,-35.796783447265625,-16.590003967285156,-18.952411651611328
1738005778704851200,6.471851318359375,-35.491058349609375,-16.928390502929688,-19.27294921875
1738005778714920200,6.481920166015625,-35.818878173828125,-16.78582763671875,-19.02507209777832
1738005778724989200,6.4919892578125,-35.446685791015625,-17.04449462890625,-19.123165130615234
1738005778735058400,6.502058349609375,-35.238739013671875,-17.104446411132812,-19.045568466186523
1738005778745127200,6.512127197265625,-35.830780029296875,-17.332611083984375,-18.918418884277344
1738005778755196200,6.522196044921875,-35.371368408203125,-17.460655212402344,-19.17196273803711
1738005778765265200,6.53226513671875,-35.666900634765625,-17.806182861328125,-19.174434661865234
1738005778775334100,6.542334228515625,-35.698394775390625,-17.570602416992188,-19.056110382080078
1738005778785402400,6.55240234375,-35.685821533203125,-17.906463623046875,-19.034299850463867
1738005778795471000,6.56247119140625,-35.906707763671875,-18.15380096435547,-19.360910415649414
1738005778805540400,6.572540283203125,-36.081207275390625,-18.071006774902344,-19.16130828857422
1738005778815609300,6.582609375,-35.885223388671875,-17.976028442382812,-19.05335807800293
1738005778825678000,6.592677978515625,-36.137847900390625,-18.238128662109375,-19.08531379699707
1738005778835747300,6.602747314453125,-36.282745361328125,-18.112701416015625,-19.19955062866211
1738005778845816000,6.612816162109375,-36.687042236328125,-18.470428466796875,-19.09556007385254
1738005778855885300,6.62288525390625,-36.454498291015625,-18.2467041015625,-19.066682815551758
1738005778865954000,6.6329541015625,-35.839569091796875,-18.291526794433594,-18.944894790649414
1738005778876023300,6.643023193359375,-35.929534912109375,-18.176803588867188,-19.167325973510742
1738005778886091300,6.65309130859375,-35.836883544921875,-18.43871307373047,-19.202938079833984
1738005778896160000,6.663159912109375,-36.106170654296875,-18.731369018554688,-19.445858001708984
1738005778906229200,6.673229248046875,-35.904449462890625,-18.482498168945312,-19.48270606994629
1738005778916298200,6.68329833984375,-35.822357177734375,-18.7576904296875,-19.762609481811523
1738005778926367200,6.6933671875,-36.062896728515625,-18.72657012939453,-19.51598358154297
1738005778936436200,6.703436279296875,-36.206146240234375,-18.835968017578125,-19.70552635192871
1738005778946505200,6.713505126953125,-35.997833251953125,-18.7210693359375,-19.815011978149414
1738005778956574200,6.72357421875,-36.246429443359375,-18.89129638671875,-19.878517150878906
1738005778966643200,6.733643310546875,-36.164093017578125,-18.59063720703125,-19.808597564697266
1738005778976712200,6.743712158203125,-35.795440673828125,-18.805335998535156,-19.914100646972656
1738005778986780200,6.7537802734375,-36.159576416015625,-19.165664672851562,-19.983524322509766
1738005778996849400,6.763849365234375,-36.098907470703125,-19.091903686523438,-19.8818302154541
1738005779006918100,6.773918212890625,-36.163360595703125,-19.1116943359375,-19.7032413482666
1738005779016987400,6.7839873046875,-35.957122802734375,-19.05425262451172,-19.82662010192871
1738005779027056000,6.79405615234375,-36.082427978515625,-19.309471130371094,-19.88570785522461
1738005779037125000,6.804125,-36.611358642578125,-19.253097534179688,-19.920196533203125
1738005779047194400,6.8141943359375,-36.414520263671875,-19.612350463867188,-20.038835525512695
1738005779057263000,6.82426318359375,-36.281768798828125,-20.143524169921875,-19.877914428710938
1738005779067332400,6.834332275390625,-35.903717041015625,-20.290931701660156,-19.9169864654541
1738005779077401000,6.844401123046875,-36.350616455078125,-20.423912048339844,-19.89929962158203
1738005779087469000,6.854468994140625,-36.103485107421875,-20.45867156982422,-19.589141845703125
1738005779097538300,6.864538330078125,-35.613372802734375,-20.455665588378906,-19.234277725219727
1738005779107607000,6.87460693359375,-35.194793701171875,-20.822837829589844,-19.240419387817383
1738005779117676300,6.88467626953125,-35.499176025390625,-21.334388732910156,-19.272218704223633
1738005779127745000,6.8947451171875,-35.395599365234375,-21.621841430664062,-19.25613021850586
1738005779137814300,6.904814208984375,-35.044403076171875,-21.85517120361328,-19.00835418701172
1738005779147883300,6.91488330078125,-34.755279541015625,-22.13848114013672,-19.02690887451172
1738005779157952300,6.9249521484375,-35.049957275390625,-22.53630828857422,-19.0877628326416
1738005779168021200,6.935021240234375,-34.907196044921875,-22.63945770263672,-19.161867141723633
1738005779178090000,6.945090087890625,-35.078033447265625,-22.52808380126953,-19.01361846923828
1738005779188158200,6.955158203125,-34.872406005859375,-22.297637939453125,-19.17174530029297
1738005779198227200,6.965227294921875,-35.447662353515625,-21.984130859375,-19.14130973815918
1738005779208296200,6.975296142578125,-35.470367431640625,-21.572731018066406,-19.11574935913086
1738005779218365200,6.985365234375,-35.358978271484375,-21.31488800048828,-18.87006950378418
1738005779228434400,6.995434326171875,-35.969940185546875,-21.291213989257812,-18.557750701904297
1738005779238503200,7.005503173828125,-35.775726318359375,-21.414085388183594,-18.592010498046875
1738005779248572200,7.015572265625,-35.411285400390625,-21.78752899169922,-18.581195831298828
1738005779258641200,7.02564111328125,-35.310089111328125,-22.132980346679688,-18.617481231689453
1738005779268710100,7.035710205078125,-34.598236083984375,-22.67406463623047,-18.237407684326172
1738005779278779400,7.045779296875,-34.369781494140625,-23.16376495361328,-18.40093421936035
1738005779288847000,7.05584716796875,-34.231781005859375,-23.498550415039062,-18.38646697998047
1738005779298916000,7.065916015625,-34.208221435546875,-23.483604431152344,-17.810230255126953
1738005779308985300,7.0759853515625,-34.090301513671875,-23.724876403808594,-17.822139739990234
1738005779319054000,7.08605419921875,-34.373504638671875,-23.850196838378906,-17.609851837158203
1738005779329123300,7.096123291015625,-34.669281005859375,-23.631492614746094,-17.549148559570312
1738005779339192000,7.106192138671875,-34.606170654296875,-23.504051208496094,-17.662349700927734
1738005779349261300,7.11626123046875,-35.011199951171875,-23.417343139648438,-17.70604133605957
1738005779359330300,7.126330322265625,-34.893585205078125,-23.146377563476562,-17.580902099609375
1738005779369399300,7.1363994140625,-35.051971435546875,-22.71448516845703,-17.92339515686035
1738005779379468300,7.14646826171875,-35.215789794921875,-22.786109924316406,-18.264678955078125
1738005779389536300,7.156536376953125,-35.247650146484375,-22.466644287109375,-17.961021423339844
1738005779399605200,7.166605224609375,-35.416778564453125,-22.49500274658203,-18.19546127319336
1738005779409674200,7.17667431640625,-35.537200927734375,-22.305068969726562,-18.276933670043945
1738005779419743200,7.1867431640625,-35.306121826171875,-22.365447998046875,-18.13865089416504
1738005779429812200,7.196812255859375,-35.578826904296875,-22.385398864746094,-18.239784240722656
1738005779439881200,7.206881103515625,-35.231414794921875,-22.63410186767578,-17.87034034729004
1738005779449950200,7.2169501953125,-35.154937744140625,-22.594871520996094,-17.61101722717285
1738005779460019200,7.227019287109375,-35.309539794921875,-22.65496826171875,-17.814311981201172
1738005779470088200,7.237088134765625,-35.237823486328125,-22.645950317382812,-17.58001708984375
1738005779480157200,7.2471572265625,-35.170135498046875,-22.7259521484375,-17.75108528137207
1738005779490225400,7.257225341796875,-35.471221923828125,-22.388755798339844,-17.65591049194336
1738005779500294100,7.267294189453125,-35.278472900390625,-22.250686645507812,-17.595430374145508
1738005779510363100,7.277363037109375,-35.443450927734375,-22.16191864013672,-17.621259689331055
1738005779520432000,7.28743212890625,-36.041900634765625,-22.097145080566406,-17.410324096679688
1738005779530501000,7.297501220703125,-35.908050537109375,-21.924407958984375,-17.41936492919922
1738005779540570400,7.3075703125,-35.748870849609375,-21.70989990234375,-17.679414749145508
1738005779550639000,7.31763916015625,-35.837615966796875,-21.678993225097656,-17.73780632019043
1738005779560708400,7.327708251953125,-36.054351806640625,-21.77758026123047,-17.49289894104004
1738005779570777000,7.337777099609375,-36.204681396484375,-21.705551147460938,-17.492874145507812
1738005779580846300,7.347846435546875,-36.219268798828125,-21.64947509765625,-17.477834701538086
1738005779590915300,7.357915283203125,-36.494049072265625,-21.651382446289062,-17.6870059967041
1738005779600983000,7.367983154296875,-36.331939697265625,-21.42205810546875,-17.485088348388672
1738005779611052300,7.37805224609375,-36.339813232421875,-21.508316040039062,-17.322370529174805
1738005779621121300,7.388121337890625,-36.473175048828125,-21.356674194335938,-17.409385681152344
1738005779631189800,7.398189697265625,-36.755828857421875,-21.06452178955078,-17.3571834564209
1738005779641259000,7.408259033203125,-36.787139892578125,-21.037063598632812,-17.29584503173828
1738005779651327700,7.41832763671875,-36.764373779296875,-20.938865661621094,-17.34381866455078
1738005779661396700,7.428396728515625,-37.269927978515625,-20.920272827148438,-17.298131942749023
1738005779671466000,7.438466064453125,-37.134613037109375,-21.22919464111328,-17.351707458496094
1738005779681534700,7.44853466796875,-37.016387939453125,-20.94024658203125,-17.043001174926758
1738005779691604000,7.45860400390625,-36.859405517578125,-20.736846923828125,-17.225868225097656
1738005779701672000,7.468671875,-36.836456298828125,-20.745742797851562,-17.101205825805664
1738005779711740700,7.47874072265625,-37.224517822265625,-20.57305145263672,-17.025728225708008
1738005779721810000,7.488809814453125,-37.176116943359375,-20.5587158203125,-17.02374267578125
1738005779731878700,7.498878662109375,-37.105499267578125,-20.425048828125,-17.07227897644043
1738005779741948000,7.508947998046875,-37.053009033203125,-20.23907470703125,-17.126262664794922
1738005779752017000,7.519016845703125,-37.345245361328125,-20.134498596191406,-17.228639602661133
1738005779762086000,7.5290859375,-37.509979248046875,-20.075103759765625,-17.66305160522461
1738005779772155000,7.53915478515625,-37.571746826171875,-19.961807250976562,-17.662490844726562
1738005779782224000,7.549223876953125,-37.859161376953125,-19.772674560546875,-17.868118286132812
1738005779792292900,7.55929296875,-38.215301513671875,-19.462913513183594,-18.01816177368164
1738005779802360800,7.56936083984375,-37.825653076171875,-19.396560668945312,-17.90094566345215
1738005779812429800,7.579429931640625,-37.805816650390625,-19.066551208496094,-17.77863121032715
1738005779822498800,7.589498779296875,-37.912017822265625,-19.270401000976562,-17.72001075744629
1738005779832567800,7.59956787109375,-38.196380615234375,-19.060585021972656,-17.5782413482666
1738005779842636800,7.60963671875,-38.380401611328125,-18.876678466796875,-17.56175422668457
1738005779852706000,7.6197060546875,-38.393341064453125,-18.883033752441406,-17.621946334838867
1738005779862774800,7.62977490234375,-38.594512939453125,-18.846282958984375,-17.557165145874023
1738005779872843800,7.63984375,-38.541290283203125,-18.607994079589844,-17.566333770751953
1738005779882912800,7.649912841796875,-38.741241455078125,-18.738197326660156,-17.521448135375977
1738005779892981800,7.659981689453125,-38.936920166015625,-18.443893432617188,-17.879085540771484
1738005779903050000,7.670050048828125,-38.728057861328125,-18.539886474609375,-17.79582405090332
1738005779913118700,7.68011865234375,-38.734527587890625,-18.63532257080078,-17.96784019470215
1738005779923187700,7.690187744140625,-39.022918701171875,-18.58531951904297,-18.162677764892578
1738005779933257000,7.700257080078125,-38.634796142578125,-18.403221130371094,-18.01078224182129
1738005779943325700,7.71032568359375,-38.640167236328125,-18.40381622314453,-18.33625030517578
1738005779953395000,7.72039501953125,-38.577667236328125,-18.372459411621094,-18.084383010864258
1738005779963463700,7.730463623046875,-38.264617919921875,-18.226211547851562,-18.267194747924805
1738005779973533000,7.740532958984375,-38.517913818359375,-17.873382568359375,-18.546146392822266
1738005779983602000,7.750601806640625,-38.859405517578125,-17.775978088378906,-18.318700790405273
1738005779993671000,7.7606708984375,-39.399688720703125,-17.81859588623047,-18.126327514648438
1738005780003739000,7.77073876953125,-38.986846923828125,-17.64398956298828,-18.256961822509766
1738005780013807900,7.780807861328125,-39.179534912109375,-17.201736450195312,-18.44877815246582
1738005780023876900,7.790876953125,-38.998687744140625,-16.960899353027344,-18.408946990966797
1738005780033945900,7.80094580078125,-38.899322509765625,-16.67729949951172,-18.332780838012695
1738005780044014800,7.811014892578125,-38.399139404296875,-16.391754150390625,-18.332128524780273
1738005780054083800,7.821083740234375,-38.572601318359375,-15.962898254394531,-18.452192306518555
1738005780064152800,7.83115283203125,-38.763763427734375,-15.628494262695312,-18.609649658203125
1738005780074221800,7.841221923828125,-38.672393798828125,-15.868743896484375,-18.455955505371094
1738005780084290800,7.851290771484375,-38.618011474609375,-15.597908020019531,-18.813833236694336
1738005780094359000,7.861359130859375,-38.497222900390625,-15.336090087890625,-18.82120132446289
1738005780104427800,7.871427734375,-38.644500732421875,-14.982826232910156,-18.870094299316406
1738005780114497000,7.8814970703125,-38.929473876953125,-14.584083557128906,-19.341968536376953
1738005780124565800,7.891565673828125,-38.599578857421875,-14.143974304199219,-19.45249366760254
1738005780134634800,7.901634765625,-38.500518798828125,-14.101516723632812,-19.45722770690918
1738005780144703700,7.911703857421875,-38.329376220703125,-13.612640380859375,-19.42092514038086
1738005780154772700,7.921772705078125,-38.581695556640625,-13.4932861328125,-19.390289306640625
1738005780164842000,7.931842041015625,-38.510406494140625,-13.301261901855469,-19.610763549804688
1738005780174910700,7.94191064453125,-38.692596435546875,-12.690399169921875,-19.67673110961914
1738005780184980000,7.95197998046875,-38.365203857421875,-12.542793273925781,-19.731443405151367
1738005780195048000,7.9620478515625,-38.574432373046875,-12.204490661621094,-19.90038299560547
1738005780205116700,7.97211669921875,-39.008880615234375,-11.616668701171875,-19.946632385253906
1738005780215186000,7.98218603515625,-38.732208251953125,-11.315727233886719,-19.86644172668457
1738005780225254700,7.992254638671875,-39.055450439453125,-10.934425354003906,-19.97491455078125
1738005780235324000,8.002323974609375,-38.805938720703125,-10.545669555664062,-20.08635902404785
1738005780245393000,8.012392822265625,-38.914154052734375,-10.333549499511719,-20.421268463134766
1738005780255462000,8.0224619140625,-38.611236572265625,-10.089004516601562,-20.52960968017578
1738005780265531000,8.03253076171875,-39.094329833984375,-9.689949035644531,-20.42205238342285
1738005780275599600,8.042599609375,-39.161773681640625,-9.447433471679688,-20.51658058166504
1738005780285667800,8.052667724609375,-38.810699462890625,-8.955429077148438,-20.243501663208008
1738005780295736800,8.06273681640625,-38.790069580078125,-8.420799255371094,-20.383140563964844
1738005780305805800,8.072805908203126,-38.649810791015625,-7.540489196777344,-20.132478713989258
1738005780315874800,8.082874755859375,-39.088165283203125,-7.225425720214844,-20.200258255004883
1738005780325944000,8.092944091796875,-38.889556884765625,-7.0636138916015625,-20.38642120361328
1738005780336012800,8.1030126953125,-38.420013427734375,-6.9596099853515625,-20.18331527709961
1738005780346081800,8.113081787109374,-39.054351806640625,-6.449180603027344,-20.20758819580078
1738005780356150800,8.12315087890625,-38.867218017578125,-6.151725769042969,-20.356075286865234
1738005780366219800,8.1332197265625,-38.582489013671875,-5.670379638671875,-20.179035186767578
1738005780376288800,8.143288818359375,-38.759735107421875,-5.316184997558594,-19.99173927307129
1738005780386356700,8.153356689453124,-39.036590576171875,-4.957466125488281,-20.10390853881836
1738005780396425700,8.16342578125,-38.534881591796875,-4.7046051025390625,-20.208948135375977
1738005780406495000,8.173494873046875,-38.901092529296875,-4.361930847167969,-20.141647338867188
1738005780416563700,8.183563720703125,-39.230499267578125,-3.9722213745117188,-20.305641174316406
1738005780426633000,8.193633056640625,-38.940155029296875,-3.34033203125,-20.467304229736328
1738005780436701700,8.20370166015625,-38.595794677734375,-2.9884872436523438,-20.271209716796875
1738005780446771000,8.21377099609375,-38.658172607421875,-2.51397705078125,-20.386966705322266
1738005780456839700,8.223839599609375,-38.530303955078125,-2.1977310180664062,-20.703771591186523
1738005780466909000,8.233908935546875,-38.606414794921875,-1.78289794921875,-20.962425231933594
1738005780476977000,8.243976806640624,-38.612213134765625,-1.7269668579101562,-20.964420318603516
1738005780487046000,8.2540458984375,-38.871856689453125,-1.43572998046875,-20.90109634399414
1738005780497115000,8.264114990234376,-38.645538330078125,-1.3922958374023438,-21.193470001220703
1738005780507183900,8.274183837890625,-38.390777587890625,-1.0051116943359375,-20.893455505371094
1738005780517252900,8.2842529296875,-38.332122802734375,-0.47182464599609375,-21.28362274169922
1738005780527321900,8.29432177734375,-38.518157958984375,-0.25737762451171875,-21.092689514160156
1738005780537390800,8.304390869140626,-38.518585205078125,0.0227203369140625,-20.97810173034668
1738005780547459800,8.3144599609375,-38.625030517578125,0.44951629638671875,-21.013813018798828
1738005780557528800,8.32452880859375,-38.315643310546875,0.436126708984375,-20.963993072509766
1738005780567597800,8.334597900390625,-38.271942138671875,1.3291854858398438,-20.77083396911621
1738005780577665800,8.344665771484374,-38.380767822265625,1.4009780883789062,-20.761608123779297
1738005780587735000,8.354735107421876,-38.671600341796875,1.786834716796875,-20.67536735534668
1738005780597803800,8.3648037109375,-38.626129150390625,2.4283981323242188,-20.398334503173828
1738005780607872800,8.374872802734375,-38.215911865234375,2.3410110473632812,-20.415647506713867
1738005780617941800,8.384941650390624,-38.494354248046875,2.76654052734375,-20.420324325561523
1738005780628010800,8.3950107421875,-38.536163330078125,3.0541305541992188,-20.52225685119629
1738005780638083600,8.40508349609375,-38.121612548828125,3.1131591796875,-20.252824783325195
1738005780648152600,8.415152587890624,-37.831329345703125,3.3993453979492188,-20.409820556640625
1738005780658221600,8.4252216796875,-38.206329345703125,3.5350265502929688,-20.52816390991211
1738005780668289500,8.43528955078125,-37.932037353515625,3.337890625,-20.5194149017334
1738005780678358500,8.445358642578125,-37.922698974609375,3.7295684814453125,-20.587257385253906
1738005780688427500,8.455427490234374,-37.820098876953125,3.8540115356445312,-20.68784523010254
1738005780698496500,8.46549658203125,-37.726348876953125,4.101188659667969,-20.703462600708008
1738005780708565500,8.4755654296875,-38.037322998046875,4.4029693603515625,-20.680736541748047
1738005780718634500,8.485634521484375,-37.449493408203125,4.5418853759765625,-20.817203521728516
1738005780728703500,8.495703369140625,-37.556976318359375,4.534942626953125,-20.654172897338867
1738005780738772500,8.5057724609375,-37.385406494140625,4.673377990722656,-20.716703414916992
1738005780748841500,8.515841552734376,-37.280548095703125,4.755561828613281,-20.896493911743164
1738005780758909400,8.525909423828125,-37.717193603515625,5.045616149902344,-21.018104553222656
1738005780768978700,8.535978759765625,-37.422088623046875,5.17474365234375,-20.991477966308594
1738005780779047400,8.54604736328125,-37.536834716796875,5.311805725097656,-21.133056640625
1738005780789116700,8.55611669921875,-37.406768798828125,5.2364654541015625,-20.9381103515625
1738005780799185400,8.566185302734375,-37.267120361328125,5.182563781738281,-20.921924591064453
1738005780809254400,8.57625439453125,-37.510711669921875,5.096748352050781,-21.26137924194336
1738005780819323600,8.58632373046875,-37.454010009765625,5.2429962158203125,-21.22463035583496
1738005780829392400,8.596392333984374,-37.601959228515625,5.209197998046875,-21.161895751953125
1738005780839461600,8.606461669921876,-37.381134033203125,5.200798034667969,-21.404850006103516
1738005780849529600,8.616529541015625,-37.257598876953125,5.116477966308594,-21.332979202270508
1738005780859598300,8.626598388671875,-37.492401123046875,5.166633605957031,-21.09554672241211
1738005780869667600,8.63666748046875,-37.423004150390625,4.8486785888671875,-21.273386001586914
1738005780879736300,8.646736328125,-37.593170166015625,4.8908233642578125,-20.99480628967285
1738005780889805600,8.6568056640625,-37.451141357421875,4.7918701171875,-21.2114200592041
1738005780899874600,8.66687451171875,-37.572967529296875,4.732627868652344,-21.079267501831055
1738005780909943600,8.676943603515625,-37.306182861328125,4.451591491699219,-21.193115234375
1738005780920012500,8.687012451171874,-36.915496826171875,4.5294036865234375,-20.980539321899414
1738005780930081500,8.69708154296875,-36.882904052734375,4.5093841552734375,-21.171554565429688
1738005780940149500,8.7071494140625,-36.831207275390625,4.495819091796875,-21.07276725769043
1738005780950218500,8.717218505859375,-36.782928466796875,4.5093994140625,-20.982267379760742
1738005780960287500,8.72728759765625,-36.697174072265625,4.23931884765625,-20.9434871673584
1738005780970356500,8.7373564453125,-36.691131591796875,4.291084289550781,-21.013141632080078
1738005780980425500,8.747425537109375,-36.620452880859375,4.3608551025390625,-21.18088722229004
1738005780990494500,8.757494384765625,-36.691864013671875,4.20458984375,-21.37641143798828
1738005781000563700,8.767563720703125,-37.072723388671875,4.2557525634765625,-21.13686752319336
1738005781010632400,8.777632568359374,-36.440582275390625,4.1553802490234375,-21.142417907714844
1738005781020701400,8.787701416015626,-36.825958251953125,4.2686767578125,-21.65325164794922
1738005781030769700,8.797769775390625,-36.862213134765625,3.9906997680664062,-21.986852645874023
1738005781040838400,8.80783837890625,-36.494964599609375,4.0398712158203125,-21.821496963500977
1738005781050907600,8.81790771484375,-36.413726806640625,3.884490966796875,-21.952287673950195
1738005781060976400,8.827976318359376,-36.516021728515625,3.6725006103515625,-21.884403228759766
1738005781071045400,8.83804541015625,-36.329559326171875,4.113990783691406,-21.75104331970215
1738005781081114600,8.848114501953125,-35.981353759765625,3.9887466430664062,-21.990102767944336
1738005781091183400,8.858183349609375,-35.890533447265625,4.01751708984375,-21.876270294189453
1738005781101252600,8.868252685546874,-36.104278564453125,3.9076004028320312,-21.86763572692871
1738005781111320600,8.878320556640626,-36.370086669921875,4.10601806640625,-21.895240783691406
1738005781121389300,8.888389404296875,-36.200347900390625,3.8855056762695312,-21.697790145874023
1738005781131458600,8.89845849609375,-36.548248291015625,3.909515380859375,-21.68014907836914
1738005781141527300,8.90852734375,-36.438507080078125,4.107643127441406,-21.831106185913086
1738005781151596500,8.918596435546876,-36.427093505859375,4.183723449707031,-21.845088958740234
1738005781161665500,8.92866552734375,-36.116912841796875,4.3829803466796875,-21.80702018737793
1738005781171734500,8.938734619140625,-36.065216064453125,4.5377655029296875,-21.947830200195312
1738005781181803500,8.948803466796875,-36.222076416015625,4.372474670410156,-21.7785587310791
1738005781191872500,8.95887255859375,-35.727569580078125,4.6847991943359375,-21.651885986328125
1738005781201940500,8.9689404296875,-36.165679931640625,4.3931884765625,-21.700029373168945
1738005781212009500,8.979009521484375,-35.865936279296875,4.5631103515625,-21.483577728271484
1738005781222078500,8.989078369140625,-36.090179443359375,4.607429504394531,-21.479686737060547
1738005781232147500,8.9991474609375,-36.118377685546875,5.079582214355469,-21.330448150634766
1738005781242216700,9.009216796875,-35.994720458984375,5.172874450683594,-21.35233497619629
1738005781252285400,9.019285400390626,-35.640838623046875,4.856231689453125,-21.25592041015625
1738005781262354700,9.029354736328125,-35.745697021484375,5.126007080078125,-21.036272048950195
1738005781272423400,9.03942333984375,-35.474334716796875,5.498809814453125,-21.012006759643555
1738005781282491400,9.049491455078124,-36.129791259765625,5.358772277832031,-21.078128814697266
1738005781292560600,9.059560546875,-36.125518798828125,5.5435638427734375,-21.091501235961914
1738005781302629400,9.06962939453125,-35.937347412109375,5.651893615722656,-20.61229705810547
1738005781312698600,9.07969873046875,-36.234344482421875,6.080802917480469,-20.413677215576172
1738005781322767600,9.089767578125,-35.660552978515625,6.164131164550781,-20.393903732299805
1738005781332836400,9.09983642578125,-35.581024169921875,6.219108581542969,-20.14179229736328
1738005781342905600,9.109905517578126,-35.663970947265625,6.493858337402344,-20.027280807495117
1738005781352974300,9.119974365234375,-35.739959716796875,6.592903137207031,-19.862323760986328
1738005781363043600,9.130043701171875,-35.802154541015625,6.7705230712890625,-19.831159591674805
1738005781373111600,9.140111572265624,-36.089752197265625,6.5883026123046875,-19.6055965423584
1738005781383180500,9.1501806640625,-35.958343505859375,7.1974334716796875,-19.023405075073242
1738005781393249500,9.16024951171875,-35.981109619140625,7.320732116699219,-19.070316314697266
1738005781403318500,9.170318603515625,-35.958282470703125,7.145698547363281,-18.807371139526367
1738005781413387500,9.180387451171875,-36.108306884765625,7.1229248046875,-18.80937385559082
1738005781423456500,9.19045654296875,-35.886260986328125,7.411445617675781,-18.584997177124023
1738005781433525500,9.200525390625,-35.976654052734375,7.9167327880859375,-18.279457092285156
1738005781443594500,9.210594482421875,-35.975006103515625,8.163764953613281,-18.11383819580078
1738005781453663500,9.22066357421875,-35.703643798828125,8.510910034179688,-18.429536819458008
1738005781463731500,9.2307314453125,-36.139434814453125,8.98297119140625,-18.24822425842285
1738005781473800400,9.240800537109376,-36.072479248046875,9.356307983398438,-18.35533905029297
1738005781483869400,9.250869384765625,-35.576629638671875,9.698150634765625,-18.511980056762695
1738005781493938400,9.2609384765625,-35.448272705078125,9.980743408203125,-18.703962326049805
1738005781504007700,9.271007568359375,-35.368255615234375,10.200752258300781,-18.598846435546875
1738005781514076400,9.281076416015624,-35.627899169921875,9.87066650390625,-18.745515823364258
1738005781524145700,9.291145751953126,-35.357086181640625,10.065574645996094,-18.528366088867188
1738005781534214400,9.30121435546875,-35.303009033203125,9.759727478027344,-18.547624588012695
1738005781544282400,9.311282470703125,-35.802276611328125,9.466865539550781,-18.161996841430664
1738005781554351600,9.3213515625,-36.461639404296875,9.108917236328125,-18.11685562133789
1738005781564420400,9.33142041015625,-36.219940185546875,8.964981079101562,-17.81804084777832
1738005781574489600,9.341489501953125,-36.324798583984375,8.824317932128906,-17.490158081054688
1738005781584558600,9.35155859375,-36.787872314453125,8.5032958984375,-17.254343032836914
1738005781594627600,9.361627685546875,-36.746673583984375,8.276191711425781,-17.370311737060547
1738005781604696600,9.371696533203124,-37.190093994140625,8.34307861328125,-17.317014694213867
1738005781614765300,9.381765380859376,-36.719879150390625,8.111724853515625,-17.05023193359375
1738005781624834600,9.39183447265625,-36.765167236328125,8.108360290527344,-16.961957931518555
1738005781634902300,9.40190234375,-36.678558349609375,8.234016418457031,-17.0115966796875
1738005781644971000,9.411970947265624,-36.629669189453125,8.298004150390625,-17.450368881225586
1738005781655040000,9.4220400390625,-36.316497802734375,8.256095886230469,-17.05293846130371
1738005781665109200,9.432109130859375,-36.181243896484375,8.11810302734375,-17.14126968383789
1738005781675178000,9.442177978515625,-36.625579833984375,7.873924255371094,-17.44078254699707
1738005781685247200,9.452247314453125,-36.668182373046875,7.928489685058594,-17.520984649658203
1738005781695316000,9.46231591796875,-36.538909912109375,7.831626892089844,-17.535480499267578
1738005781705385200,9.47238525390625,-36.254547119140625,7.553565979003906,-17.353805541992188
1738005781715453200,9.482453125,-36.265228271484375,7.423057556152344,-17.284164428710938
1738005781725522000,9.49252197265625,-36.555572509765625,7.33367919921875,-17.333911895751953
1738005781735591200,9.502591064453124,-36.638946533203125,7.4104766845703125,-17.414854049682617
1738005781745660200,9.51266015625,-36.322967529296875,7.23638916015625,-17.73309326171875
1738005781755729200,9.522729248046875,-36.383575439453125,7.2158966064453125,-17.553102493286133
1738005781765798100,9.532798095703125,-36.690216064453125,6.976325988769531,-17.4534854888916
1738005781775867100,9.5428671875,-36.394317626953125,6.6589813232421875,-17.461166381835938
1738005781785936100,9.55293603515625,-36.616241455078125,6.848419189453125,-17.866403579711914
1738005781796004000,9.563004150390626,-36.758697509765625,6.712348937988281,-18.095821380615234
1738005781806073000,9.573072998046875,-36.527435302734375,6.452812194824219,-18.221513748168945
1738005781816142000,9.58314208984375,-36.555999755859375,6.569541931152344,-18.203994750976562
1738005781826211300,9.59321142578125,-36.532440185546875,6.303436279296875,-18.25211524963379
1738005781836280000,9.603280029296876,-36.720062255859375,6.215385437011719,-18.48941421508789
1738005781846349300,9.613349365234376,-36.641754150390625,6.4088134765625,-18.302379608154297
1738005781856418000,9.62341796875,-36.550079345703125,6.295135498046875,-18.08517837524414
1738005781866487000,9.633487060546875,-36.266937255859375,6.254585266113281,-17.942768096923828
1738005781876556000,9.64355615234375,-36.509368896484375,6.258140563964844,-17.801427841186523
1738005781886624000,9.6536240234375,-36.878509521484375,6.220802307128906,-17.70376205444336
1738005781896693200,9.663693359375,-36.580963134765625,6.314117431640625,-17.308969497680664
1738005781906762200,9.67376220703125,-36.864654541015625,6.35223388671875,-17.39724349975586
1738005781916831000,9.6838310546875,-36.779083251953125,6.4517059326171875,-17.55091667175293
1738005781926900200,9.693900146484374,-36.622650146484375,6.404449462890625,-17.485523223876953
1738005781936969000,9.703968994140626,-36.977752685546875,6.378807067871094,-17.530235290527344
1738005781947038200,9.7140380859375,-37.071746826171875,6.247428894042969,-17.401872634887695
1738005781957107000,9.72410693359375,-36.956939697265625,6.237907409667969,-17.222557067871094
1738005781967176200,9.73417626953125,-36.883087158203125,6.324615478515625,-17.12312126159668
1738005781977244200,9.744244140625,-37.147552490234375,6.148307800292969,-17.111587524414062
1738005781987313200,9.754313232421875,-37.124359130859375,6.045318603515625,-17.109516143798828
1738005781997382100,9.764382080078125,-37.004180908203125,5.900726318359375,-17.296310424804688
1738005782007451100,9.774451171875,-37.248504638671875,6.084037780761719,-17.24643898010254
1738005782017520000,9.78452001953125,-37.377777099609375,5.9219970703125,-17.0026912689209
1738005782027589000,9.794589111328126,-37.889495849609375,6.205558776855469,-17.267915725708008
1738005782037658000,9.804658203125,-37.828704833984375,6.276924133300781,-17.332311630249023
1738005782047727000,9.81472705078125,-37.343902587890625,6.468284606933594,-17.153833389282227
1738005782057795000,9.824795166015624,-37.290740966796875,6.370536804199219,-17.225875854492188
1738005782067864000,9.834864013671876,-37.084320068359375,6.5924530029296875,-17.095781326293945
1738005782077933000,9.84493310546875,-37.252838134765625,6.745048522949219,-17.183568954467773
1738005782088002300,9.855002197265625,-37.043853759765625,6.715965270996094,-17.309341430664062
1738005782098071000,9.865071044921875,-36.844207763671875,6.825531005859375,-17.264633178710938
1738005782108140300,9.875140380859374,-37.172698974609375,6.87408447265625,-17.292591094970703
1738005782118209000,9.885208984375,-37.387847900390625,7.13397216796875,-17.15583610534668
1738005782128278000,9.895278076171875,-37.249359130859375,7.044776916503906,-16.983247756958008
1738005782138346200,9.90534619140625,-37.171295166015625,7.073860168457031,-17.060535430908203
1738005782148415000,9.9154150390625,-37.372772216796875,7.194419860839844,-17.0100154876709
1738005782158484200,9.925484130859376,-37.516632080078125,7.390693664550781,-17.017230987548828
1738005782168553200,9.93555322265625,-37.482757568359375,7.346961975097656,-16.740358352661133
1738005782178622200,9.945622314453125,-37.408294677734375,7.305061340332031,-16.856483459472656
1738005782188691200,9.955691162109375,-37.599945068359375,7.075645446777344,-16.63387107849121
1738005782198760000,9.965760009765624,-37.578094482421875,6.9139404296875,-16.493141174316406
1738005782208829200,9.9758291015625,-37.606170654296875,6.9390716552734375,-16.50307273864746
1738005782218898200,9.985898193359375,-37.851226806640625,6.777549743652344,-16.022539138793945
1738005782228966100,9.995966064453125,-38.149993896484375,6.695793151855469,-16.246646881103516
1738005782239035100,10.00603515625,-37.895721435546875,6.342735290527344,-16.342140197753906
1738005782249104100,10.016104248046876,-37.691314697265625,6.59210205078125,-16.35719108581543
1738005782259173000,10.026173095703125,-37.575286865234375,6.520179748535156,-16.205278396606445
1738005782269242000,10.0362421875,-37.678009033203125,6.692863464355469,-16.480024337768555
1738005782279311000,10.04631103515625,-37.695098876953125,6.711784362792969,-16.60578155517578
1738005782289380000,10.056380126953124,-37.772674560546875,6.9613189697265625,-16.8078670501709
1738005782299449000,10.066448974609376,-37.428924560546875,7.34466552734375,-16.747894287109375
1738005782309517000,10.07651708984375,-37.145233154296875,7.2096099853515625,-16.520517349243164
1738005782319586000,10.0865859375,-37.292755126953125,7.490081787109375,-16.544069290161133
1738005782329655300,10.0966552734375,-38.239105224609375,7.350196838378906,-16.473913192749023
1738005782339724000,10.10672412109375,-38.124114990234375,7.287513732910156,-16.533437728881836
1738005782349793300,10.116793212890625,-38.116058349609375,6.862556457519531,-16.0994930267334
1738005782359862000,10.126862060546875,-38.487396240234375,6.4232940673828125,-15.849536895751953
1738005782369931300,10.13693115234375,-38.711761474609375,6.3134002685546875,-15.725685119628906
1738005782380000000,10.147,-38.566986083984375,5.9756927490234375,-15.953401565551758
1738005782390069200,10.1570693359375,-39.034149169921875,5.4164886474609375,-16.071819305419922
1738005782400137200,10.16713720703125,-38.765045166015625,4.85467529296875,-15.862457275390625
1738005782410206000,10.1772060546875,-38.580963134765625,4.4981689453125,-15.84872817993164
1738005782420275200,10.187275146484374,-38.855194091796875,4.342597961425781,-15.83010482788086
1738005782430344200,10.19734423828125,-38.861846923828125,4.123741149902344,-15.991722106933594
1738005782440413200,10.2074130859375,-38.683380126953125,4.1509857177734375,-16.21558380126953
1738005782450482200,10.217482177734375,-38.840179443359375,4.1421356201171875,-16.078018188476562
1738005782460551000,10.227551025390625,-39.189361572265625,4.114013671875,-16.407434463500977
1738005782470620200,10.2376201171875,-38.804534912109375,4.304679870605469,-16.780942916870117
1738005782480688000,10.247688232421876,-38.894805908203125,4.277732849121094,-16.85981559753418
1738005782490757000,10.257757080078125,-38.894500732421875,4.143035888671875,-17.01894187927246
1738005782500826000,10.267826171875,-38.963775634765625,4.168067932128906,-16.956872940063477
1738005782510895000,10.27789501953125,-38.923492431640625,4.163978576660156,-17.048715591430664
1738005782520964000,10.287964111328124,-38.767364501953125,4.100181579589844,-16.800416946411133
1738005782531033000,10.298033203125,-38.814544677734375,4.029014587402344,-16.79442596435547
1738005782541102000,10.30810205078125,-39.007476806640625,3.816558837890625,-16.728666305541992
1738005782551171000,10.318171142578125,-39.125091552734375,3.4872207641601562,-16.9307804107666
1738005782561239300,10.3282392578125,-39.133392333984375,3.4850006103515625,-17.017623901367188
1738005782571308000,10.33830810546875,-39.287200927734375,3.5160446166992188,-17.164260864257812
1738005782581377000,10.348376953125,-39.197784423828125,3.07635498046875,-17.47020721435547
1738005782591446300,10.3584462890625,-39.341766357421875,2.8172454833984375,-17.337007522583008
1738005782601515000,10.368514892578125,-39.268341064453125,2.5185394287109375,-17.287626266479492
1738005782611584300,10.378584228515624,-39.049774169921875,2.6818008422851562,-17.34827995300293
1738005782621653000,10.388653076171876,-38.962738037109375,2.585235595703125,-17.145803451538086
1738005782631722200,10.39872216796875,-39.224945068359375,2.1944503784179688,-17.441003799438477
1738005782641787100,10.408787109375,-39.239105224609375,2.03985595703125,-17.569000244140625
1738005782651856100,10.418856201171875,-39.526580810546875,1.948699951171875,-17.55709457397461
1738005782661925000,10.428925048828125,-39.647674560546875,1.6438140869140625,-17.5106201171875
1738005782671994000,10.438994140625,-39.887603759765625,1.19818115234375,-17.53174591064453
1738005782682063000,10.44906298828125,-39.607818603515625,1.3332901000976562,-17.863555908203125
1738005782692132400,10.45913232421875,-39.472686767578125,1.0829620361328125,-18.066247940063477
1738005782702201000,10.469201171875,-39.770355224609375,0.989959716796875,-17.938385009765625
1738005782712270000,10.47927001953125,-40.092620849609375,1.0643310546875,-18.050037384033203
1738005782722339000,10.489339111328125,-39.932952880859375,0.7865753173828125,-18.114408493041992
1738005782732407000,10.499406982421876,-39.915618896484375,0.5536270141601562,-18.172399520874023
1738005782742476300,10.509476318359376,-40.270416259765625,0.7346954345703125,-18.22258949279785
1738005782752545000,10.519544921875,-40.024322509765625,0.7568130493164062,-18.247844696044922
1738005782762614000,10.529614013671875,-40.235931396484375,0.8231658935546875,-18.21001625061035
1738005782772683300,10.539683349609374,-40.247650146484375,0.7647018432617188,-18.18631362915039
1738005782782752000,10.549751953125,-40.191131591796875,0.5895919799804688,-18.179567337036133
1738005782792821200,10.5598212890625,-40.423492431640625,0.8072052001953125,-18.27897071838379
1738005782802890000,10.569889892578125,-40.450714111328125,0.6836929321289062,-18.1387939453125
1738005782812958200,10.579958251953125,-40.532684326171875,0.7604141235351562,-17.722341537475586
1738005782823027200,10.590027099609374,-40.478729248046875,0.79425048828125,-17.898710250854492
1738005782833096000,10.600095947265626,-40.320281982421875,0.531219482421875,-17.838600158691406
1738005782843165200,10.610165283203125,-40.425018310546875,0.42618560791015625,-17.80725860595703
1738005782853234200,10.620234130859375,-40.434967041015625,0.30748748779296875,-18.06646728515625
1738005782863303200,10.63030322265625,-40.455352783203125,0.64727783203125,-18.032827377319336
1738005782873372200,10.6403720703125,-40.673919677734375,0.3631744384765625,-18.153818130493164
1738005782883441200,10.650441162109376,-40.880889892578125,0.20142364501953125,-17.882978439331055
1738005782893509000,10.660509033203125,-40.441314697265625,0.335052490234375,-18.06001853942871
1738005782903578000,10.670578125,-40.808135986328125,0.106414794921875,-17.960365295410156
1738005782913647000,10.680647216796874,-40.387725830078125,0.272003173828125,-18.07219696044922
1738005782923716000,10.690716064453126,-40.466827392578125,0.26491546630859375,-18.311614990234375
1738005782933785000,10.70078515625,-40.701995849609375,0.41623687744140625,-18.417142868041992
1738005782943854000,10.71085400390625,-40.564361572265625,0.37641143798828125,-18.503623962402344
1738005782953923300,10.72092333984375,-40.725433349609375,0.23644256591796875,-18.604463577270508
1738005782963992000,10.730991943359374,-40.431243896484375,0.23242950439453125,-18.853164672851562
1738005782974060000,10.74106005859375,-40.434417724609375,0.0694732666015625,-18.843299865722656
1738005782984129300,10.75112939453125,-40.031280517578125,0.2333221435546875,-18.925472259521484
1738005782994198000,10.761197998046875,-40.467742919921875,-0.14926910400390625,-19.08814811706543
1738005783004267300,10.771267333984374,-40.498443603515625,-0.1414947509765625,-19.49749183654785
1738005783014336000,10.7813359375,-40.316314697265625,-0.5396041870117188,-19.856809616088867
1738005783024405200,10.7914052734375,-40.377838134765625,-1.0013809204101562,-19.734905242919922
1738005783034474200,10.80147412109375,-40.093658447265625,-1.5497207641601562,-19.793476104736328
1738005783044543000,10.81154296875,-39.935821533203125,-2.0868682861328125,-19.67449188232422
1738005783054611200,10.821611083984376,-40.122894287109375,-2.5282363891601562,-19.54548454284668
1738005783064680200,10.83168017578125,-40.085968017578125,-2.8868026733398438,-19.3608341217041
1738005783074749200,10.841749267578125,-40.322174072265625,-3.4194793701171875,-19.202396392822266
1738005783084818200,10.851818115234375,-40.553192138671875,-3.8554458618164062,-18.83953857421875
1738005783094887000,10.861886962890624,-40.594512939453125,-4.141868591308594,-18.59194564819336
1738005783104956200,10.8719560546875,-40.747894287109375,-4.438377380371094,-18.42486000061035
1738005783115025200,10.882025146484375,-41.163116455078125,-4.819328308105469,-18.248476028442383
1738005783125094100,10.89209423828125,-41.109039306640625,-5.127555847167969,-18.247844696044922
1738005783135162000,10.902162109375,-41.132110595703125,-5.094886779785156,-18.162912368774414
1738005783145231400,10.9122314453125,-41.085784912109375,-5.25067138671875,-18.033794403076172
1738005783155300000,10.922300048828125,-40.862274169921875,-5.4976806640625,-18.147872924804688
1738005783165369000,10.932369140625,-40.626373291015625,-6.027381896972656,-17.87129783630371
1738005783175438000,10.94243798828125,-40.526092529296875,-6.378936767578125,-18.04511260986328
1738005783185507000,10.952507080078124,-40.353118896484375,-6.804496765136719,-18.142536163330078
1738005783195576000,10.962576171875,-40.246429443359375,-7.374198913574219,-18.113040924072266
1738005783205645000,10.97264501953125,-40.178863525390625,-8.182159423828125,-18.084571838378906
1738005783215713000,10.982713134765625,-40.017364501953125,-8.540237426757812,-18.08882713317871
1738005783225782300,10.9927822265625,-39.953155517578125,-9.295066833496094,-18.583473205566406
1738005783235851000,11.00285107421875,-40.149261474609375,-9.971633911132812,-18.51465606689453
1738005783245920300,11.012920166015626,-39.841033935546875,-10.205833435058594,-18.419313430786133
1738005783255989000,11.022989013671875,-39.407623291015625,-10.729377746582031,-18.34358024597168
1738005783266058200,11.033058349609375,-39.415191650390625,-11.151527404785156,-18.493045806884766
1738005783276127000,11.043126953125,-39.515411376953125,-11.436309814453125,-18.761720657348633
1738005783286196200,11.0531962890625,-39.237396240234375,-11.943092346191406,-18.74703025817871
1738005783296264200,11.06326416015625,-38.692291259765625,-12.270225524902344,-18.915626525878906
1738005783306333200,11.073333251953125,-38.847320556640625,-12.48529052734375,-18.839506149291992
1738005783316402200,11.083402099609375,-38.757781982421875,-12.733070373535156,-18.978580474853516
1738005783326471200,11.09347119140625,-39.115325927734375,-13.043807983398438,-18.823213577270508
1738005783336540200,11.1035400390625,-38.826873779296875,-13.202178955078125,-18.68152618408203
1738005783346609200,11.113609130859375,-38.999542236328125,-13.417976379394531,-18.564416885375977
1738005783356678100,11.12367822265625,-38.894500732421875,-13.958236694335938,-18.427274703979492
1738005783366746000,11.13374609375,-38.675262451171875,-14.181838989257812,-18.398122787475586
1738005783376815000,11.143815185546876,-38.651763916015625,-14.58709716796875,-18.020811080932617
1738005783386884000,11.153884033203125,-38.600555419921875,-14.955741882324219,-18.08047103881836
1738005783396953000,11.163953125,-38.597137451171875,-15.402626037597656,-18.03362464904785
1738005783407022300,11.174022216796875,-38.403533935546875,-15.756050109863281,-17.830965042114258
1738005783417091000,11.184091064453124,-38.245941162109375,-16.21160888671875,-17.659814834594727
1738005783427160000,11.19416015625,-38.245330810546875,-16.583786010742188,-17.733516693115234
1738005783437229000,11.20422900390625,-38.070404052734375,-16.78607177734375,-17.616165161132812
1738005783447297000,11.214297119140625,-38.036224365234375,-17.492103576660156,-17.399234771728516
1738005783457366300,11.2243662109375,-37.953033447265625,-17.618759155273438,-17.03449821472168
1738005783467435000,11.23443505859375,-37.953155517578125,-17.906944274902344,-17.236360549926758
1738005783477504000,11.24450390625,-37.944671630859375,-18.455650329589844,-17.183473587036133
1738005783487573200,11.2545732421875,-37.545867919921875,-18.99468994140625,-16.93389129638672
1738005783497642000,11.26464208984375,-37.340484619140625,-19.187606811523438,-16.738624572753906
1738005783507711200,11.274711181640624,-37.597869873046875,-19.539382934570312,-16.872026443481445
1738005783517780000,11.284780029296876,-37.315826416015625,-19.64954376220703,-16.48392105102539
1738005783527848200,11.29484814453125,-37.178253173828125,-19.973472595214844,-16.687143325805664
1738005783537917200,11.304917236328125,-37.318328857421875,-20.366844177246094,-16.452699661254883
1738005783547986000,11.31498583984375,-37.142181396484375,-20.56993865966797,-16.275066375732422
1738005783558055200,11.32505517578125,-37.389007568359375,-20.552230834960938,-15.775447845458984
1738005783568124200,11.335124267578125,-37.135955810546875,-20.712257385253906,-15.844125747680664
1738005783578193200,11.345193115234375,-37.034454345703125,-20.70653533935547,-15.554008483886719
1738005783588262100,11.35526220703125,-36.799041748046875,-20.961044311523438,-15.592374801635742
1738005783598330000,11.365330078125,-36.959869384765625,-21.12487030029297,-15.311969757080078
1738005783608399000,11.375399169921875,-37.334014892578125,-21.26306915283203,-15.373863220214844
1738005783618468000,11.385468017578125,-37.112274169921875,-21.498817443847656,-15.341255187988281
1738005783628537000,11.395537109375,-37.068878173828125,-21.56330108642578,-15.400012969970703
1738005783638605600,11.40560546875,-36.994354248046875,-21.752113342285156,-15.266544342041016
1738005783648674800,11.4156748046875,-37.042694091796875,-21.775291442871094,-15.348011016845703
1738005783658743600,11.42574365234375,-37.138336181640625,-21.919631958007812,-15.29550552368164
1738005783668812800,11.435812744140625,-37.079620361328125,-22.266159057617188,-15.276031494140625
1738005783678880800,11.445880859375,-36.620330810546875,-22.47126007080078,-15.318836212158203
1738005783688949800,11.45594970703125,-36.593231201171875,-22.741798400878906,-15.195737838745117
1738005783699018800,11.466018798828125,-36.814117431640625,-22.39153289794922,-15.070011138916016
1738005783709087500,11.47608740234375,-36.645904541015625,-22.51239776611328,-15.285831451416016
1738005783719156700,11.48615673828125,-36.253204345703125,-22.37042236328125,-15.599109649658203
1738005783729225700,11.496225830078124,-36.246368408203125,-22.40715789794922,-15.60871696472168
1738005783739294700,11.506294677734376,-36.554229736328125,-22.228782653808594,-15.727455139160156
1738005783749363700,11.51636376953125,-36.467987060546875,-22.239700317382812,-15.718326568603516
1738005783759431700,11.526431640625,-36.858856201171875,-22.20447540283203,-15.760026931762695
1738005783769500700,11.536500732421874,-36.749847412109375,-22.203506469726562,-15.871732711791992
1738005783779569700,11.546569580078126,-36.396759033203125,-22.3548583984375,-15.738136291503906
1738005783789638700,11.556638671875,-36.175323486328125,-22.33441162109375,-15.744640350341797
1738005783799707600,11.566707763671875,-36.414459228515625,-22.346954345703125,-15.538890838623047
1738005783809777000,11.57677685546875,-36.454559326171875,-22.114028930664062,-15.560443878173828
1738005783819845600,11.586845703125,-36.888214111328125,-22.12187957763672,-15.918935775756836
1738005783829913600,11.59691357421875,-37.087860107421875,-21.81110382080078,-15.824337005615234
1738005783839982800,11.60698291015625,-37.514312744140625,-21.834197998046875,-15.664445877075195
1738005783850051600,11.617051513671875,-37.222625732421875,-21.811752319335938,-15.796432495117188
1738005783860120800,11.627120849609375,-37.003448486328125,-21.822402954101562,-15.745687484741211
1738005783870189600,11.637189453125,-36.890838623046875,-21.680572509765625,-15.522933959960938
1738005783880258800,11.6472587890625,-37.345367431640625,-21.75817108154297,-15.803586959838867
1738005783890327800,11.657327880859375,-37.327606201171875,-21.57750701904297,-15.695785522460938
1738005783900396800,11.667396728515625,-37.413055419921875,-21.539085388183594,-15.985771179199219
1738005783910464800,11.67746484375,-37.631500244140625,-21.60820770263672,-15.560230255126953
1738005783920533800,11.68753369140625,-37.659210205078125,-21.588218688964844,-15.82404899597168
1738005783930602800,11.697602783203125,-37.345062255859375,-21.746299743652344,-16.05328941345215
1738005783940671700,11.707671630859375,-37.195892333984375,-21.626243591308594,-15.983283996582031
1738005783950740700,11.71774072265625,-37.367950439453125,-21.599098205566406,-16.124141693115234
1738005783960809700,11.727809814453124,-37.494476318359375,-21.449119567871094,-16.019758224487305
1738005783970878700,11.737878662109376,-37.341156005859375,-21.367950439453125,-16.048995971679688
1738005783980946700,11.74794677734375,-37.159759521484375,-21.33502960205078,-15.87384033203125
1738005783991015700,11.758015625,-37.097503662109375,-21.179351806640625,-15.968584060668945
1738005784001085000,11.7680849609375,-37.196563720703125,-21.562652587890625,-15.934024810791016
1738005784011153700,11.778153564453126,-37.504730224609375,-21.301170349121094,-16.2429141998291
1738005784021223000,11.788222900390625,-37.479522705078125,-21.088348388671875,-16.255901336669922
1738005784031291600,11.798291748046875,-37.698150634765625,-20.991554260253906,-16.168895721435547
1738005784041360600,11.808360595703125,-37.534820556640625,-20.931236267089844,-16.07952117919922
1738005784051428900,11.818428955078126,-37.904998779296875,-20.518531799316406,-15.71768569946289
1738005784061497600,11.82849755859375,-38.273590087890625,-20.391433715820312,-15.87702751159668
1738005784071566800,11.83856689453125,-38.437957763671875,-19.69579315185547,-15.452695846557617
1738005784081635800,11.8486357421875,-39.303253173828125,-19.295745849609375,-15.297147750854492
1738005784091704600,11.85870458984375,-39.102325439453125,-19.248428344726562,-15.20103645324707
1738005784101773800,11.86877392578125,-38.787384033203125,-19.09491729736328,-15.254341125488281
1738005784111842600,11.878842529296875,-39.094757080078125,-19.0338134765625,-14.983633041381836
1738005784121911800,11.888911865234375,-39.088531494140625,-19.396133422851562,-14.873434066772461
1738005784131979800,11.898979736328124,-38.819610595703125,-19.515945434570312,-14.92138671875
1738005784142048500,11.909048583984376,-38.945220947265625,-19.77861785888672,-15.124874114990234
1738005784152117800,11.91911767578125,-38.636749267578125,-19.916534423828125,-15.375762939453125
1738005784162186500,11.9291865234375,-38.136993408203125,-20.24896240234375,-15.369892120361328
1738005784172255700,11.939255859375,-37.924591064453125,-20.65509033203125,-15.569753646850586
1738005784182324700,11.94932470703125,-38.031463623046875,-20.915687561035156,-15.878423690795898
1738005784192393700,11.959393798828126,-38.101837158203125,-21.168128967285156,-16.01361656188965
1738005784202461700,11.969461669921875,-37.737152099609375,-21.435928344726562,-16.29815101623535
1738005784212530700,11.97953076171875,-37.536224365234375,-21.336219787597656,-16.25191879272461
1738005784222599700,11.989599609375,-37.831146240234375,-21.49762725830078,-16.610307693481445
1738005784232668700,11.999668701171874,-37.919891357421875,-21.595199584960938,-16.782377243041992
1738005784242737700,12.009737548828125,-37.284149169921875,-21.487205505371094,-16.90312385559082
1738005784252806700,12.019806640625,-37.407501220703125,-21.340194702148438,-16.89393424987793
1738005784262876000,12.0298759765625,-37.424896240234375,-21.181129455566406,-16.90810775756836
1738005784272943600,12.039943603515624,-37.796417236328125,-21.36579132080078,-17.005266189575195
1738005784283012600,12.0500126953125,-37.328033447265625,-21.545082092285156,-16.93199920654297
1738005784293081900,12.060081787109375,-37.575897216796875,-21.66857147216797,-16.91943359375
1738005784303150600,12.070150634765625,-36.924835205078125,-21.83753204345703,-16.554067611694336
1738005784313219800,12.0802197265625,-37.112091064453125,-22.180084228515625,-16.64632797241211
1738005784323288600,12.09028857421875,-37.355499267578125,-22.187637329101562,-16.52231788635254
1738005784333357800,12.10035791015625,-36.891143798828125,-22.50311279296875,-16.327157974243164
1738005784343426800,12.1104267578125,-36.926971435546875,-22.670387268066406,-16.10638999938965
1738005784353494500,12.12049462890625,-36.869903564453125,-22.92823028564453,-16.022138595581055
1738005784363563800,12.130563720703124,-36.904388427734375,-23.126052856445312,-16.062870025634766
1738005784373632800,12.1406328125,-36.889373779296875,-23.32471466064453,-15.750520706176758
1738005784383701800,12.15070166015625,-36.748565673828125,-23.581871032714844,-15.777669906616211
1738005784393770800,12.160770751953125,-36.730072021484375,-23.481491088867188,-15.613187789916992
1738005784403839700,12.17083984375,-36.361175537109375,-23.646934509277344,-15.522808074951172
1738005784413908700,12.18090869140625,-36.592437744140625,-23.76348876953125,-15.331052780151367
1738005784423976700,12.190976806640625,-36.642852783203125,-23.699676513671875,-15.14570426940918
1738005784434045700,12.201045654296875,-36.871856689453125,-23.79949951171875,-15.096979141235352
1738005784444114700,12.21111474609375,-37.047515869140625,-23.995704650878906,-14.906064987182617
1738005784454184000,12.221183837890624,-37.127288818359375,-23.88573455810547,-14.96099853515625
1738005784464252700,12.231252685546876,-36.888946533203125,-24.06232452392578,-14.726743698120117
1738005784474321700,12.24132177734375,-37.253326416015625,-23.95441436767578,-14.690288543701172
1738005784484390700,12.251390625,-36.498138427734375,-23.931396484375,-14.521074295043945
1738005784494458600,12.261458740234374,-36.413299560546875,-24.11463165283203,-14.626840591430664
1738005784504528000,12.27152783203125,-36.708831787109375,-24.175949096679688,-14.589296340942383
1738005784514596600,12.2815966796875,-36.793548583984375,-24.03173828125,-14.60561752319336
1738005784524665600,12.29166552734375,-36.631927490234375,-24.10688018798828,-14.500099182128906
1738005784534734800,12.30173486328125,-36.909820556640625,-23.94641876220703,-14.263360977172852
1738005784544803600,12.311803466796874,-36.907440185546875,-23.92529296875,-14.32735824584961
1738005784554872800,12.321872802734376,-36.998199462890625,-23.42310333251953,-14.468366622924805
1738005784564940800,12.33194091796875,-36.930450439453125,-23.495407104492188,-14.365095138549805
1738005784575009800,12.342009765625,-36.854400634765625,-23.382774353027344,-14.405183792114258
1738005784585078800,12.352078857421875,-37.471771240234375,-23.5345458984375,-14.41166877746582
1738005784595147500,12.3621474609375,-37.331451416015625,-23.223419189453125,-14.506771087646484
1738005784605216800,12.372216796875,-37.055267333984375,-23.023605346679688,-14.164941787719727
1738005784615285800,12.38228564453125,-37.154998779296875,-22.97315216064453,-13.59571647644043
1738005784625354800,12.392354736328125,-37.189910888671875,-23.255859375,-13.568801879882812
1738005784635423200,12.40242333984375,-37.110504150390625,-23.005165100097656,-13.841552734375
1738005784645492000,12.412491943359376,-36.876068115234375,-22.71057891845703,-13.43700885772705
1738005784655561000,12.42256103515625,-37.123138427734375,-23.003440856933594,-13.468364715576172
1738005784665630200,12.432630126953125,-37.674774169921875,-22.970985412597656,-13.43117904663086
1738005784675699000,12.442698974609375,-37.532196044921875,-22.82318878173828,-13.43867301940918
1738005784685768200,12.452768310546874,-37.316864013671875,-22.82935333251953,-13.12570571899414
1738005784695837000,12.4628369140625,-37.623077392578125,-22.760040283203125,-13.03547477722168
1738005784705906200,12.47290625,-37.814178466796875,-22.58509063720703,-12.92733383178711
1738005784715974100,12.48297412109375,-37.796173095703125,-22.48602294921875,-12.993621826171875
1738005784726043000,12.49304296875,-37.812652587890625,-22.474639892578125,-13.02808666229248
1738005784736112000,12.503112060546876,-38.033355712890625,-22.17333984375,-12.813714027404785
1738005784746181000,12.51318115234375,-37.908172607421875,-22.143211364746094,-12.783975601196289
1738005784756250000,12.52325,-37.860687255859375,-22.057723999023438,-12.575738906860352
1738005784766319000,12.533319091796875,-38.037261962890625,-21.958160400390625,-12.596944808959961
1738005784776388000,12.54338818359375,-37.862457275390625,-22.129432678222656,-12.483221054077148
1738005784786456000,12.5534560546875,-38.292816162109375,-22.033905029296875,-12.486298561096191
1738005784796525000,12.563525146484375,-38.687042236328125,-21.765838623046875,-12.16433334350586
1738005784806594000,12.573593994140625,-38.993072509765625,-21.701927185058594,-12.181203842163086
1738005784816663000,12.5836630859375,-39.147979736328125,-21.35540771484375,-11.968667984008789
1738005784826732000,12.59373193359375,-39.465911865234375,-21.00445556640625,-11.798418045043945
1738005784836801000,12.603801025390625,-39.355499267578125,-20.525833129882812,-11.629669189453125
1738005784846870300,12.613870361328125,-39.901458740234375,-20.132766723632812,-11.556676864624023
1738005784856938200,12.623938232421875,-39.670379638671875,-20.019378662109375,-11.522705078125
1738005784867007000,12.634007080078124,-39.902862548828125,-19.310951232910156,-11.432258605957031
