Timestamp,Acc x (m/s^2),Acc y (m/s^2),Acc z (m/s^2),Gyro x (rad/s),Gyro y (rad/s),Gyro z (rad/s),Beccheggio/Pitch (rad/s),Rollio/Roll (rad/s),Imbardata/Yaw (rad/s),Mag x (microTesla),Mag y (microTesla),Mag z (microTesla),Altitudine (m),Pressione (milliBar)
0.019052490234375,-0.0233362327281385,-0.0311881883375346,-0.0394090503245592,-0.163652166724205,-0.2282256782054901,0.0185523331165313,0.0976983009165932,0.0788870292226354,2.014490064778872,-7.189998626708984,-21.185083389282227,-36.9969482421875,0.03659202271479934,1015.9083549444573
0.029120849609375,0.0282850142419338,-0.01419489489533,-0.1871808602124452,-0.1338027566671371,-0.2785678207874298,0.0359574668109416,0.0962198472117588,0.0762928862230895,2.0148813621635027,-6.981466293334961,-20.554956436157227,-36.74371337890625,0.03722815301548465,1015.9082753516382
0.03918994140625,0.0646133419468998,-0.1104118741128593,-0.2309796699285507,-0.0972354263067245,-0.2991159558296203,0.038918100297451,0.0951161678780141,0.0733369975460252,2.0153333005041607,-7.24050235748291,-20.75235939025879,-36.929931640625,0.03786432959141007,1015.9081957530291
0.049257568359375,-0.0637274990230798,-0.1050979856137186,-0.1711456712126731,-0.0864032432436943,-0.2901588380336761,0.0504965931177139,0.0942503429584744,0.070237352413086,2.0158501465783933,-7.698480606079102,-21.402427673339844,-37.40542602539063,0.03850041361685527,1015.9081161659999
0.059326904296875,-0.0373993179373443,0.0423663657601922,-0.0411953492194414,-0.1186948716640472,-0.2828372716903686,0.0538481809198856,0.0932614548422577,0.0672514770358423,2.016444435215688,-7.869379043579102,-21.511260986328125,-37.52023315429688,0.03913660561786073,1015.9080365654607
0.069395751953125,-0.0137657827630639,0.1126498622979968,0.0211164377868175,-0.1488026231527328,-0.2771681845188141,0.0596436075866222,0.0919388230179458,0.0643570850123607,2.0170996388060054,-7.815898895263672,-21.45473289489746,-37.64987182617188,0.03977276676870611,1015.9079569687816
0.079463623046875,-0.0796542226796969,0.2008073806352913,0.0078705872446298,-0.1582107692956924,-0.2728937864303589,0.0641313046216964,0.0904393723573285,0.061543778561326,2.017819296700374,-7.92552375793457,-21.382644653320312,-37.7362060546875,0.04040886621923135,1015.9078773798225
0.08953271484375,-0.0689948449667543,0.2102264394309371,-0.0041331542819738,-0.1503071635961532,-0.2603898644447326,0.0508051216602325,0.0889218152501837,0.0587692896916427,2.018516904029011,-8.062216758728027,-21.59746551513672,-37.3050537109375,0.04104504279515677,1015.9077977812134
0.0996005859375,-0.0734306719897314,0.1407872847627848,0.0039408465802669,-0.1305377185344696,-0.2234110832214355,0.0238304957747459,0.087557743144254,0.0563478991588996,2.0189787028940995,-8.165164947509766,-21.381994247436523,-37.56451416015625,0.04168114224568201,1015.9077181922543
0.109669921875,-0.104219230017811,0.0183680889267474,-0.0242120657145977,-0.1040358692407608,-0.1804642677307129,0.0046015125699341,0.0863920698680018,0.0543442756380674,2.019168893658422,-8.040447235107422,-21.140539169311523,-37.287933349609375,0.04231733424668747,1015.9076385917151
0.11973876953125,-0.0728124670261517,-0.0874332957159727,-0.0623760844141244,-0.0643806010484695,-0.1366603374481201,-0.0043368553742766,0.0855948959265567,0.052777933238034,2.0191956442532,-8.205853462219238,-21.380746841430664,-37.322509765625,0.04295349539753285,1015.907558995036
0.129806640625,-0.0603383680414408,-0.1223445231646299,-0.0044563948869705,-0.0470172204077243,-0.05396718531847,0.0030768080614507,0.0850848419135553,0.0518346335710387,2.019219849945743,-8.371859550476074,-21.337387084960938,-37.529144287109375,0.04358959484805809,1015.9074794060768
0.1398759765625,-0.0021899477923288,-0.1203328180160373,0.1159989535301923,-0.0453024096786975,0.0060199848376214,0.0056590088643133,0.0846475308134509,0.0516702359866586,2.0193383983288418,-8.331330299377441,-21.28423118591309,-37.5682373046875,0.044225786849063545,1015.9073998055377
0.149943603515625,0.0106144060600548,-0.0358568377356976,0.1245335576415061,-0.0521355494856834,0.0404925942420959,0.0110501199960708,0.0841351104776115,0.0519046033130625,2.0194397558803767,-8.134605407714844,-21.53041076660156,-37.589141845703125,0.04486187087450875,1015.9073202185085
0.160012939453125,0.2411510814614594,-0.127423214668408,0.0329448227465152,-0.0657634809613227,0.0401823334395885,0.0074061159975826,0.0835238146465307,0.0523215480620045,2.019576091468036,-8.174731254577637,-21.292207717895508,-37.138214111328125,0.0454980628755142,1015.9072406179695
0.170081787109375,0.2374562820641323,-0.1779573970541358,0.0236982709735631,-0.0903899744153022,0.025501424446702,0.0050086164847016,0.0827167354584493,0.0526659416343034,2.019680569079406,-8.38189697265625,-21.22198867797852,-37.26129150390625,0.04613422402635959,1015.9071610212903
0.18014990234375,0.1954392777308821,-0.2003364751879125,-0.0299438873648643,-0.1269096434116363,0.0048387567512691,0.0046842442825436,0.0816058761454446,0.0527959065934095,2.019785992381565,-8.44551944732666,-21.374521255493164,-37.424713134765625,0.04677033890196486,1015.9070814304011
0.19021875,0.1592494451811537,-0.1979885238222777,-0.1760293516010045,-0.1498091518878936,-0.0157229825854301,0.0012787734158337,0.080208039930362,0.0526956404805918,2.019769404849465,-8.588004112243652,-21.63932037353516,-37.825927734375,0.047406500052810246,1015.907001833722
0.200286865234375,0.1204648468978702,-0.1339326696276664,-0.2567734518766403,-0.1513338088989257,-0.0204831175506114,-0.001774008385837,0.0787243717817529,0.0524930665063154,2.0198495281418203,-8.554709434509277,-21.46481704711914,-37.634033203125,0.04804261492841552,1015.9069222428328
0.210355712890625,0.0573137229906395,-0.0528879789702594,-0.262594705376029,-0.1359692364931106,-0.0311042182147502,-0.001312140841037,0.0773255631893251,0.0522118758483765,2.0197161449870724,-8.463658332824707,-21.548830032348636,-37.78927612304688,0.0486787760792609,1015.9068426461538
0.2204248046875,0.0442718705879524,-0.0020623393572866,-0.241055658262968,-0.1005992665886879,-0.0374041944742202,-0.0077311578206717,0.0761725395713319,0.0518725101274657,2.0197255492724406,-8.374038696289062,-21.086498260498047,-37.67156982421875,0.049314952655186324,1015.9067630475446
0.23049267578125,0.0181258411360904,0.0438882415652275,-0.2227735671192407,-0.060027826577425,-0.040349643677473,-0.0175019707530736,0.0753933196896411,0.0514822224442575,2.019625161792051,-8.555717468261719,-21.136796951293945,-37.59527587890625,0.04995105210571156,1015.9066834585855
0.24056201171875,0.0009031228521838,0.0567769492328166,-0.1810848814249038,-0.0238636992871761,-0.0243592262268066,-0.0275990795344114,0.0750433964787124,0.0512218568026827,2.019414813702945,-8.623100280761719,-21.15757369995117,-37.78363037109375,0.05058724410671702,1015.9066038580463
0.250629638671875,-0.0172569858796894,0.0445732281547039,-0.1194599076390266,-0.015461241826415,-0.006556537002325,-0.021965280175209,0.0749124921704103,0.0511655942484131,2.0191619114904715,-8.571040153503418,-21.02604484558105,-37.703369140625,0.051223328132162224,1015.9065242710172
0.26069873046875,-0.0472739019481465,0.0430630427874624,-0.1156073238641023,-0.0382725484669208,0.0071070771664381,-0.0153433308005332,0.0747121619305501,0.0512352626365906,2.0189871451458363,-8.717791557312012,-20.940656661987305,-38.00042724609375,0.05185950470808764,1015.906444672408
0.270767822265625,-0.0662073696726933,0.0672412792976945,-0.0628781887173652,-0.0880190879106521,0.0064356918446719,-0.0224667824804782,0.0741242681590682,0.0513790062132348,2.0188346053976387,-8.840401649475098,-21.219457626342773,-38.06146240234375,0.05249568128401306,1015.906365073799
0.280835693359375,-0.064358673066087,0.0973296896997839,-0.0662666621118783,-0.1309311389923095,-0.0290096495300531,-0.039931796491146,0.073039104070514,0.051338823977326,2.01854367042212,-8.76966381072998,-21.256006240844727,-38.021514892578125,0.05313178073453831,1015.9062854848398
0.290904541015625,-0.0623120427345856,0.1276849343445152,-0.1231897418171167,-0.1575837880373001,-0.0747832655906677,-0.0607246905565261,0.0715682564603985,0.050848121107364,2.0180700551005675,-8.754530906677246,-21.22805976867676,-38.132598876953125,0.05376794188538368,1015.9062058881607
0.300973876953125,-0.0991318072183057,0.1273080638561397,-0.0923310776948928,-0.1658105552196502,-0.0831205546855926,-0.0705749243497848,0.0699082471267645,0.0500772641906109,2.0174840603392354,-8.705632209777832,-21.00979804992676,-37.7181396484375,0.05440413388638914,1015.9061262876215
0.311041748046875,-0.1328106067951768,0.0621649989467114,-0.0573176319807767,-0.1546849608421325,-0.0767545104026794,-0.067654974758625,0.0682511751947855,0.0493069114901213,2.016868220590591,-8.832269668579102,-20.98715209960937,-38.068878173828125,0.05504023333691438,1015.9060466986624
0.32111083984375,-0.1179504894567653,0.0171036950141191,-0.0308697700381278,-0.1323165595531463,-0.0661069229245185,-0.0551719442009925,0.0667656040154149,0.048623555248498,2.0163303674748336,-8.464496612548828,-20.866174697875977,-38.13180541992188,0.0556764099128398,1015.9059671000533
0.3311787109375,-0.1086746750567108,-0.01249320554398,0.050683308532834,-0.1109490692615509,-0.0415517948567867,-0.0326383113861084,0.0655301404194161,0.0480992260868182,2.015932140887433,-8.683963775634766,-20.591297149658203,-38.05221557617188,0.05631250936336504,1015.9058875110941
0.341247802734375,-0.1360578085554763,-0.0527147412952035,0.1762503008753061,-0.0973981022834777,-0.0033972193486988,-0.0154878217726945,0.0644935048797751,0.0478662913676724,2.015739202120618,-8.636251449584961,-20.67277717590332,-37.601654052734375,0.05694868593929046,1015.905807912485
0.35131689453125,-0.1758730285281315,-0.0910084507890045,0.2645879250198602,-0.0951343104243278,0.0466955192387104,-0.0027053013909608,0.0635469038240606,0.0480635738855194,2.015704952939088,-8.904064178466797,-20.75423622131348,-37.892974853515625,0.05758486251521588,1015.9057283138759
0.361384765625,-0.1730636701958254,-0.0506594892658293,0.3102992903590202,-0.1175160482525825,0.0757287740707397,-0.002915424760431,0.0624865192841494,0.0486607619253471,2.015740967318721,-8.59911060333252,-20.55764961242676,-37.9947509765625,0.058220961965741114,1015.9056487249168
0.371453857421875,-0.1584582948034629,-0.0062567223072052,0.3144721921294927,-0.1584779620170593,0.1006117388606071,-0.0040361997671425,0.0610912668107074,0.0495197266019073,2.0157180921559736,-8.614895820617676,-20.68432235717773,-38.267364501953125,0.058857138541666534,1015.9055691263076
0.381521728515625,-0.1590386519746854,-0.0254888807173818,0.3224924169778824,-0.2034560889005661,0.1181233525276184,0.0024856152012944,0.0592794431848725,0.050599099136383,2.0157314141588896,-8.492916107177734,-20.52092933654785,-38.3392333984375,0.05949323799219178,1015.9054895373484
0.3915908203125,-0.1494581190070137,-0.0318264497084543,0.2145347310841083,-0.2400624006986618,0.1279228627681732,0.0099214715883135,0.0570424885754258,0.0517858086681756,2.015909293652133,-8.47271728515625,-20.382732391357425,-38.12155151367188,0.06012941456811719,1015.9054099387394
0.401659912109375,-0.1102520439086481,-0.0201688547383993,0.1366962891221046,-0.2653626799583435,0.133014291524887,0.0123500069603323,0.0545347076232626,0.0530485560325128,2.0161323298012,-8.603724479675293,-20.49813270568848,-38.32769775390625,0.06076559114404262,1015.9053303401303
0.41172802734375,-0.0693855613173917,0.0240145703811198,0.0690396339565515,-0.2751031816005707,0.1270381510257721,0.0097664752975106,0.0518494752075653,0.0543247004998843,2.016327863024065,-8.506645202636719,-20.47085189819336,-38.49871826171875,0.061401706019647895,1015.9052507492411
0.421796630859375,-0.0399029713213443,0.0461260836198925,-0.0273585470467805,-0.2767048180103302,0.1169192045927047,0.0106905922293663,0.0491263816093326,0.05549493248707,2.0165890150339463,-8.361089706420898,-20.24696159362793,-38.320068359375,0.062037851745413236,1015.9051711544919
0.431864990234375,0.011856222814694,0.0758285269116982,-0.0427852487593889,-0.2764541804790497,0.0910352692008018,0.0088387643918395,0.0464147925630171,0.0564684584852318,2.0168636675389666,-8.445164680480957,-19.997133255004883,-38.44024658203125,0.06267398204609856,1015.9050915616727
0.441933837890625,0.0398488299813121,0.1006915673483163,-0.1271919631958007,-0.2578312456607818,0.0714993849396705,0.0003142515197396,0.0437899764240614,0.0572256122094895,2.017202249213269,-8.694562911987305,-19.938081741333008,-38.817138671875,0.06331014319694393,1015.9050119649937
0.452002685546875,0.0431217141721397,0.0938076530534774,-0.2112345204949378,-0.2119919657707214,0.0546028278768062,-0.0123722339048981,0.0414684691218307,0.057787885693075,2.017388444516945,-8.53109073638916,-19.752317428588867,-38.933685302734375,0.06399043746466028,1015.9049330187344
0.46207080078125,0.0553881982881575,0.0816840845394879,-0.2280295879513025,-0.1547768712043762,0.0586556270718574,-0.021204873919487,0.0396661527148784,0.0583194233048299,2.017295448239244,-8.20512580871582,-19.67198181152344,-38.981048583984375,0.06467944410448066,1015.9048542073472
0.472139892578125,0.0797370421249419,0.0645833852000534,-0.2219008759379386,-0.0986930504441261,0.0639662370085716,-0.0228751488029956,0.0384402277239721,0.058886891151697,2.0171429428649192,-8.176823616027832,-19.385103225708008,-38.895416259765625,0.0653685175748876,1015.9047753883156
0.482207763671875,0.0928207243753597,0.0516653783727437,-0.1887678371429443,-0.0508200712502002,0.0618032254278659,-0.0196532569825649,0.037732798567785,0.05949049762027,2.016974523043459,-8.156869888305664,-19.584924697875977,-38.86984252929688,0.06605750750706132,1015.9046965788394
0.49227685546875,0.0734099579952657,0.0709475134044885,-0.1925496937692165,-0.0083603933453559,0.0439133048057556,-0.0303277820348739,0.0374557913386783,0.0599903655396027,2.016748054075999,-7.8837385177612305,-19.47318649291992,-38.59039306640625,0.06674658097746826,1015.9046177598078
0.502345703125,0.0439364646211266,0.1204832958700135,-0.1880126348614692,0.0155912786722183,0.0429119542241096,-0.0469182133674621,0.0375021873706549,0.0603876760369261,2.0163452107264037,-7.822987556457519,-19.3523006439209,-38.48190307617188,0.06743563774022857,1015.9045389426874
0.512413818359375,0.0539340174244716,0.1290708722775801,-0.1655932977825403,0.024987606331706,0.0405249521136283,-0.0480757728219032,0.0376913587867099,0.0608193184807049,2.0158536907456237,-8.098169326782227,-19.762056350708008,-38.732177734375,0.06812464438004893,1015.9044601313002
0.522482666015625,0.0772148667035624,0.0972343030339106,-0.1852098524004221,0.0259109251201152,0.0333695709705352,-0.052607674151659,0.0379088391347434,0.0612086808356206,2.0153313402960213,-8.049601554870605,-19.8945369720459,-38.692779541015625,0.06881370114280923,1015.9043813141797
0.53255078125,0.1166000612284988,0.0388191581400111,-0.2153659212112426,0.0281671918928623,0.014573099091649,-0.0567940287292003,0.038132120171028,0.0614508595869733,2.014777386747644,-8.208382606506348,-19.62729263305664,-39.1231689453125,0.06950270778262961,1015.9043025027925
0.542619873046875,0.0993454499689862,0.0179848252302035,-0.1883025577187538,0.0251596830785274,0.0091461110860109,-0.0584752820432186,0.0383576284339893,0.0615938171546439,2.01396800230093,-7.718536376953125,-19.784748077392575,-39.013275146484375,0.07019178125303654,1015.9042236837608
0.552688720703125,0.0533520893506705,0.0148737074723467,-0.0899596723884344,0.0095322374254465,0.0109432404860854,-0.0601636357605457,0.0384677090310975,0.0617220530392284,2.0132419890311155,-7.903424263000488,-19.809038162231445,-39.247406005859375,0.07088083801579684,1015.9041448666404
0.562756591796875,0.0605084273787215,-0.0057241863330826,-0.0610334376335144,-0.0022056447342038,0.0189479030668735,-0.0557222813367843,0.0384424850913112,0.0619082668994631,2.012584373771815,-8.004599571228027,-19.77318382263184,-39.029205322265625,0.07156982794797057,1015.9040660571643
0.572825927734375,0.0223840465698391,-0.0169706066863611,-0.0460778605639934,-0.0033316286280751,0.0364625677466392,-0.0465577393770217,0.0383484607441631,0.0622259391978847,2.0120104082418213,-8.0343017578125,-19.76937484741211,-38.98291015625,0.07225891812602415,1015.9039872362216
0.582894775390625,0.006504121197015,-0.0195530243949964,-0.0693517686456441,0.0167123861610889,0.0312299877405166,-0.0362880527973175,0.0383597918669592,0.0625950356718825,2.011489603053998,-7.909787178039551,-19.786094665527344,-38.84173583984375,0.07294797488878445,1015.9039084191012
0.592962646484375,0.0692852792806923,-0.0187081710686907,-0.1193067629039287,0.0448779985308647,0.0241467803716659,-0.0263517722487449,0.0386292466272322,0.0628779044886727,2.011155115175905,-8.074002265930176,-19.751283645629883,-38.580841064453125,0.07363696482095819,1015.9038296096251
0.603031982421875,0.0455529599070549,0.014997881841287,-0.0312824424922466,0.0727309361100196,0.0368404723703861,-0.0244915541261434,0.0391980815585292,0.063194469587621,2.0108377911613315,-8.056782722473145,-19.831619262695312,-38.858642578125,0.07432605499901176,1015.9037507886824
0.613099853515625,0.0131491121694445,0.0213691704388707,0.0557926143705844,0.0898232236504554,0.0507120601832866,-0.0122750466689467,0.040000995795196,0.063679241760575,2.010596853463225,-7.954227447509766,-19.90543937683105,-38.70220947265625,0.07501504493118549,1015.9036719792063
0.6231689453125,0.0284057180121541,-0.015419687449932,0.0310480492144823,0.0934421941637992,0.03989989310503,-0.0020242733880877,0.0409195177239295,0.064141359285289,2.010459239618996,-7.940376281738281,-19.697921752929688,-39.16436767578125,0.07570411840159243,1015.9035931601746
0.63323779296875,0.0365242156032472,-0.013224844286777,0.0112953009963035,0.0889741480350494,0.0255071315914392,0.0010471832938492,0.0418307549967543,0.0645071792145354,2.010419043489305,-7.974553108215332,-19.797372817993164,-39.14370727539063,0.07639317516435273,1015.9035143430542
0.643305908203125,0.0707632428787648,0.0193375915460288,-0.0344078810364007,0.0887565687298774,0.0190814547240734,0.0046488428488373,0.0427105792808866,0.0647420154398329,2.0103006568653963,-7.81834602355957,-19.97323989868164,-38.99603271484375,0.0770821818041731,1015.903435531667
0.653372314453125,0.1041104358810931,0.002009768919833,-0.1093798276513814,0.0912063121795654,-0.001636469271034,0.0069394716992974,0.0436147594099666,0.0648539281710715,2.0104066141353965,-8.050130844116211,-19.969593048095703,-39.27243041992188,0.077771071490467,1015.9033567336573
0.663440185546875,0.1391238815952092,-0.0237081713130697,-0.1656885748505592,0.1042022705078125,-0.0242541637271642,0.0108170341700315,0.044609563053652,0.0647192122910683,2.010379128590008,-7.952498435974121,-20.203264236450195,-39.281097412109375,0.07846006142264073,1015.9032779241812
0.673509033203125,0.1732490732327103,0.0060425315672531,-0.1541840150177478,0.1297871023416519,-0.0396980009973049,0.0091681331396102,0.04578291259952,0.0644004011230162,2.0104130285323167,-7.952498435974121,-20.203264236450195,-39.281097412109375,0.07914911818540102,1015.9031991070608
0.683578125,0.1170970509652048,0.0681178429365158,-0.0879600230038166,0.1396743655204773,-0.0352774187922477,0.005662081297487,0.0471246595631386,0.0640103208454598,2.010403895511394,-7.95278263092041,-20.05184936523437,-38.90704345703125,0.07983819165580797,1015.9031202880292
0.693646240234375,0.0884383811052888,0.0845129878224805,0.0019791911184787,0.1419598907232284,-0.032882172614336,-0.0009297747164964,0.0485234369924191,0.0636704933675181,2.0103998862829915,-8.285663604736328,-20.29184341430664,-38.7957763671875,0.08052719829562834,1015.903041476642
0.703715087890625,0.1069048889052122,0.10608137062788,-0.0092886373490095,0.1445852369070053,-0.0303471088409423,-0.0017987641040235,0.0499463271980145,0.0633625373435719,2.0103592886955672,-8.330300331115723,-20.338172912597656,-38.541107177734375,0.08121625505838863,1015.9029626595216
0.713783203125,0.0905373992111533,0.1345884666552767,-0.0283101486831903,0.1514003723859787,-0.0100916242226958,-0.0047475011087954,0.0514055292152943,0.0631893462962858,2.0101631460413527,-7.989773750305176,-20.43144989013672,-38.65301513671875,0.081905261698209,1015.9028838481344
0.72385205078125,0.0849680746462196,0.0878149885099381,-0.0151999072194099,0.1394465118646621,0.0288139637559652,-0.0034113933797925,0.0528635330005579,0.0632893852644345,2.0099056420939085,-7.78848934173584,-20.378103256225582,-38.7818603515625,0.0825943184609693,1015.9028050310138
0.733921142578125,0.0602935059864074,0.0226086856385692,0.125078332042694,0.1190008148550987,0.0638678073883056,0.0036991261877119,0.0541507499891127,0.0637821284687971,2.0097908099342288,-7.969486236572266,-20.39178276062012,-38.9510498046875,0.08328339193137624,1015.9027262119822
0.743989013671875,0.073205594529584,-0.0382735434886068,0.2476888126671314,0.0914701223373413,0.0662737041711807,0.0126787722110748,0.0551766887024744,0.0644857238933767,2.009761115372534,-7.963702201843262,-20.46963119506836,-38.625030517578125,0.08397238186354997,1015.9026474025061
0.75405810546875,0.1324905810605734,-0.0252295356614515,0.257656079930067,0.0661356151103973,0.0497208498418331,0.0126278512179851,0.0559281344050166,0.065113414784536,2.0097999049826054,-7.87139892578125,-20.540342330932617,-38.9306640625,0.08466145533395691,1015.9025685834746
0.764126953125,0.1014107484683394,0.0446327763222157,0.258594237563014,0.0406560897827148,0.0376697778701782,0.0020511061884462,0.0564305852528052,0.0655548229760604,2.009934964082872,-8.065402030944824,-20.30601501464844,-39.02691650390625,0.08535051209671721,1015.902489766354
0.774195068359375,0.0841436065208166,0.0354482934674248,0.2544336107522249,0.0241425037384033,0.0413231216371059,0.0086234621703624,0.0566999063995571,0.0659753898391089,2.0099303465168954,-7.816388130187988,-20.310659408569336,-38.84332275390625,0.08603951873653759,1015.9024109549669
0.78426416015625,0.1310100601792335,-0.0922174977852031,0.1867757865428924,0.0120203262194991,0.0298941656947135,0.0231459457427263,0.0568349123117017,0.0663557689367767,2.0100107439151564,-7.752634048461914,-20.45196914672852,-38.51324462890625,0.08672859220694451,1015.9023321359354
0.794332275390625,0.1464898072533309,-0.0735884198347106,0.0435334367781877,0.017487708479166,0.0092620821669697,0.0235568955540657,0.056949451714691,0.0665484514219309,2.0102632592784326,-7.921883583068848,-20.3317985534668,-38.636077880859375,0.0874175988467649,1015.902253324548
0.80440087890625,0.1133523114789277,0.0022824849139899,-0.0374555781692266,0.0311832800507545,0.0083941584452986,0.0153090851381421,0.0571639012059743,0.0666480970503111,2.0104853104572395,-7.996601104736328,-20.372163772583008,-38.671722412109375,0.08810663890187855,1015.9021745093387
0.81447021484375,0.11909925763309,0.027954467113316,-0.0666115300267934,0.0485763326287269,0.0113998260349035,0.0152004640549421,0.0575545696753984,0.0667352819518555,2.010602158149738,-7.904056549072266,-20.447378158569336,-38.536895751953125,0.08879572907993213,1015.902095688396
0.8245380859375,0.0979682798642665,-0.004530409971252,-0.0567009613871574,0.0570648908615112,0.0237576924264431,0.0148300193250179,0.058103429388095,0.0668938864534924,2.0106966587569106,-7.897825241088867,-20.49744033813477,-38.481231689453125,0.08948471901210586,1015.9020168789199
0.83460693359375,0.0378249229382723,-0.0434886477883905,0.050310383567214,0.060591422021389,0.0385873541235923,0.0128246983513236,0.0587094642273169,0.0672474920259931,2.0108158243566048,-8.060282707214355,-20.70977020263672,-38.72262573242188,0.09017377577486616,1015.9019380617995
0.844675048828125,0.006982406233251,-0.0205540546637028,0.0993885949909686,0.0587708838284015,0.0366203412413597,0.0116949854418635,0.0593096810568525,0.0676346406375918,2.01090054119056,-7.922060966491699,-20.613283157348636,-38.335052490234375,0.09086278241468654,1015.9018592504123
0.854744140625,-0.0202419930398464,0.0454897950103506,0.0453109678447246,0.0662787109613418,0.058762677013874,0.0035549183376133,0.0599113212593242,0.0680957331629764,2.010898130015303,-7.924071311950684,-20.776731491088867,-38.52114868164063,0.09155185588509347,1015.9017804313806
0.864813232421875,-0.0540323266997933,0.082290964391455,0.0181511582404375,0.1011759713292121,0.1136413738131523,0.0001902808435261,0.0607510941803395,0.0690310542506324,2.010908499584318,-8.125465393066406,-20.788440704345703,-38.362335205078125,0.0922409293555004,1015.901701612349
0.874881103515625,-0.0534390369817614,0.0298388195551931,-0.0668447542607784,0.1258380711078643,0.1612352430820465,0.0017241104505956,0.0618895900448589,0.0704463547461384,2.0108256818409687,-7.779067039489746,-20.746339797973636,-38.29937744140625,0.09292991928767413,1015.9016228028729
0.8849501953125,0.0096937110185623,-0.0642873248629272,-0.0431418071120977,0.1497876197099685,0.2133186906576156,0.0029986994341015,0.0632651442125793,0.0723699523184145,2.010791760498404,-7.939547538757324,-20.824295043945312,-38.669525146484375,0.09361899275808108,1015.9015439838414
0.895018310546875,0.0237880681488662,-0.0690128920800983,-0.0136404028177261,0.1682881414890289,0.2426126599311828,0.0026981499977409,0.0648311698591398,0.0747201818621107,2.010786843970528,-7.955104827880859,-20.850421905517575,-38.47320556640625,0.09430799939790145,1015.9014651724542
0.905087158203125,0.063901175089553,-0.005225260367617,-0.0689502021074295,0.1880903542041778,0.2346884310245514,0.0039602224715054,0.0665940228438576,0.0771510458066415,2.010781098125865,-7.943474769592285,-20.98892593383789,-38.5447998046875,0.09499705616066176,1015.9013863553337
0.915156005859375,0.1022211880683898,0.0338647871356457,-0.0819867938131093,0.1884385049343109,0.2323967963457107,0.0053678220137953,0.0684786685075832,0.0794608360612205,2.010688321722906,-7.502182960510254,-20.887540817260746,-38.54766845703125,0.09568611292342205,1015.9013075382132
0.925224365234375,0.0702862730167806,0.034080110386759,0.028202596655488,0.1806857734918594,0.2290156334638595,0.0144832897931337,0.0703361580626631,0.0817794637386423,2.010643517890945,-7.259753227233887,-20.935850143432617,-38.33648681640625,0.09637513627088906,1015.9012287249149
0.93529296875,0.0377904361467808,0.0326319574050605,0.0330430224239826,0.1468645483255386,0.1850287467241287,0.0223555043339729,0.0719626219911514,0.0838331497368174,2.010757381283628,-7.36475658416748,-20.726247787475582,-38.67794799804688,0.09706417632600271,1015.9011499097055
0.9453623046875,0.0339387291546911,0.0528914861015975,0.0002145195335149,0.1098303645849227,0.1292216777801513,0.0238998718559741,0.0732231190013136,0.0853569814960588,2.011011562970923,-7.503408432006836,-20.908262252807617,-38.57534790039063,0.0977532665040563,1015.9010710887628
0.95543017578125,0.0488895569838583,0.0674672700732946,-0.006693360158801,0.0807767137885093,0.0881698355078697,0.0215707011520862,0.0741473666183517,0.0863777328184831,2.011247674746872,-7.394008636474609,-20.932077407836918,-38.4881591796875,0.09844225643623003,1015.9009922792867
0.9654990234375,0.0555154048644006,0.0530441924452781,-0.0199298583507537,0.0657684728503227,0.0571043267846107,0.0186995472759008,0.0748759182307897,0.0870693369598429,2.0114534860889144,-7.178380966186523,-20.870105743408203,-38.7047119140625,0.09913131319899032,1015.9009134621663
0.975567138671875,0.0658991439737379,0.0287887259803712,-0.079980714687705,0.063315100967884,0.0254201609641313,0.0149435997009277,0.0755324502733629,0.0874362726535095,2.011617808271305,-7.24526309967041,-21.12856674194336,-38.83868408203125,0.09982031983881069,1015.9008346507791
0.98563623046875,0.0803232445150613,0.0017317922286689,-0.0744189889073371,0.0619813911616802,0.0106822270900011,0.0166309792548418,0.0761320648616817,0.0875878445012765,2.011813159397988,-7.411565780639648,-21.17088508605957,-38.52651977539063,0.10050939330921764,1015.9007558317475
0.995705078125,0.0945974151916801,-0.00815692990534,-0.014763269367814,0.0527952089905738,0.0093565201386809,0.0090028010308742,0.0766970115689808,0.08767780833004,2.011851028465814,-7.1831159591674805,-21.287111282348636,-38.1737060546875,0.10119845007197793,1015.900677014627
1.005773193359375,0.0826505914840847,-0.0128957219302654,0.0699479809731245,0.0345594808459281,0.0193827897310256,0.0008442061953246,0.0771152900932616,0.0878164301951955,2.0118110023017017,-7.07262134552002,-21.280664443969727,-38.430023193359375,0.1018874567117983,1015.9005982032398
1.015842041015625,0.068426032102853,-0.0098321696411818,0.0996615667134523,0.0225522257387638,0.0197196640074253,-0.007757983636111,0.0773673984464964,0.0880187908355838,2.011751945929432,-7.034067153930664,-21.10763359069824,-38.70330810546875,0.1025765134745586,1015.9005193861193
1.02591015625,0.0539397530455142,-0.0053130117163062,0.0823012665897607,0.017320979386568,0.0183039270341396,-0.0112208919599652,0.0775235207080596,0.088232038554175,2.0116909451784646,-7.224712371826172,-21.1625919342041,-38.60806274414063,0.10326552011437898,1015.9004405747321
1.03597900390625,0.0353365401886403,-0.0162518274251371,0.0971691653758287,0.0077298707328736,0.0182168427854776,-0.0064104241319,0.0776137871109905,0.0884373476296629,2.011617051966118,-7.191960334777832,-21.216646194458008,-38.42575073242188,0.10395457687713927,1015.9003617576116
1.046048095703125,-0.0060693830415606,0.0085905720822513,0.1089730004161596,0.0037353951483964,0.0172104332596063,-0.0050439564511179,0.0776293498910456,0.0886173390047738,2.0115650122531763,-7.010624885559082,-21.042802810668945,-38.45147705078125,0.10464365034754622,1015.9002829385801
1.0561162109375,-0.0246841402057558,0.0400916257612407,0.0939993031680583,0.0023673307150602,0.0142648601904511,-0.0044802371412515,0.0776219405066947,0.0888078073712041,2.0114902589472115,-7.139728546142578,-21.283187866210938,-38.19854736328125,0.10533265698736657,1015.9002041271929
1.06618505859375,-0.0166869309067726,0.0488438181459903,0.0550531941801309,-0.003631972707808,0.0307370424270629,0.0006884257309138,0.0775988184663405,0.0890466776187773,2.0115627407524155,-7.3301591873168945,-21.22409439086914,-38.444427490234375,0.10602171375012688,1015.9001253100723
1.07625390625,-0.0186056240096688,0.0480415618523955,0.0141816700875759,-0.0097849620506167,0.0492898039519786,0.0024445559829473,0.077547367475558,0.0894584630619689,2.0116279122904426,-7.098686218261719,-21.04377555847168,-38.446624755859375,0.10671077051288719,1015.9000464929519
1.086322265625,-0.0503226585268974,0.0669506988532841,-0.0147965871155261,-0.0168633759021759,0.0586191229522228,0.004122613929212,0.0774152425643404,0.090025475677292,2.011496034336652,-6.799728393554688,-21.41739273071289,-38.38739013671875,0.1073997938603542,1015.8999676796535
1.09639111328125,-0.0687294720288366,0.1520959566973149,-0.0048252281993627,-0.0073860045522451,0.0695984214544296,0.0029011871665716,0.0772929495960711,0.0907009163226157,2.011492038260005,-6.995499610900879,-21.31283187866211,-38.54522705078125,0.10808885062311449,1015.8998888625331
1.106458984375,-0.0533387184124439,0.1893215985681861,-0.0889087020307779,0.004005666822195,0.0288219600915908,0.013185515999794,0.0772894632889171,0.0911949284806484,2.011579417604145,-7.0010480880737305,-21.096933364868164,-38.369476318359375,0.10877784055528822,1015.899810053057
1.116528076171875,0.0428330334238708,0.0957975116964429,-0.1238566812932491,0.0203914381563663,0.0057829390279948,0.0135885383933782,0.0774271407340036,0.0913388669648413,2.0116343754555164,-6.820417404174805,-21.116012573242188,-38.416412353515625,0.10946691402569517,1015.8997312340254
1.12659716796875,0.087429934715107,0.0583450022671371,-0.0150046769082546,0.0298986583948135,0.0065174386836588,0.0126412529498338,0.0776982213997969,0.0913710271062321,2.0117569535229256,-6.830902099609375,-20.84783363342285,-38.133209228515625,0.11015598749610211,1015.8996524149939
1.1366650390625,0.0457778547041118,0.0443937068693339,0.0702355657428503,0.0380949303507804,0.0136992000043392,0.0141666252166032,0.0780619639606426,0.0914558980543924,2.01186135161624,-6.972803115844727,-20.93950462341309,-38.265960693359375,0.11084497742827583,1015.8995736055177
1.146734130859375,0.0451432100623846,0.0260527982104569,0.1208849720060825,0.0292561613023281,0.0199925154447555,0.013049429282546,0.0784052805127384,0.0915850299390296,2.0119625339310474,-7.029738426208496,-21.000755310058597,-38.094085693359375,0.11153405089868276,1015.8994947864861
1.156802001953125,0.0671829732391983,0.0384450275979936,0.1612187359601259,0.0115894880145788,0.0318233370780944,0.0110080251470208,0.0786014293764638,0.0918279559686345,2.012076184409575,-6.837785720825195,-20.98320198059082,-38.01925659179688,0.11222304083085652,1015.89941597701
1.16687109375,0.0752961370680481,0.0671367229446768,0.1180593931913375,-0.0061109457165002,0.0487021841108799,0.0070865210145711,0.0786280866569326,0.0922090756908044,2.0121578043718005,-6.764967918395996,-20.966297149658203,-38.32501220703125,0.11291211430126344,1015.8993371579784
1.176940185546875,0.0633399610102176,0.057589434659481,0.064085226419568,-0.0074488138779997,0.064212180674076,0.001853825058788,0.078523957439369,0.092744799265695,2.0121387016235213,-6.809673309326172,-21.20946502685547,-38.30050659179688,0.11360118777167039,1015.8992583389469
1.187008056640625,0.0617182780925184,0.0430148197315633,0.0144791917294263,-0.0034458180889487,0.0719510614871978,0.0052621383219957,0.0784107075844537,0.0934178583224052,2.0120859017044896,-6.750788688659668,-21.303363800048828,-38.59173583984375,0.11429017770384411,1015.8991795294708
1.1970771484375,0.0109054248958826,0.0589884147372096,-0.0163905783087015,-0.0007531186565756,0.0731575861573219,0.0034235343337059,0.0783762465114013,0.0941489517923433,2.012111575349695,-6.89061450958252,-21.21365737915039,-38.27459716796875,0.11497925117425105,1015.8991007104391
1.20714501953125,-0.0224622994378209,0.0847963713411241,-0.0143862527489662,0.0033622654154896,0.0695719122886657,-0.0032266452908515,0.0783681288733645,0.0949020877947969,2.012116392192478,-6.914008140563965,-21.247095108032227,-38.52508544921875,0.11566824110642479,1015.899021900963
1.21721435546875,-0.0307156754549592,0.1021429352004081,-0.0419575657635927,0.0083692567422986,0.0551861897110939,-0.0036358078941702,0.0784128796969376,0.0955505872076594,2.012053214567056,-6.7886810302734375,-21.156578063964844,-38.500732421875,0.11635733128447837,1015.8989430800203
1.227283203125,-0.0265064602620899,0.1136917725663632,-0.1042576623320579,0.0136814638972282,0.0311588831245899,-0.0045569953508675,0.0785227514969875,0.0959953386924791,2.012008567723299,-6.782713890075684,-21.175506591796875,-38.12554931640625,0.11704638804723866,1015.8988642628999
1.23735107421875,-0.0370214976008981,0.1390834765195846,-0.1354156016618013,0.0259219668805599,0.0058717639185488,-0.0162414219230413,0.0786863461316648,0.0962160150666641,2.0118179926893647,-6.7889404296875,-21.395915985107425,-38.5084228515625,0.11773537797941239,1015.8987854534238
1.247420166015625,-0.0563059707202017,0.1721383355118334,-0.1818055969148874,0.0499266348779201,0.0030991467647254,-0.0244940258562564,0.0790215514659331,0.0962627724989719,2.0116189830440545,-6.838939666748047,-21.162038803100582,-38.74639892578125,0.11842445144981933,1015.8987066343922
1.2574892578125,-0.0868831144873052,0.2061740953002125,-0.1742722788006067,0.0632911920547485,0.0225116126239299,-0.0301791206002235,0.0795489435669955,0.0964104744119162,2.0112969408965204,-6.867218971252441,-21.30233192443848,-38.532501220703125,0.11911352492022628,1015.8986278153607
1.267556884765625,-0.121001584123075,0.2502868663363158,-0.1051408749073743,0.0687293708324432,0.0202154330909252,-0.0125489942729473,0.080188756792991,0.0966769945260891,2.011080409937248,-6.917283058166504,-21.19488525390625,-38.47573852539063,0.11980249814475336,1015.8985490077956
1.277626220703125,-0.0367230991762131,0.1057832644641399,6.02057546377e-05,0.0635798647999763,0.0409091114997863,-0.0159311648458242,0.0808364453638611,0.0969248193621669,2.0108763838937858,-6.800878524780273,-21.51224136352539,-37.79193115234375,0.12049158832280693,1015.8984701868529
1.287694091796875,0.0965522755865007,0.0744860627941787,0.2991775923639536,0.0512233264744281,0.1102061569690704,-0.0241685882210731,0.0813699191255293,0.0977496101620753,2.010598796931338,-6.756887435913086,-21.516098022460938,-37.870513916015625,0.12118057825498069,1015.8983913773768
1.29776318359375,0.0928781901836395,-0.0675850512340664,0.2698106281042098,0.0357210263609886,0.1042278930544853,-0.0053105386905372,0.0817613103975715,0.0988689167264382,2.0104067924378928,-6.759976387023926,-21.44632911682129,-38.066253662109375,0.1218696517253876,1015.8983125583453
1.30783203125,0.1424368786007165,-0.1514372005276381,0.111706224772334,0.03167275339365,0.0807060524821281,0.0075056576170027,0.0820618851003991,0.0997915917700967,2.0104005426751725,-6.579158782958984,-21.431241989135746,-38.060882568359375,0.1225587084881479,1015.8982337412248
1.317900146484375,0.0835457867581397,-0.0836357300639152,0.06283201148808,0.0260176546871662,0.0891455113887786,0.0084328083321452,0.0823084493421692,0.1006023821746238,2.010442683536923,-6.592548370361328,-21.37187767028809,-38.3558349609375,0.12324771512796828,1015.8981549298376
1.32796923828125,0.0037029461711645,-0.0177026107553392,0.0392547365456819,0.0308598130941391,0.1099242866039276,0.005550468340516,0.0825322784312023,0.1015672376454469,2.0103574146258727,-6.44896125793457,-21.71236038208008,-38.412872314453125,0.12393678859837522,1015.898076110806
1.338037109375,-0.0220817756876349,0.0317306977164,0.0440682743072509,0.0375537946820259,0.1116148456931114,0.0002804002724587,0.0828132774970603,0.1026672336580004,2.010361794161946,-6.359026908874512,-21.60980796813965,-38.10870361328125,0.12462577853054896,1015.8979973013298
1.34810595703125,-0.0135326315943151,0.0580997222691774,0.0388104999095201,0.0332943350076675,0.0940158814191818,-0.005845935549587,0.0830922503600872,0.1036527734043839,2.010235826567169,-6.54095458984375,-21.7067985534668,-38.29266357421875,0.12531483529330925,1015.8979184842094
1.35817529296875,-0.0106121410377323,0.1174599659934639,0.0681383012026548,0.0248801186680793,0.0755950659513473,-0.0146257858723402,0.0833325394476257,0.1044936381369258,2.010004305324568,-6.419878959655762,-21.72634696960449,-38.39373779296875,0.12600392547136283,1015.8978396632667
1.368242919921875,-0.0126500035408884,0.1239581689063459,0.0416191275894641,0.0252361819148063,0.0642446726560592,-0.016917435452342,0.0835534284837661,0.1052287426586678,2.009665344764124,-6.276936531066895,-21.73209571838379,-38.12692260742188,0.12669289869588993,1015.8977608557017
1.378312255859375,0.037533684906736,0.0924810806248336,-0.0540162523478269,0.035685870796442,0.0325015038251876,-0.0157072525471448,0.0838542423338796,0.1057338858847563,2.0093763012709323,-6.246448516845703,-21.542221069335938,-38.372650146484375,0.1273819888739435,1015.897682034759
1.38838134765625,0.0758629771705716,0.0601065320469439,-0.1077466734915971,0.0416604056954383,0.0186213757842779,-0.0092442939057946,0.0842469731927965,0.1060123125567249,2.009203611589259,-6.257169723510742,-21.570051193237305,-38.10687255859375,0.12807106234435045,1015.8976032157275
1.39844921875,0.0491388555698096,0.0457955364912748,-0.0955354266941547,0.045163594186306,0.0085477102547883,-0.0015125144273042,0.084711918991408,0.1061334237879821,2.009002308430194,-6.267927169799805,-21.60860252380371,-38.28488159179688,0.12876005227652415,1015.8975244062514
1.408518310546875,0.0194930743686854,0.0651580432828515,-0.0747574270814657,0.0377067402005195,-0.0104712545871734,0.0014691608957946,0.0851314635021756,0.1061082371262584,2.0088858378060817,-6.1853532791137695,-21.41730117797852,-38.30096435546875,0.12944912574693113,1015.8974455872197
1.418586181640625,0.0175665632855147,0.0747560388419777,-0.0260346049666404,0.0183899011462926,-0.0149519210681319,0.0013223062269389,0.0853939728182124,0.1059546702815343,2.008885541227912,-6.508772850036621,-21.586238861083984,-38.36212158203125,0.13013811567910483,1015.8973667777436
1.4286552734375,0.012723361038044,0.0614919219907373,0.0432768316686153,0.0083905290812253,-0.0068287472240626,-0.0069835605099797,0.0855219822456777,0.1058228771974051,2.0089270666607733,-6.63047981262207,-21.586814880371094,-38.510833740234375,0.13082718914951177,1015.8972879587121
1.43872412109375,0.0139970342356711,0.0459020656056702,0.0875987884759902,0.001696883700788,-0.0033113684039562,-0.007677205838263,0.0855344804282991,0.105784317272068,2.0088929092352177,-6.630220413208008,-21.656917572021484,-38.19659423828125,0.13151624591227207,1015.8972091415916
1.448792236328125,0.0415194666072726,0.0205254861563444,0.0626893881469965,-0.0023252880200743,-0.0027707465924322,-0.000206240452826,0.08549485841415,0.1057388722614943,2.008914744397932,-6.605771064758301,-21.577392578125,-38.324554443359375,0.13222594540480734,1015.8971271487825
1.458861328125,0.0501931138630956,0.0212938401803374,-0.0173749131709337,-0.0043061049655079,-0.0129552017897367,1.51298008859e-05,0.085420347902357,0.1056617376897915,2.008918548903688,-6.494204521179199,-21.423776626586918,-38.04898071289063,0.13307534863747641,1015.8970236798572
1.46893017578125,0.0280607039667665,0.025053996431455,-0.0695727179199457,-0.0068480921909213,-0.0104470364749431,0.0044223950244486,0.085345742619086,0.1055518209105331,2.0090728689554807,-6.648296356201172,-21.466238021850582,-38.5335693359375,0.13392473127505702,1015.8969202134407
1.478998046875,0.0203391698040068,0.0218556387815624,-0.059573886474967,-0.0106740901246666,-0.0015636598691344,0.0089535433799028,0.0852634446187385,0.1054987406798875,2.0091418499424623,-6.517856597900391,-21.666580200195312,-38.3751220703125,0.13477403153228384,1015.8968167570592
1.4890673828125,0.0184345782916992,0.0669864277537912,-0.03905307649374,-0.0213815942406654,-0.008903332054615,0.0049327020533382,0.0851041841677891,0.1054623128913505,2.009222769053481,-6.266167640686035,-21.33869171142578,-38.71450805664063,0.13562345536004133,1015.8967132856253
1.499135009765625,0.0111997316673398,0.0835681447204202,-0.0325450097739696,-0.0286402832716703,-0.022675983607769,-0.0036072968505322,0.0848409709598118,0.1053113152588276,2.009282856841597,-6.499658584594727,-21.52537727355957,-38.391998291015625,0.13647273502217974,1015.8966098317526
1.5092041015625,0.0385023107431828,0.0697458094645291,0.007504676541686,-0.0358598455786705,-0.0284353364259004,-0.0074307969771325,0.0844983793421052,0.1050548178657617,2.009279495926882,-6.516717910766602,-21.578880310058597,-38.605224609375,0.13732213825484876,1015.8965063628274
1.519273193359375,0.0504355443168431,0.0217114810705184,0.0257113643616437,-0.0470571927726268,-0.0383028872311115,-0.0045134238898754,0.0840695365618419,0.1047161312641714,2.009224865146803,-6.383005142211914,-21.612119674682617,-38.44561767578125,0.13817154148751784,1015.8964028939021
1.52934130859375,0.0498061603721231,0.0148358231473714,0.043482583373785,-0.0579154305160045,-0.0433205515146255,0.0026888288557529,0.0835343869241384,0.1042988945572682,2.0093804897524405,-6.803529739379883,-21.53166389465332,-38.297271728515625,0.1390208623398331,1015.8962994350119
1.539409912109375,0.0155832805138081,0.0476616226240992,0.0691530312031507,-0.0640712305903434,-0.0217148773372173,0.0037708939053118,0.0829275526296301,0.1039657532273298,2.009682533917429,-7.0367631912231445,-21.550411224365234,-38.701019287109375,0.13987022438232527,1015.8961959711041
1.549478271484375,-0.0173579620361328,0.0679583415258675,0.0586772298961877,-0.0545720048248767,-0.0010617985390126,0.0133108701556921,0.0823248978461596,0.1038549498300289,2.010021606492811,-6.912757873535156,-21.346607208251957,-38.637054443359375,0.14071956582972897,1015.8960925097052
1.559547119140625,0.0258258575867861,0.0725004419349134,-0.0236778127074241,-0.0367650166153907,-0.0085169002413749,0.0217032507061958,0.0818863224637881,0.1038113365140517,2.01041664115061,-6.87930965423584,-21.410348892211918,-38.832305908203125,0.14156894846730958,1015.8959890432888
1.5696162109375,0.03703187286444,0.0848023626904934,-0.0563987635701894,-0.0175298023968935,-0.0178499482572078,0.0283710062503814,0.0816446028039132,0.1036570751802221,2.01095826020004,-7.105902671813965,-21.357175827026367,-38.58612060546875,0.14241835169997866,1015.8958855743634
1.57968408203125,-0.0104105540510267,0.0823608878225088,-0.0364577993035316,-0.0016538202762603,-0.0020823092199862,0.0275938212871551,0.0815632162771356,0.1035339958548285,2.011385206381461,-6.842127799987793,-21.328691482543945,-38.365631103515625,0.14326765195720548,1015.8957821179821
1.589753173828125,-0.0263311036951839,0.0654107759349048,-0.0072182608157396,0.0029819440096616,0.0116188544780015,0.0193729102611541,0.081589636562669,0.1036018556136599,2.01170668829272,-6.74675178527832,-21.33241844177246,-38.48553466796875,0.14411705518987453,1015.8956786490568
1.599822265625,-0.0150394559606909,0.0525442800991237,-0.0001899696141481,0.0036796415224671,0.0078348815441131,0.0164932385087013,0.0816358013007522,0.1037183089472729,2.0119576460674677,-6.657712936401367,-21.25021171569824,-38.563232421875,0.14496645842254358,1015.8955751801316
1.60989013671875,0.0158663352388888,0.0509475854922086,0.0473211386233568,-0.0047756284475326,0.0049749123863875,0.0148354200646281,0.0816408525880135,0.1037870401753053,2.012230155377549,-6.758297920227051,-21.242456436157227,-38.5556640625,0.1458157586797704,1015.8954717237501
1.619958984375,0.0220960964739322,0.0489097229890525,0.071021163162589,-0.0220222081989049,0.0012053633108735,0.0089607490226626,0.0815242003891933,0.103822480392895,2.012365190376521,-6.659187316894531,-21.28081321716309,-38.15109252929688,0.146665141317351,1015.8953682573336
1.63002734375,0.0524302252653986,0.0318348156780004,0.0404722956418991,-0.0310170371085405,-0.0098659303039312,0.0076632564887404,0.0812316723668006,0.1037781751960302,2.0124671154025764,-6.777362823486328,-21.213342666625977,-37.88067626953125,0.14751448276475473,1015.8952647959346
1.640095947265625,0.0551671759486198,0.0235845814660191,-0.0113426472693681,-0.0380443781614303,-0.0148232635110616,0.0019721868447959,0.0808621867706499,0.1036628338894713,2.0125198361106604,-6.464303970336914,-21.28704643249512,-38.443206787109375,0.1483638448072469,1015.8951613320269
1.650163818359375,0.0320296075977385,0.0247038678195327,-0.019625322446227,-0.0383695513010025,-0.0280392002314329,3.84654849767e-05,0.0804562106629414,0.1034381742367081,2.012564532860448,-6.488851547241211,-21.242647171020508,-38.42437744140625,0.14921314506447375,1015.8950578756455
1.660231689453125,0.0311267404738813,0.0338342458669096,0.00432663102746,-0.0358261093497276,-0.0286702364683151,0.006746154744178,0.080058451733251,0.1031429624670513,2.012662513215935,-6.55002498626709,-21.23927879333496,-38.5301513671875,0.15006244532170057,1015.8949544192641
1.670301025390625,0.011640315041691,0.0232787303872406,0.0010135609567165,-0.0311724990606308,-0.0291493386030197,0.0135215036571025,0.0797134079083363,0.1028357694318858,2.012959035891273,-6.925938606262207,-21.340843200683597,-38.904693603515625,0.15091186914945806,1015.89485094783
1.68036962890625,0.0045181350115686,0.0690350308466702,-0.0298462722092866,-0.0272774882614612,-0.0349060446023941,0.0162883456796407,0.0794345207041348,0.102488718493402,2.0131877887292045,-6.6443939208984375,-21.16766166687012,-38.555938720703125,0.15176123119195023,1015.8947474839223
1.69043798828125,0.0142760703727602,0.0893432940557599,-0.0412847810685634,-0.0279384851455688,-0.0278342850506305,0.0188503060489892,0.0791699569416871,0.1021601863923833,2.013449556081631,-6.718670845031738,-21.239288330078125,-38.71234130859375,0.15261057263935393,1015.8946440225234
1.7005068359375,0.0016353461168706,0.0572106644749641,-0.0535638324052095,-0.0243244729936122,-0.0179498344659805,0.0241819079965353,0.0789290948596863,0.1019039867428089,2.0137701804317523,-6.795722007751465,-21.235614776611328,-38.540557861328125,0.15345995527693457,1015.8945405561069
1.71057470703125,0.0255763398051261,0.0503636481244117,-0.0387479560673236,-0.0252360738813877,-0.0098945703357458,0.0295556336641311,0.0787185248332513,0.1017639144289713,2.014071038159938,-6.699082374572754,-21.411333084106445,-38.730987548828125,0.1543092555341614,1015.8944370997255
1.720643798828125,0.0513791087772697,0.0762513189010322,-0.0253664964467287,-0.0190037637948989,-0.0053104739636182,0.0277635641396045,0.0785501906232912,0.1016789407718922,2.014403786634206,-6.698932647705078,-21.26530265808105,-38.53289794921875,0.15515865876683044,1015.8943336308001
1.730712890625,0.0216667651459574,0.0686271076329052,-0.0092459672510623,-0.0172961466014385,0.0106109678745269,0.0216963477432727,0.0783978805544443,0.1016863606561677,2.014678161418154,-6.680519104003906,-21.205739974975582,-38.01806640625,0.1560080619994995,1015.8942301618749
1.74078076171875,0.0089178312752395,0.022938538647443,-0.017931962531805,-0.0200060382485389,0.0180045701563358,0.0137875750660896,0.0782244950750308,0.1018265016709429,2.014910094442123,-6.71888542175293,-21.117340087890625,-38.45574951171875,0.15685736225672633,1015.8941267054935
1.750849853515625,0.021755685538426,-0.0089635701131075,-0.0206108263522386,-0.0206100419163703,0.0105208223685622,0.0061781252734363,0.0780225278566621,0.1019665336361686,2.015035394134684,-6.553088188171387,-20.77837181091309,-38.04953002929688,0.15770676548939538,1015.8940232365683
1.760917724609375,0.0410412546362727,-0.0082986033983528,0.0341267260074615,-0.0243307203054428,0.0045225867070257,0.0075358352623879,0.0777844369586948,0.1020279921221559,2.015128114100749,-6.611294746398926,-21.06502723693848,-38.55694580078125,0.1585560657466222,1015.8939197801868
1.77098681640625,0.0296372325684875,0.003053323156014,0.0843687205135822,-0.0323047563433647,0.0203020814806222,0.0023724986240267,0.0774915458896476,0.1021365978540762,2.0151281239256424,-6.472951889038086,-21.12387466430664,-38.436309814453125,0.15940546897929125,1015.8938163112615
1.781055908203125,-0.0074037734504789,-0.0077124010082334,0.0906628522217273,-0.0406292676925659,0.0331845879554748,0.0083132125437259,0.0771250736072455,0.1024035091838621,2.015188030313731,-6.5653886795043945,-21.09810447692871,-38.44677734375,0.1602548722119603,1015.8937128423363
1.791123779296875,0.0231564922470599,-0.0096687957730144,0.0445376453846693,-0.0407035686075687,0.0331845879554748,0.0076607377268373,0.0767107251136779,0.1027505570826326,2.0153025486971825,-6.533350944519043,-20.853435516357425,-38.35638427734375,0.16110417246918715,1015.8936093859548
1.801193115234375,0.0719730570599436,0.0125324415758252,-0.004011573728919,-0.0378280729055404,0.007413191255182,0.0069985315203666,0.0763184476630416,0.1029592752708525,2.0154098226763297,-6.358778953552246,-20.937715530395508,-38.0294189453125,0.16195359629694464,1015.8935059145208
1.81126171875,0.0540665942955762,0.0192746823776513,-0.0238140063077211,-0.0322665870189666,0.0011734054423868,0.0087903067469596,0.0759520450398644,0.1029820107057392,2.015540859734656,-6.575608253479004,-20.95506477355957,-38.28033447265625,0.1628029583394368,1015.8934024506132
1.821329833984375,0.0007254647303372,0.0087109835915267,-0.0264560452491045,-0.0283416882157325,0.0019137561321258,0.0109953135251998,0.0756521901973699,0.1030022451062867,2.015703086197167,-6.776640892028809,-21.241798400878903,-38.668365478515625,0.16365227919175207,1015.8932989917229
1.83139892578125,-0.0111638566363602,-0.0041604806803166,-0.0489677367866039,-0.0253219306468963,-0.0095695285126566,0.0111825335770845,0.0753917796963405,0.1029610477128691,2.0158499466940483,-6.7616472244262695,-21.23280334472656,-38.4632568359375,0.16450168242442112,1015.8931955227977
1.841466796875,0.0160535283740609,-0.0093467972770333,-0.0578992312610149,-0.025320965796709,-0.0247360933572053,0.0116049563512206,0.0751521615238842,0.1027916735984873,2.0160230569880166,-6.743505477905273,-21.083892822265625,-38.58160400390625,0.16535098268164797,1015.8930920664162
1.851535888671875,0.0152303754229098,-0.0307583455529063,-0.0466582908004522,-0.0307109355926513,-0.0316531211137771,0.0111407665535807,0.0749059601732416,0.1025052005064548,2.016176594422176,-6.891362190246582,-21.37770271301269,-38.51974487304688,0.16620038591431702,1015.892988597491
1.86160498046875,-0.0111848263591527,-0.0501314468037337,-0.0170750534415245,-0.0332649387419223,-0.0353769063949584,0.0114537235349416,0.0746233852824304,0.1021573550921748,2.016226439372434,-6.56070613861084,-21.180923461914062,-38.46011352539063,0.16704978914698607,1015.8928851285657
1.8716728515625,0.0114802291091531,-0.0761615217257291,-0.0198386729359626,-0.0412829145789146,-0.0455789417028427,0.0194061882793903,0.0742721641786098,0.1017322182276248,2.0163180651695733,-6.474479675292969,-21.13652229309082,-38.770599365234375,0.1678990894042129,1015.8927816721844
1.881741943359375,0.0198893071446567,-0.0835118114233016,-0.0126414549082517,-0.0488844476640224,-0.0447657071053981,0.0177808012813329,0.0738571986255475,0.1012646666287771,2.016530922704934,-6.581455230712891,-20.96922874450684,-38.813385009765625,0.16874849263688194,1015.892678203259
1.891810791015625,0.0038503187526017,-0.0757943689137697,0.0057598787009716,-0.0451349802315235,-0.0348952338099479,0.0159024745225906,0.0733916816806652,0.1008488150301795,2.0167547064047784,-6.575835227966309,-20.900808334350582,-38.478424072265625,0.16959787527446255,1015.8925747368426
1.90187890625,0.0025100831247866,-0.0633884763270616,0.0193909291684627,-0.0427126176655292,-0.0191822052001953,0.0149962101131677,0.0729618547336448,0.1005374119148292,2.0169469794421917,-6.372933387756348,-20.61720085144043,-38.511077880859375,0.17044719612677783,1015.8924712779524
1.91194775390625,0.0095935385797172,-0.0577565348546951,0.0278863703131675,-0.0408673137426376,-0.0041776895523071,0.0210043005645275,0.0725585208090217,0.1004062523215901,2.017207001817367,-6.499752998352051,-20.488540649414062,-38.90362548828125,0.17129657876435844,1015.8923678115359
1.922015869140625,-0.0186852651171386,-0.0416832788668572,-0.0031342063724994,-0.0412413626909256,0.0090381130576133,0.0255622863769531,0.0721823875424134,0.100418591333882,2.017497738208375,-6.599847793579102,-20.702129364013672,-38.58270263671875,0.1721458996166737,1015.8922643526457
1.9320849609375,-0.0466188355728983,-0.0062114218607544,-0.0329027371704578,-0.040765456855297,0.0124136703088879,0.0237417481839656,0.0718160161320344,0.1005185639217789,2.017786918932869,-6.640070915222168,-20.853290557861328,-39.05001831054688,0.17299530284934275,1015.8921608837204
1.94215380859375,-0.0232417593777179,0.0549636162005364,-0.0609720628350973,-0.036465048789978,-0.0019423742778599,0.0258295759558677,0.071476733742734,0.100543407641194,2.018151689037285,-6.746018409729004,-20.65194702148437,-38.8179931640625,0.17384468548692336,1015.8920574173039
1.9522216796875,0.0058778059922158,0.0625536329381167,-0.0673731620490551,-0.0367923490703105,-0.0175447687506675,0.0342931002378463,0.0711665330712546,0.1004243096037613,2.018481293768601,-6.556083679199219,-20.590845108032227,-38.668304443359375,0.1746939857441502,1015.8919539609225
1.962291015625,0.013581439172104,0.0216444071836769,-0.0573854365199804,-0.0315266624093055,-0.0150797367095947,0.0336985401809215,0.0708699335031298,0.1002148973489285,2.0189081962437,-6.677075386047363,-20.49602699279785,-38.77716064453125,0.1755434095719077,1015.8918504894884
1.97235888671875,0.0072821928974241,0.0001548252355307,-0.0468266331046819,-0.0192662663757801,-0.0042609116062521,0.030653215944767,0.0706617297786863,0.1001226588370284,2.0192859667668546,-6.7818098068237305,-20.706825256347656,-38.69448852539063,0.17639270982913452,1015.8917470331071
1.982427734375,0.0035983167529106,-0.0099009970936924,0.0048807577788829,-0.0119488071650266,0.0064905229955911,0.0319076776504516,0.0705515703084765,0.1001160166486599,2.019607610401217,-6.566706657409668,-20.91095352172852,-38.290802001953125,0.17724209246671516,1015.8916435666905
1.9924970703125,0.0296288300663232,0.0092113343290984,0.0479541758298873,-0.0070957299321889,0.0072449967265129,0.0358915030956268,0.0705167691044111,0.1001625550614206,2.0198615614081428,-6.622713088989258,-20.88405990600586,-38.56890869140625,0.17809151629447262,1015.8915400952566
2.00256494140625,0.0240878548130393,0.0177941614963114,0.0832405932664871,-0.009780429303646,0.0084880143404006,0.0351992025971412,0.0704916402545956,0.1002089544238204,2.0202157349494976,-6.732192039489746,-20.776491165161133,-38.869903564453125,0.17894081655169947,1015.8914366388751
2.012634033203125,0.0122872346431016,0.0167925101730972,0.1037795234262943,-0.0188759230077266,0.003461830317974,0.0284888371825218,0.0703739461971063,0.1002521068562722,2.020514603282921,-6.679385185241699,-20.815465927124023,-38.79049682617188,0.17979021978436852,1015.8913331699498
2.022702880859375,0.0182370098929852,-0.0006759265001863,0.0791734899580478,-0.0363166816532611,-0.0071881166659295,0.0259304698556661,0.0701179142948993,0.1001924656572646,2.020822630628605,-6.932802200317383,-21.08920669555664,-38.64703369140625,0.18063960242194912,1015.8912297035333
2.03277099609375,0.0471278810735791,-0.0423622010417282,0.0937608182370662,-0.0477613508701324,-0.0087828170508146,0.0282615348696708,0.0697113091609709,0.1000962500463006,2.021136089143037,-6.900908470153809,-20.86700439453125,-38.48406982421875,0.18148892327426439,1015.8911262446431
2.04283984375,0.0518465801585465,-0.0627936522390693,0.0938847368776798,-0.0561579689383506,-0.0120378751307725,0.0249788165092468,0.06921360477821,0.1000077061167144,2.021460262654034,-7.0001726150512695,-20.866628646850582,-38.35763549804688,0.182338305911845,1015.8910227782267
2.052907958984375,0.0113646399054676,-0.027604776892811,0.051602761465311,-0.0583066120743751,-0.0133619979023933,0.023910891264677,0.0686654314819287,0.0998583917661451,2.02173491629118,-6.80222225189209,-20.839513778686523,-38.71136474609375,0.18318762676416028,1015.8909193193365
2.062976806640625,0.0083503335855901,-0.0084919340133666,0.0322118322968483,-0.0537601932883262,-0.0148621723055839,0.0222121402621269,0.0681259572187756,0.0997031972333395,2.022064848274677,-6.751156806945801,-20.43434715270996,-38.796142578125,0.1840370094017409,1015.89081585292
2.0730458984375,0.0092714670184999,-0.0032714959513396,0.0055927054405212,-0.0454391464591026,-0.0104628968983888,0.0186182055622339,0.0676348242703494,0.099559127275063,2.0222970357747143,-6.701266288757324,-20.63130569458008,-39.07452392578125,0.18488641263440994,1015.8907123839947
2.08311376953125,0.0031444355055689,-0.0371837024252861,-0.0091845924526453,-0.0365462377667427,-0.0029923373367637,0.0175099857151508,0.0672428614107079,0.0994787987033322,2.0225207193555663,-6.673127174377441,-20.40794563293457,-38.85934448242188,0.18573571289163676,1015.8906089276134
2.09318310546875,0.0102989103700965,-0.0617592676900327,-0.0055815995246171,-0.0257247518748044,0.0185555666685104,0.0213236324489116,0.0669487178647711,0.0995104604016063,2.0227429208130907,-6.898283958435059,-20.10249900817871,-38.66403198242188,0.18658513671939425,1015.8905054561793
2.103251708984375,-0.0629270693603903,-0.0166812318183481,0.0530740030616521,0.0003299294039607,0.0418893694877624,0.0243238247931003,0.0668760501848507,0.099868928339833,2.022981996509809,-6.889948844909668,-20.10881996154785,-38.83160400390625,0.18743449876188645,1015.8904019922716
2.11331982421875,-0.056864408320561,0.0258454390700906,-0.0696843616008758,0.0005882559344172,0.0217023454606533,0.0232990402728319,0.0669249508019237,0.1001994689828974,2.0232122915303514,-6.641289710998535,-20.19750022888184,-38.72955322265625,0.1882838196142017,1015.8902985333814
2.123388916015625,0.0408335301697254,-0.0285385506115853,-0.05865443354249,-0.0122574716806411,0.0147119350731372,0.0266936272382736,0.066918251837895,0.1004008249522291,2.023560137684381,-6.839053153991699,-20.383695602416992,-39.069854736328125,0.18913322284687076,1015.8901950644561
2.13345703125,0.0162486125547438,-0.0711949853595346,-0.0438040704131126,-0.0239404905587434,-0.0019437405280768,0.0157211385667324,0.066764328304217,0.100465822987151,2.0240353763848757,-7.087034225463867,-20.244688034057617,-39.212188720703125,0.18998254369918602,1015.8900916055659
2.143525634765625,0.0149108611449599,-0.0726187345523387,-0.1248240650206804,-0.0335924066603183,-0.0331631563603878,0.0114930905401706,0.0664811909282156,0.1002631848399097,2.0243191975840835,-6.799174308776856,-20.162006378173828,-39.16812133789063,0.1908319057416782,1015.8899881416581
2.153594970703125,0.0154793086826801,-0.0751332746565341,-0.1032645596414804,-0.0332472585141658,-0.0447622910141944,0.0095327384769916,0.0661630448253292,0.0998491917336355,2.0245133641851147,-6.632865905761719,-20.049224853515625,-38.95474243164063,0.1916813295694357,1015.8898846702242
2.163662841796875,-0.0137348031029105,-0.0575291558396071,-0.0178366854637861,-0.0270513445138931,-0.0339395776391029,0.0045369416475296,0.065882353609544,0.0994359529081863,2.024615471788404,-6.805817604064941,-20.090951919555664,-38.81817626953125,0.19253062982666252,1015.8897812138428
2.17373193359375,-0.0285804169919341,-0.0588718026202172,0.0586626168489456,-0.0264063253998756,-0.0022183994296938,0.0132204433903098,0.0656381044814377,0.099253179445271,2.024726747730774,-6.916454315185547,-19.97264289855957,-38.81951904296875,0.19338003305933157,1015.8896777449174
2.18380078125,0.0015868308000266,-0.0873687060471624,0.0987123031646013,-0.0296899117529392,0.017552888020873,0.0279051344841718,0.0653867250453869,0.0993191165212283,2.0249648546105146,-6.809604644775391,-20.063587188720703,-38.8193359375,0.19422941569691218,1015.889574278501
2.193868896484375,0.0107248806972056,-0.0671209408536553,0.0583756166011095,-0.0321637205779552,0.0158473998308181,0.031419176608324,0.0651009588210621,0.0994391531054562,2.0253006471428816,-6.713370323181152,-20.079790115356445,-38.6400146484375,0.19507873654922747,1015.8894708196108
2.203937744140625,0.0058734220780432,-0.0081685472778975,0.0395569343626499,-0.0316707789897918,0.0146418176591396,0.0324658975005149,0.0648252207496094,0.0995821366556999,2.025664140786493,-6.826929092407227,-19.883983612060547,-38.90771484375,0.19592811918680808,1015.8893673531943
2.214005859375,0.0162416713573038,0.0076907006330788,-0.0091243866980075,-0.0286675319075584,-0.0033030945342034,0.0346829779446125,0.0645803349000839,0.0996375834659004,2.0260444603222534,-6.813106536865234,-19.919042587280277,-38.94595336914063,0.19677744003912334,1015.8892638943041
2.22407470703125,-0.0103782592166215,0.0281770238228142,-0.0300894333153963,-0.0205206405371427,-0.0241938754916191,0.0356633923947811,0.0643954125958696,0.0994657552467837,2.026510203508561,-6.905222892761231,-20.19759750366211,-38.844085693359375,0.19762682267670395,1015.8891604278876
2.234143798828125,-0.0143831109438091,-0.008410612405464,-0.0260749369770288,-0.0169868897646665,-0.0388170257210731,0.0281580705195665,0.0642500293003619,0.0991231377613672,2.026842363078825,-7.017195701599121,-20.333127975463867,-38.497802734375,0.198476225909373,1015.8890569589623
2.244211669921875,0.001600128673017,-0.0450156381599605,-0.0338128377526998,-0.0114099280908703,-0.0486112125217914,0.0187074355781078,0.0641487395971303,0.0986797705998116,2.0270887939315188,-6.812329292297363,-20.22823143005371,-38.611236572265625,0.19932552616659982,1015.888953502581
2.254281005859375,0.0265469384029507,-0.0516566105443984,0.0146603935152292,-0.014303452335298,-0.0542355440557003,0.0126655241474509,0.0640511774583188,0.0981304090188236,2.0272636555494468,-6.9314727783203125,-20.105154037475582,-38.5233154296875,0.2001749499943573,1015.888850031147
2.264349853515625,0.0385694576952606,-0.0448596438806504,0.0762847827792167,-0.0193745233118534,-0.048093095421791,0.0085293520241975,0.0639200382702524,0.0976172937621247,2.0273823679613154,-6.920833587646484,-19.955530166625977,-38.701019287109375,0.20102433263193795,1015.8887465647305
2.274417724609375,0.0311074512515217,-0.0476177834823727,0.1003378585398197,-0.0313510224223136,-0.0426756925880909,0.0005555818788707,0.063684072597757,0.0971836176812884,2.027466304242881,-6.878508567810059,-20.063968658447266,-38.54022216796875,0.20187363288916477,1015.888643108349
2.284487060546875,0.0264385095924139,-0.0285768367953598,0.0865840584754943,-0.0517376735806465,-0.0298163723200559,-0.0055853542871773,0.0632597490850507,0.0968154186081714,2.0276001778387034,-7.103875160217285,-20.198162078857425,-38.77716064453125,0.20272305671692226,1015.888539636915
2.294554931640625,0.0270445126615464,-0.0407053006801754,0.0619412001281976,-0.0738712102174758,-0.0237563494592905,-0.0088967289775609,0.0626168058022956,0.0965495942845793,2.027600367208998,-6.874866485595703,-20.138208389282227,-38.92034912109375,0.2035723569741491,1015.8884361805335
2.304623779296875,0.0106572222884744,-0.0416236576341092,0.0098316581845283,-0.0839301794767379,-0.0264664944261312,-0.0096991397440433,0.0618197157795675,0.0963069144389728,2.0275839620500324,-6.902299880981445,-20.09482765197754,-38.81124877929688,0.2044217396117297,1015.888332714117
2.31469287109375,-0.0048342152234166,-0.0140655328946188,-0.0152624510616064,-0.0784355476498603,-0.0385995879769325,-0.0153189413249492,0.0609967224163748,0.0959875840539658,2.027544346895668,-6.649444580078125,-19.924057006835938,-38.85137939453125,0.20527114284439876,1015.8882292451918
2.324760986328125,-0.017269333904609,0.0057161126244813,-0.050819502133131,-0.0590394921600818,-0.0415603443980217,-0.0180839337408542,0.0602965338177633,0.0955704116051845,2.027411835862894,-6.77430534362793,-20.020418167114254,-38.926361083984375,0.20612046369671402,1015.8881257863017
2.334829833984375,-0.0351784270174801,-0.0260787729019299,-0.0776209998190402,-0.0292943790555,-0.0352939255535602,-0.0164333060383796,0.0598764750864114,0.0952099356274086,2.027213646499288,-6.872445106506348,-20.244712829589844,-38.91961669921875,0.20696984633429463,1015.8880223198851
2.34489892578125,-0.0317592662237584,-0.0533296583231538,-0.0988268694549798,0.0016290741041302,-0.0297558959573507,-0.012842453084886,0.059752468724014,0.0949197848368082,2.0271164461621862,-6.903127670288086,-19.947656631469727,-39.237060546875,0.20781924956696368,1015.8879188509599
2.354966796875,-0.0267365426909178,-0.0681357073867693,-0.0476245054841041,0.0109804980456829,-0.0244317054748535,-0.013095187023282,0.059829722873776,0.0946812096315817,2.0269760045456167,-6.711508750915527,-19.90082550048828,-39.604736328125,0.20866854982419053,1015.8878153945784
2.365035888671875,-0.0045675271112471,-0.0662885086175054,0.0337204832941293,0.0079992972314357,-0.013806615024805,-0.0176376327872276,0.0599419914789179,0.0945106215482415,2.0269054143800167,-7.06024169921875,-20.03276634216309,-39.41412353515625,0.20951795305685958,1015.8877119256532
2.375103759765625,0.0188069187354296,-0.0580959594095125,0.0912257468014955,-0.0039239404723048,-0.0037316100206226,-0.0205173101276159,0.0599687273518623,0.094446170555241,2.026711891697495,-7.04758358001709,-20.35081672668457,-39.209075927734375,0.2103672533140864,1015.8876084692718
2.3851728515625,0.0462521942175924,-0.0754256451992318,0.0881347950488328,-0.0225830860435962,0.0021842210553586,-0.0205740742385387,0.0598187567969325,0.0944850714388411,2.026547067272017,-7.184076309204102,-20.384092330932617,-38.78521728515625,0.21121665654675545,1015.8875050003466
2.39524169921875,0.0461062098756432,-0.1120463799795135,0.0439396794915199,-0.0313161239027977,0.0093872733414173,-0.0212542451918125,0.0595324582153836,0.0945598461474364,2.026415419540313,-7.181169509887695,-20.340118408203125,-39.14816284179688,0.21206603918433606,1015.88740153393
2.405309814453125,0.0301988850392401,-0.1287063498141244,0.0012052841365337,-0.0350197851657867,0.0214211195707321,-0.024385891854763,0.0591757630193002,0.0947160735950655,2.0262885992815085,-7.115653991699219,-20.176034927368164,-39.449127197265625,0.21291536003665135,1015.8872980750398
2.41537890625,0.0482184527892619,-0.1139305497583001,0.000441898548603,-0.0318860411643981,0.0274601057171821,-0.0204955469816923,0.0588202810715178,0.0949532711190664,2.026117652558056,-7.084847450256348,-20.233200073242188,-39.051116943359375,0.2137647632693204,1015.8871946061146
2.42544775390625,0.1052362981058657,-0.1197223579674959,0.0208399589329957,-0.0315956696867942,0.0346301421523094,-0.0180330630391836,0.0585037953606667,0.0952579846744619,2.0260711986212043,-7.170295715332031,-20.05969619750977,-39.12396240234375,0.214614145906901,1015.8870911396981
2.435515625,0.1471839269973337,-0.1311856359418481,0.0662006111383438,-0.0318249650299549,0.029112072661519,-0.0161587297916412,0.0581888235768257,0.0955889805777557,2.02606848075735,-7.198784828186035,-20.04007148742676,-38.966796875,0.21546344616412783,1015.8869876833166
2.4455849609375,0.1695202619679272,-0.1450419099999591,0.0886088423013687,-0.0339617319405078,0.0140881016850471,-0.018079025670886,0.0578586935777225,0.0958286834902231,2.0259925845701265,-7.175859451293945,-20.22188186645508,-38.90301513671875,0.21631286999188531,1015.8868842118826
2.45565380859375,0.1878947806354612,-0.1647245155913755,0.1031038161218166,-0.0373258367180824,0.0003749532625079,-0.0202526971697807,0.0574989739077918,0.09590662394625,2.025860674896977,-7.0994062423706055,-20.234743118286133,-38.903106689453125,0.2166690826416015,1015.8868408203124
2.4657216796875,0.1908065764289349,-0.1688497057626024,0.1338940911829471,-0.0457311645150184,-0.0089425146579742,-0.025000300258398,0.0570929185870613,0.0958666328815762,2.0256963971596087,-7.033546447753906,-20.191606521606445,-39.0333251953125,0.2166690826416015,1015.8868408203124
2.475791015625,0.200924431143701,-0.1702204095939174,0.1545341436296701,-0.0619532726705074,-0.0239414367824792,-0.0272464100271463,0.0565555498598486,0.0957160589860775,2.025486657825744,-6.841849327087402,-19.969240188598636,-39.12057495117188,0.2166690826416015,1015.8868408203124
2.48585888671875,0.195576128918305,-0.1724663253571838,0.1367056414723396,-0.074644386768341,-0.0288745053112506,-0.0328210219740867,0.055882963545204,0.0954935172146834,2.025257134118847,-7.128426551818848,-20.38770866394043,-39.037628173828125,0.2166690826416015,1015.8868408203124
2.495927978515625,0.2041252730116248,-0.1592568978352472,0.0967155763894319,-0.0784548372030258,-0.0364197753369808,-0.0360735431313514,0.0551077863704983,0.09518032557998,2.0250169169177035,-7.061160087585449,-20.14529228210449,-39.2724609375,0.2166690826416015,1015.8868408203124
2.505996826171875,0.2285832032460719,-0.1765986028563231,0.0687163933515548,-0.0737770721316337,-0.0386587344110012,-0.0380080230534076,0.0543453614173864,0.0948317578770792,2.024716605690456,-7.013677597045898,-19.932403564453125,-38.872833251953125,0.2166690826416015,1015.8868408203124
2.51606494140625,0.2491348467569798,-0.1828734088094905,0.0747591806471347,-0.0677404850721359,-0.0321992374956607,-0.0372942984104156,0.0536281699272028,0.0945311636742691,2.02440019268862,-6.846880912780762,-19.76537322998047,-38.7059326171875,0.2166690826416015,1015.8868408203124
2.5261337890625,0.2519808107726276,-0.1859620224745944,0.0817547386229038,-0.0619503930211067,-0.0317932404577732,-0.0347896106541156,0.0529918796500778,0.0942820796591445,2.0240938843689795,-6.773647308349609,-19.693021774291992,-38.798126220703125,0.2166690826416015,1015.8868408203124
2.536201904296875,0.254079463552311,-0.1870376888820901,0.0815197608232498,-0.0526407808065414,-0.0323551669716835,-0.0372037664055824,0.052438920026565,0.0940333731309679,2.0237851737214547,-6.791512489318848,-19.723953247070312,-38.7684326171875,0.2166690826416015,1015.8868408203124
2.546270751953125,0.2199514223705977,-0.2214947062898427,0.1504115107417106,-0.0427190586924552,-0.0092623513191938,-0.0397535860538482,0.0519611305804616,0.0939093374475104,2.02342301258493,-6.950905799865723,-19.98701286315918,-38.908477783203125,0.2166690826416015,1015.8868408203124
2.55633984375,0.1889010350685566,-0.2391209638733416,0.1280085402756929,-0.0342968106269836,-0.0113153830170631,-0.0453944280743598,0.0515975917102385,0.0938999445384518,2.023019467740578,-6.75057315826416,-19.910171508789062,-38.755401611328125,0.2166690826416015,1015.8868408203124
2.56640771484375,0.2718951062280684,-0.2367400235535577,0.0863239462345838,-0.0322825163602829,-0.0112808933481574,-0.0373412780463695,0.0512753798496621,0.0938426220828511,2.0226286702527863,-6.656923294067383,-19.885637283325195,-38.916259765625,0.2166690826416015,1015.8868408203124
2.57647705078125,0.2691526756521314,-0.2340129366772249,0.1463970144033431,-0.0310822334140539,-0.0159691218286752,-0.0421743839979171,0.0509732359602966,0.0937694530987188,2.0221764448247908,-6.732595443725586,-19.9246768951416,-39.092559814453125,0.2166690826416015,1015.8868408203124
2.586545654296875,0.2476236384764313,-0.2181415599370375,0.1647913337498903,-0.0362539887428283,-0.0296235531568527,-0.0480871796607971,0.050653388943392,0.0936278918596353,2.0216734949732458,-6.748904228210449,-19.963153839111328,-39.34542846679688,0.2166690826416015,1015.8868408203124
2.59661376953125,0.2650064426928758,-0.2103971928879618,0.1375689803034067,-0.0440562516450881,-0.0452616326510906,-0.0430548675358295,0.0502676750399851,0.0933319549775626,2.0211502942581308,-6.647966384887695,-19.83209991455078,-39.15008544921875,0.2166690826416015,1015.8868408203124
2.606682861328125,0.2995290361501276,-0.2237923887729644,0.0937514658868312,-0.0526614114642143,-0.0561116151511669,-0.0415618419647216,0.049786149476955,0.0929045301854682,2.020788756530716,-6.817680358886719,-19.68177604675293,-39.415069580078125,0.2166690826416015,1015.8868408203124
2.616751953125,0.2893951801486313,-0.2484436130898073,0.0551110618472099,-0.0583491250872612,-0.0623705759644508,-0.0467315688729286,0.0492401399604129,0.0924067843497065,2.020473906498069,-6.913139343261719,-19.529800415039062,-39.24819946289063,0.2166690826416015,1015.8868408203124
2.626819580078125,0.2712061741158366,-0.2574391857763752,0.0002098433583974,-0.0571931190788745,-0.0642947182059288,-0.0521549247205257,0.0486731167818088,0.0918603856567393,2.0201702392960077,-7.065481185913086,-19.490901947021484,-39.28732299804688,0.2166690826416015,1015.8868408203124
2.636888916015625,0.270705165791139,-0.2531436440069228,-0.0312310045659542,-0.04244240000844,-0.0609042458236217,-0.0545672141015529,0.04819505434272,0.091295993222056,2.019668249739432,-7.069039344787598,-19.547990798950195,-38.9622802734375,0.2166690826416015,1015.8868408203124
2.646957275390625,0.2599435332801192,-0.249625662481226,-0.0146592244714498,-0.034377209842205,-0.0403844341635704,-0.0534678362309932,0.0478209363839449,0.0908635695089602,2.019151490819498,-6.847115516662598,-19.606876373291016,-38.82080078125,0.2166690826416015,1015.8868408203124
2.657026123046875,0.2263746603511273,-0.2503310342716053,-0.0104465752124786,-0.038560502231121,-0.0123807610943913,-0.0521256029605865,0.0474739531525838,0.0906831207659983,2.018675191525816,-6.9273786544799805,-19.62234687805176,-39.18258666992188,0.2166690826416015,1015.8868408203124
2.667095458984375,0.1877945351313799,-0.2653739973636344,-0.063997548136115,-0.0292311832308769,0.0189891457557678,-0.0546790398657321,0.0471450738352084,0.0908323870292921,2.0182531084123787,-7.12880802154541,-19.682344436645508,-39.120452880859375,0.2166690826416015,1015.8868408203124
2.677163330078125,0.1397431825373321,-0.2318869209665805,-0.117183779400587,-0.0264268741011619,0.0346858203411102,-0.0549658611416816,0.0468668758136161,0.0912164932288266,2.017837542675604,-7.055843353271484,-19.48661422729492,-39.373870849609375,0.2166690826416015,1015.8868408203124
2.687232177734375,0.1052962846647947,-0.1621990887669846,-0.177802206492424,-0.0121900467202067,0.0308261960744857,-0.0557564422488212,0.0466791517431046,0.0916636332548491,2.017317554588127,-6.8260908126831055,-19.45017433166504,-39.3868408203125,0.2166690826416015,1015.8868408203124
2.69730126953125,0.083255133248493,-0.1085849144140258,-0.183320677652955,-0.0005541639402508,0.0176771041005849,-0.0585335865616798,0.0466225313718228,0.0920054286683183,2.016745602510015,-6.649019241333008,-19.54155158996582,-39.132904052734375,0.2166690826416015,1015.8868408203124
2.707369384765625,0.0627202947419136,-0.0539518453421071,-0.1740910770148038,0.0103152524679899,0.0021816492080688,-0.0610002987086772,0.0466851989573596,0.0921933170830801,2.0161571133655958,-6.642854690551758,-19.299394607543945,-39.347991943359375,0.2166690826416015,1015.8868408203124
2.717438232421875,0.0398998295161873,-0.0387236984089016,-0.1589385160684585,0.0223924219608306,-0.0129120824858546,-0.0666190385818481,0.0468496702984463,0.0922324501902387,2.0154933387349923,-6.371082305908203,-19.090805053710938,-38.93798828125,0.2166690826416015,1015.8868408203124
2.72750634765625,0.0575617429349571,-0.0401525256356224,-0.1245551849514245,0.0323134958744049,-0.0246201381087303,-0.0685194656252861,0.0471315244742277,0.0921258161288262,2.0147831091036266,-6.611017227172852,-19.29342269897461,-38.96856689453125,0.2166690826416015,1015.8868408203124
2.7375751953125,0.0714974023722112,-0.0546325576152652,-0.0808241797745227,0.0389255918562412,-0.0288423132151365,-0.0710694417357444,0.0474711496038813,0.0919105470044912,2.014036720376944,-6.602882385253906,-19.45660400390625,-39.24420166015625,0.2166690826416015,1015.8868408203124
2.747644287109375,0.040485082058236,-0.0804881527531892,-0.0039437691897153,0.0495190992951393,-0.0288981236517429,-0.0794152021408081,0.0479173939815896,0.0917168938146172,2.013231533114072,-6.6423749923706055,-19.55478858947754,-39.06842041015625,0.2166690826416015,1015.8868408203124
2.757712158203125,0.0247030641019344,-0.085527608225122,0.0531821396112442,0.0583107285201549,-0.0348681323230266,-0.0905557349324226,0.0484417222789949,0.0914809546915868,2.012297291886264,-6.634697914123535,-19.63327407836914,-39.369476318359375,0.2166690826416015,1015.8868408203124
2.76778125,0.0172956373896449,-0.0720890846550464,0.1343178695529699,0.0595015287399292,-0.0423961952328681,-0.1015491932630539,0.0489887436295266,0.0911536022199973,2.011361088023159,-6.860285758972168,-19.63097381591797,-39.48944091796875,0.2166690826416015,1015.8868408203124
2.77785009765625,-0.0335201384164392,-0.037954102275893,0.1812637451231479,0.0540947802364826,-0.0467608496546745,-0.1223540753126144,0.0494794108042616,0.0907660371002344,2.0102028136015915,-6.66514778137207,-19.646507263183597,-39.5933837890625,0.2166690826416015,1015.8868408203124
2.787918212890625,-0.090987481066212,-0.0269574919652193,0.2243646357029676,0.0514812655746936,-0.0489678308367729,-0.1383263319730758,0.0498840895025146,0.0903696783261558,2.0088158981634328,-6.56060791015625,-19.64013290405273,-39.26171875,0.2166690826416015,1015.8868408203124
2.7979873046875,-0.0869333103045821,-0.0565125261429697,0.1906102501392364,0.061790894716978,-0.0610442012548446,-0.1504357308149337,0.0503040694142897,0.0898946052366059,2.0073337643174387,-6.628192901611328,-19.59586524963379,-39.4193115234375,0.2166690826416015,1015.8868408203124
2.808055419921875,-0.0862351719725877,-0.0258584446821361,0.2033446440279483,0.0844482034444809,-0.0624648854136467,-0.1615246087312698,0.0508824397083018,0.0893808092015048,2.00567985566474,-6.581681251525879,-19.744726181030277,-39.541290283203125,0.2166690826416015,1015.8868408203124
2.8181240234375,-0.1319734983839094,-0.0232959737829864,0.217705762335658,0.1073977276682853,-0.0501275286078453,-0.1721096187829971,0.051694121785504,0.0889191365949328,2.003885942272811,-6.504650115966797,-19.75109100341797,-39.353546142578125,0.2166690826416015,1015.8868408203124
2.828193359375,-0.214325983704254,-0.0442985393991693,0.2993254764020442,0.1180183589458465,-0.0356901213526725,-0.1860745847225189,0.0526818516005937,0.0886068974607886,2.00199715978554,-6.563213348388672,-19.706052780151367,-39.1390380859375,0.2166690826416015,1015.8868408203124
2.83826123046875,-0.3248734668955206,-0.0902903656475245,0.4351140030294656,0.1228179112076759,-0.0289432685822248,-0.1990367174148559,0.0537460643325848,0.0884089441234239,2.0000112384206243,-6.691493988037109,-19.832521438598636,-39.02944946289063,0.2166690826416015,1015.8868408203124
2.848330078125,-0.4515836379237473,-0.1826843159781769,0.5597556972205638,0.1163264065980911,-0.0147370249032974,-0.2014110833406448,0.0547782916512951,0.0883031547447681,1.997812141959638,-6.307956695556641,-19.866113662719727,-39.14761352539063,0.2166690826416015,1015.8868408203124
2.8583994140625,-0.5498422790367156,-0.3064945277811959,0.6186901167482137,0.1116014271974563,0.0152890495955944,-0.2010502368211746,0.0557349430090351,0.0884251095048755,1.9956901602172483,-6.241642951965332,-20.08440971374512,-38.851959228515625,0.2166690826416015,1015.8868408203124
2.86846728515625,-0.6216081961520016,-0.4051528357362374,0.6424474244326353,0.1016904190182685,0.0229484438896179,-0.1986825615167617,0.0566318265067406,0.0887609781578938,1.993596226373926,-6.34965705871582,-20.17019462585449,-38.806427001953125,0.2166690826416015,1015.8868408203124
2.878536376953125,-0.6444701624318957,-0.4379147396638989,0.5989180793076754,0.0853476673364639,0.0249948184937238,-0.2010016441345214,0.0573968960491826,0.0891144498047693,1.9915436209058728,-6.4469757080078125,-20.02686309814453,-39.025787353515625,0.2166690826416015,1015.8868408203124
2.888605224609375,-0.6535930878251791,-0.4251864832550287,0.5165940163642168,0.0392088741064071,0.0359458811581134,-0.2052849680185318,0.0578563484707929,0.0895306353964244,1.9895947998699357,-6.512399673461914,-19.95041847229004,-39.420989990234375,0.2166690826416015,1015.8868408203124
2.898673095703125,-0.6436299122154713,-0.304929799215123,0.369017436787486,-0.0359452664852142,0.0340414531528949,-0.2233356088399887,0.0576981974874426,0.0900119524355675,1.9874951148659796,-6.340775489807129,-20.09782600402832,-39.2274169921875,0.2166690826416015,1015.8868408203124
2.908742431640625,-0.6022802492171525,-0.1239198461899533,0.1170464167565107,-0.1238732486963272,-0.0113432221114635,-0.2451489269733429,0.0566842037242559,0.0902931877360848,1.985243054337802,-6.256365776062012,-20.10609436035156,-39.2080078125,0.2166690826416015,1015.8868408203124
2.91881005859375,-0.5670190392870456,-0.0404514355169609,-0.2176969945073127,-0.1918693482875824,-0.0565069690346717,-0.2757552862167358,0.0548472939764819,0.0900745465484597,1.9827735999516385,-6.230878829956055,-20.276466369628903,-39.009063720703125,0.2166690826416015,1015.8868408203124
2.928879150390625,-0.5840162051867693,0.1139214531363919,-0.5040232886046171,-0.2226734459400177,-0.1164214462041854,-0.3031570017337799,0.0525039142705613,0.0893358207115427,1.980026542568383,-6.055649757385254,-20.06770896911621,-39.225372314453125,0.2166690826416015,1015.8868408203124
2.938948486328125,-0.64856532279104,0.1765020106140524,-0.6943570598900318,-0.2128831297159195,-0.170394942164421,-0.3272151947021484,0.0500320064597375,0.0879957082540694,1.976968376575816,-5.853598594665527,-19.928455352783203,-39.55923461914063,0.2166690826416015,1015.8868408203124
2.94901611328125,-0.7432480051133781,0.1512728402787819,-0.691449063488841,-0.1687102615833282,-0.209781065583229,-0.3437131643295288,0.0478229118070597,0.086172821997448,1.9736703896716927,-5.836306571960449,-19.881736755371094,-39.42739868164063,0.2166690826416015,1015.8868408203124
2.95908544921875,-0.8563266142174601,0.05591167417299,-0.5080073898047208,-0.1067629978060722,-0.1978533118963241,-0.3513194024562835,0.046138302399236,0.0842447908577752,1.9701811503328748,-5.775856018066406,-19.738344192504883,-39.582550048828125,0.2166690826416015,1015.8868408203124
2.969154296875,-0.9068792821079492,-0.0764147293018177,-0.1701075603365898,-0.0712181404232978,-0.1428280174732208,-0.3473516404628753,0.0449726584581203,0.0826590220359313,1.9667911658491708,-6.265840530395508,-19.83875274658203,-39.44793701171875,0.2166690826416015,1015.8868408203124
2.97922216796875,-0.8776646588657051,-0.2763419661017134,0.1510018778502941,-0.078638769686222,-0.0754100978374481,-0.3211376070976257,0.0439634127474413,0.0817321615856883,1.9634740118334,-6.143518447875977,-19.908626556396484,-39.07809448242188,0.2166690826416015,1015.8868408203124
2.989291259765625,-0.7833961103022098,-0.4265525839764624,0.2415963410109281,-0.1348536908626556,-0.036811176687479,-0.2954825460910797,0.0426525339636113,0.0812221547387177,1.9603852990731052,-5.962223052978516,-19.88883399963379,-39.350982666015625,0.2166690826416015,1015.8868408203124
2.9993603515625,-0.6211949391759932,-0.4999149034377187,0.293507145512104,-0.1991613060235977,0.0231224633753299,-0.2768766283988952,0.0407394559756855,0.0812775680858687,1.9576868190538796,-6.127754211425781,-19.979936599731445,-39.952423095703125,0.2166690826416015,1015.8868408203124
3.00942822265625,-0.535501984321326,-0.5394260624298826,0.1858189242094755,-0.243265688419342,0.0642841607332229,-0.282349556684494,0.0382801734433254,0.0818415707536549,1.9549582201797664,-5.784128189086914,-19.891128540039062,-39.6297607421875,0.2166690826416015,1015.8868408203124
3.019497314453125,-0.3292196063410491,-0.560819380929321,-0.0699386286228895,-0.2674903273582458,0.1007814481854438,-0.2750833928585052,0.0354711453215449,0.082759240203661,1.9521768156758557,-5.470192909240723,-19.64347267150879,-39.3223876953125,0.2166690826416015,1015.8868408203124
3.029565185546875,-0.1361309103243053,-0.6315371772311628,-0.2625736625880003,-0.259660005569458,0.1304224133491516,-0.2692627608776092,0.0325764906938492,0.0840015694712976,1.9496446635819835,-5.67208194732666,-19.50901985168457,-39.61651611328125,0.2166690826416015,1015.8868408203124
3.039634521484375,-0.0482749322168529,-0.685409344933182,-0.3796282626509666,-0.2305495291948318,0.1328094154596328,-0.272046834230423,0.0298741048882659,0.0854020371592439,1.9471394220319544,-5.620938301086426,-19.42523193359375,-39.7322998046875,0.2166690826416015,1015.8868408203124
3.049703125,0.0094417820841073,-0.7388764389656484,-0.3661860127538442,-0.1800368726253509,0.11576759070158,-0.280608594417572,0.0275643381837673,0.0867337492957986,1.9444387356060195,-5.43544864654541,-19.550018310546875,-39.51919555664063,0.2166690826416015,1015.8868408203124
3.059771240234375,0.0728593383751809,-0.7895822515912354,-0.2633919932335615,-0.1317542940378189,0.0850512236356735,-0.2914164960384369,0.0257500692153546,0.0878203686017021,1.94163349042003,-5.364339828491211,-19.361778259277344,-39.719757080078125,0.2166690826416015,1015.8868408203124
3.06984033203125,0.1188097001019865,-0.8816296900391578,-0.0843769038200378,-0.0938755273818969,0.0316157974302768,-0.2995427846908569,0.0243590099783132,0.0885056232582201,1.9386700569945237,-5.243990898132324,-19.53619384765625,-39.966552734375,0.2166690826416015,1015.8868408203124
3.0799091796875,0.117249611178413,-0.9268165931127964,0.1444505565106868,-0.0752389952540397,-0.0301668755710124,-0.3084297478199005,0.0232757056170848,0.0885864785414923,1.9356544705850487,-5.142921447753906,-19.18907165527344,-40.280059814453125,0.2166690826416015,1015.8868408203124
3.08997705078125,0.1046190429903566,-0.9490842467613516,0.3343897755205631,-0.0759533196687698,-0.0819813087582588,-0.3018242716789245,0.0222559873931464,0.0881003499432409,1.93257448905353,-5.040331840515137,-19.254562377929688,-40.2288818359375,0.2166690826416015,1015.8868408203124
3.10004638671875,0.0631675270527601,-0.9972973657883704,0.4177116173297167,-0.0887974724173545,-0.1078062504529953,-0.2931264042854309,0.021169317595022,0.0871791959540554,1.929578315715326,-5.093832969665527,-19.387874603271484,-40.109405517578125,0.2166690826416015,1015.8868408203124
3.110115234375,0.040196766636148,-1.050591222145781,0.4296621673643588,-0.1061896830797195,-0.1208537444472312,-0.2848378717899322,0.0199460256927386,0.0860818103568871,1.926691993080513,-5.058082580566406,-19.27413749694824,-40.024993896484375,0.2166690826416015,1015.8868408203124
3.120183349609375,0.0339323724791407,-1.071374482455477,0.3904682210952043,-0.1150849089026451,-0.112169973552227,-0.2769823372364044,0.0185894098922063,0.0849439809741846,1.9239889739961944,-5.164872169494629,-19.08540725708008,-40.040069580078125,0.2166690826416015,1015.8868408203124
3.13025244140625,0.0316734145712107,-1.099454037253186,0.3579647123754024,-0.1129454299807548,-0.0797642320394516,-0.268838107585907,0.0172059719761312,0.0840090948972736,1.921415258894116,-5.248721122741699,-19.04151725769043,-40.32583618164063,0.2166690826416015,1015.8868408203124
3.1403203125,0.0136716016735881,-1.066412110807747,0.3425011857837438,-0.0997190997004509,-0.0437305942177772,-0.2637027204036712,0.0159059420739912,0.0834146587622661,1.9187576898633416,-5.006519317626953,-19.214738845825195,-40.308013916015625,0.2166690826416015,1015.8868408203124
3.150389404296875,-0.0410059641271829,-1.000312037434429,0.2640127554804086,-0.0888192877173423,-0.0098056495189666,-0.2584416270256042,0.0147420890089885,0.0831742799565868,1.9161008702286764,-4.891979217529297,-19.109752655029297,-40.255889892578125,0.2166690826416015,1015.8868408203124
3.160458251953125,-0.0810205791294574,-0.9768366154313088,0.2274105792701244,-0.0843406543135643,0.0180664602667093,-0.2493088394403457,0.0136567982589654,0.0832864654813943,1.9135426419160253,-4.866933822631836,-19.042299270629883,-40.37661743164063,0.2166690826416015,1015.8868408203124
3.1705263671875,-0.1014344946701079,-0.9541022210538388,0.1932528736025094,-0.088928148150444,0.017877884209156,-0.2412591874599456,0.0125722582605227,0.0835061317052058,1.9110875589917384,-4.91939640045166,-19.08334732055664,-40.22164916992188,0.2166690826416015,1015.8868408203124
3.18059521484375,-0.1303495504438877,-0.9354642291445284,0.1830547201931476,-0.0935319662094116,0.0107432752847671,-0.228086918592453,0.0114667461556616,0.0836923619197227,1.9087878033295511,-4.8883056640625,-18.95255470275879,-40.290557861328125,0.2166690826416015,1015.8868408203124
3.190664306640625,-0.1373768187321722,-0.9089992699366062,0.1742629264503717,-0.1025028750300407,0.0079624280333518,-0.2148296982049942,0.0103048795510929,0.0837979078475198,1.906618960688084,-4.837211608886719,-18.960674285888672,-40.212005615234375,0.2166690826416015,1015.8868408203124
3.200732421875,-0.1189165214773267,-0.8504838064733892,0.129567460155487,-0.1065474227070808,0.0016925479285418,-0.2007263898849487,0.0090848444647256,0.0838831716025264,1.904568127360356,-4.737656593322754,-18.98602867126465,-40.565338134765625,0.2166690826416015,1015.8868408203124
3.21080126953125,-0.0965861047908663,-0.8328160478357225,0.0500397499322891,-0.1044766902923584,0.0031393091194331,-0.1795803755521774,0.0078651724895095,0.0839094059880577,1.902543548814476,-4.403685569763184,-19.062463760375977,-40.18453979492188,0.2166690826416015,1015.8868408203124
3.2208701171875,-0.1122844630517065,-0.851632611182332,0.0386632003933191,-0.0972009301185607,0.0177800357341766,-0.1559879630804062,0.0067093307768966,0.0840145033322677,1.900862074688446,-4.632118225097656,-18.936710357666016,-40.20523071289063,0.2166690826416015,1015.8868408203124
3.2309384765625,-0.1339173989932984,-0.888904649478197,0.0190349553376436,-0.0718610659241676,0.0389662683010101,-0.1333744078874588,0.0057314904722805,0.0842983442108085,1.8994875647670924,-4.777157783508301,-18.87454605102539,-40.359283447265625,0.2166690826416015,1015.8868408203124
3.241007080078125,-0.1378251470215618,-0.8647209330752491,0.0214811794459819,-0.0419274047017097,0.061933372169733,-0.11385078728199,0.0050694879929983,0.084820461787113,1.8983644832120607,-4.683013916015625,-18.561424255371094,-40.829376220703125,0.2166690826416015,1015.8868408203124
3.2510751953125,-0.1037679060537368,-0.8492830523815006,0.0663029024690389,-0.0166982915252447,0.0639348775148391,-0.0904202088713646,0.0048584355560922,0.085454423585112,1.897463057261709,-4.605011940002441,-18.341554641723636,-40.909759521484375,0.2166690826416015,1015.8868408203124
3.261144287109375,-0.0462989559687674,-0.8736874988630413,0.0856885709404945,0.0010125283151865,0.0608948767185211,-0.0649880915880203,0.0049028304016796,0.086066223001378,1.8967556951751303,-4.592952728271484,-18.479612350463867,-40.649810791015625,0.2166690826416015,1015.8868408203124
3.271213134765625,-0.0159046214226633,-0.910089184065163,0.094477442073822,0.0102085741236805,0.0607308074831962,-0.0410144738852977,0.0051276644825662,0.0866311704024515,1.896296391018514,-4.576236724853516,-18.512147903442383,-40.88156127929688,0.2166690826416015,1015.8868408203124
3.28128125,0.0401589188437908,-0.9441535123609006,0.0972509984403848,0.0192161835730075,0.0642499104142189,-0.0141695439815521,0.0054840258807699,0.0872185497750447,1.8960469615953783,-4.412640571594238,-18.25218772888184,-40.411895751953125,0.2166690826416015,1015.8868408203124
3.291350341796875,0.1122562598705291,-0.9549019931294024,0.0837076262563467,0.0225709844380617,0.0622505620121955,0.0114380251616239,0.0058986159865222,0.0878037011688788,1.8960691801707288,-4.436192512512207,-18.420656204223636,-40.425872802734375,0.2166690826416015,1015.8868408203124
3.301419189453125,0.1494037219386547,-0.964872767523676,0.0623643939763307,0.036617562174797,0.0635344758629798,0.0346562638878822,0.0064230243609903,0.0883975794466722,1.8963661011556203,-4.462926864624023,-18.33746910095215,-40.27560424804688,0.2166690826416015,1015.8868408203124
3.3114873046875,0.1737131836131215,-0.9760231070913374,0.0395785616725683,0.053899735212326,0.08416398614645,0.0503398701548576,0.0071170774419335,0.0890803994194527,1.896809627468584,-4.472216606140137,-18.639123916625977,-40.46359252929688,0.2166690826416015,1015.8868408203124
3.321556396484375,0.1872377049662172,-0.9479098692197352,0.0083563249349594,0.0837122276425361,0.0989349409937858,0.0654695481061935,0.008076511619277,0.0899637950684107,1.8972900869404008,-4.170609474182129,-18.56410789489746,-40.89224243164063,0.2166690826416015,1015.8868408203124
3.331624267578125,0.2382976647917181,-0.9335206207960844,-0.0850806681752204,0.1153543293476104,0.0990933999419212,0.0748215466737747,0.0093454906181649,0.0909266534416934,1.8979686108385976,-4.346382141113281,-18.58760070800781,-40.84780883789063,0.2166690826416015,1015.8868408203124
3.341693359375,0.26784283516258,-0.9320438262417912,-0.162054017740488,0.1378146260976791,0.0877246335148811,0.0795774161815643,0.010899964852716,0.091825354592808,1.8986965712286936,-4.355441093444824,-18.68257522583008,-41.06613159179688,0.2166690826416015,1015.8868408203124
3.35176220703125,0.2295163193777203,-0.9584582243062556,-0.2126443872928619,0.150211676955223,0.076767973601818,0.0808992609381675,0.0126468782442611,0.0926108136768044,1.8995026921921951,-4.435152053833008,-18.51368522644043,-40.854034423828125,0.2166690826416015,1015.8868408203124
3.36183056640625,0.1973254568036645,-0.9673982674133031,-0.1963245361328124,0.1565411984920501,0.0648031905293464,0.0781229138374328,0.0144819970414464,0.0933200698806917,1.9002993910953647,-4.412253379821777,-18.587364196777344,-40.76925659179688,0.2166690826416015,1015.8868408203124
3.371899169921875,0.1358186295047402,-0.9402208490870892,-0.1648211443662643,0.1622731536626815,0.0497137233614921,0.0762598067522049,0.0163532787826377,0.0939058316736595,1.9011074371969885,-4.390330314636231,-18.662954330444336,-40.707122802734375,0.2166690826416015,1015.8868408203124
3.38196826171875,0.0624926234658807,-0.8890897967867553,-0.1544511415213346,0.1736326068639755,0.0290547832846641,0.0717342942953109,0.0183173731976601,0.0943079542962849,1.9018546626831303,-4.470548629760742,-18.87197494506836,-40.912628173828125,0.2166690826416015,1015.8868408203124
3.392036376953125,-0.0139041683204472,-0.8518067256402224,-0.2049140853017568,0.1900788992643356,0.0195019021630287,0.0720499902963638,0.0204105925015093,0.094565439670059,1.9025407658711853,-4.316518783569336,-18.720043182373047,-40.936065673828125,0.2166690826416015,1015.8868408203124
3.402105224609375,-0.1304595866896212,-0.8832159363172948,-0.2882125462353229,0.2201899290084839,0.0248620472848415,0.0824517682194709,0.0227014413702755,0.094798837460486,1.9031834499682871,-4.257561683654785,-18.97056198120117,-40.780670166015625,0.2166690826416015,1015.8868408203124
3.41217431640625,-0.2746300110846758,-1.0452839825831353,-0.3581821545183658,0.2492433339357376,0.0559372492134571,0.1055346652865409,0.0252798431219098,0.0952104861410177,1.90406654599337,-4.535109519958496,-19.158674240112305,-40.817230224609375,0.2166690826416015,1015.8868408203124
3.422242431640625,-0.3630597704920917,-1.2337130892910062,-0.2887631658554077,0.2497432082891464,0.1162863448262214,0.1389150023460388,0.0280238027786363,0.0960602677644856,1.9052357784259557,-4.460700035095215,-19.0057373046875,-40.61685180664063,0.2166690826416015,1015.8868408203124
3.43231103515625,-0.4258149904169142,-1.2720473499909042,-0.2267179208308458,0.2154735028743744,0.1790453493595123,0.1610593497753143,0.0306161485966681,0.0975458662210456,1.906739973081752,-4.50079345703125,-19.11141967773437,-40.63882446289063,0.2166690826416015,1015.8868408203124
3.44238037109375,-0.4103195343170315,-1.1793482427012174,-0.3225964618742465,0.1499461531639099,0.2418328374624252,0.168985977768898,0.0326998764981951,0.0996302727686402,1.9084899245707465,-4.726376533508301,-19.45358657836914,-40.625335693359375,0.2166690826416015,1015.8868408203124
3.4524482421875,-0.3063435384705663,-1.026237336807698,-0.5630880565136671,0.0570075809955596,0.2878122925758362,0.1765691637992859,0.033985549621642,0.1022609579344097,1.910361009055584,-4.435242652893066,-19.238752365112305,-40.71823120117188,0.2166690826416015,1015.8868408203124
3.46251708984375,-0.1788747310947626,-0.8362988484501839,-0.926941242405772,-0.0434913299977779,0.3031462430953979,0.1741867065429687,0.0342805802620367,0.1051961920510877,1.912421544250217,-4.34238338470459,-18.988445281982425,-40.673675537109375,0.21648516009806862,1015.8868642753047
3.472585205078125,-0.113384314052388,-0.5704350582756101,-1.408738086155057,-0.1299081593751907,0.2806504368782043,0.157104954123497,0.0336044957629893,0.1081010119499186,1.914549838680508,-4.36539363861084,-18.978290557861328,-40.92282104492188,0.21616809706936058,1015.8869047092328
3.482654296875,-0.1488924114156514,-0.3350261006627231,-1.8995254610896108,-0.1718643903732299,0.22245953977108,0.1239627227187156,0.0322334145639039,0.1105886864258724,1.9163740140286876,-4.085037708282471,-18.9038028717041,-40.532073974609375,0.2158510032869458,1015.8869451470829
3.49272314453125,-0.1862806965023279,-0.2488579660443589,-2.25844820484221,-0.172778382897377,0.1376767456531524,0.0922905504703521,0.0306128290086897,0.1123627807149716,1.9180204882710337,-4.25189208984375,-18.67256736755371,-40.450531005859375,0.21553391719295767,1015.8869855839524
3.502791259765625,-0.2545866093568503,-0.2192550193379633,-2.4393413630872964,-0.1323052644729614,0.0522305555641651,0.0538621954619884,0.0291600134294332,0.1132716043593508,1.9192455798275847,-4.310569763183594,-18.970760345458984,-40.584564208984375,0.21521685416424963,1015.8870260178804
3.512860107421875,-0.3534871285699307,-0.1429161682839505,-2.418947978878021,-0.0775620937347412,-0.005867782048881,0.0153668578714132,0.0281702015990221,0.1134824436940326,1.9200688760357212,-4.238981246948242,-18.70737648010254,-40.612579345703125,0.2148997680702615,1015.88706645475
3.52292919921875,-0.4138329492654651,0.0412965811042115,-2.2670395075768237,-0.0221659522503614,-0.0335934199392795,0.0024534557014703,0.0277131636268799,0.1133009276777067,1.920478730541186,-4.115396022796631,-18.701295852661133,-40.465362548828125,0.2145826742878467,1015.8871068926001
3.5329970703125,-0.3423757327731698,0.0543666001554578,-2.090259629869461,-0.0029190964996814,-0.0700122714042663,-0.022696292027831,0.0275810380724086,0.1127392313897054,1.9206332047287973,-4.048227310180664,-18.73523712158203,-40.42550659179688,0.21426561894756538,1015.8871473255476
3.543066162109375,-0.3001326280664652,0.1306763712454587,-1.8601947366982696,0.0058906404301524,-0.0756866708397865,-0.0606399439275264,0.0275652194393446,0.1119971800178069,1.920514367228608,-4.266446113586426,-18.723295211791992,-40.576263427734375,0.21394852516515056,1015.8871877633977
3.553135498046875,-0.3302005071371793,0.2526052262812853,-1.628517732155323,0.0170351397246122,-0.0714539662003517,-0.0859382376074791,0.0275778559246518,0.1112743400111479,1.920129800833102,-4.292716026306152,-18.58628463745117,-40.801849365234375,0.21363142369430904,1015.8872282022281
3.563203125,-0.3561791441328823,0.3199385677766054,-1.4345377133220434,0.0635075643658638,-0.0700853690505027,-0.112524576485157,0.0278522547512867,0.1106087612930161,1.9194271158286207,-4.238167762756348,-18.543306350708008,-40.646026611328125,0.21331437604245443,1015.8872686341954
3.5732724609375,-0.3804608410175889,0.3969478654380887,-1.1602420487582683,0.1355482935905456,-0.0605312660336494,-0.1406367719173431,0.0286863115297054,0.1099704760159891,1.9184692905101048,-4.387419700622559,-18.5207576751709,-40.70034790039063,0.21299727457161288,1015.8873090730258
3.58334033203125,-0.4236622693624347,0.4447348680075257,-0.7945125476002692,0.2178713977336883,-0.0384848192334175,-0.1689320653676986,0.0302945445942341,0.1095258248164636,1.9171366548364424,-4.451741218566895,-18.63284492492676,-40.58462524414063,0.21268021923133157,1015.8873495059735
3.5934091796875,-0.4425049900636076,0.4274991075789555,-0.3300216434389352,0.3006390035152435,-0.0067655337043106,-0.1864259093999862,0.0327038269573445,0.1093793879466798,1.915546774491868,-4.711018562316895,-18.893774032592773,-40.416595458984375,0.21236313313734345,1015.887389942843
3.603478271484375,-0.4126111523855477,0.3519781853117048,0.1295394031047821,0.359143316745758,0.0173232909291982,-0.1978111863136291,0.035823155201702,0.109502118181974,1.91381060666132,-4.745481491088867,-18.915979385375977,-40.911468505859375,0.21204603935492863,1015.887430380693
3.61354638671875,-0.3468341004215181,0.2625041410157457,0.5496557434886694,0.3968730866909027,0.0360579751431942,-0.1995482295751571,0.0393971833229044,0.1098767716372549,1.911984004429861,-4.756260871887207,-18.997303009033203,-40.36343383789063,0.21172897632622062,1015.8874708146211
3.623615234375,-0.3125723498575389,0.1970059059930965,0.9367559494554996,0.4194295406341553,0.0470416508615016,-0.2043211609125137,0.0432653469465311,0.1103866798661539,1.9100685584422208,-4.780670166015625,-19.288021087646484,-40.01959228515625,0.2114118902322325,1015.8875112514907
3.633684326171875,-0.2568493666570633,0.1895730891112238,1.2168617616027593,0.4139804244041443,0.0578936114907264,-0.1945595443248748,0.0472264373719622,0.1110000450697534,1.9081068718924925,-4.593552589416504,-19.543682098388672,-40.255279541015625,0.21109479644981766,1015.8875516893407
3.643752197265625,-0.1651385397523641,0.1966380955940112,1.3691034103810786,0.3862279057502746,0.0679145529866218,-0.1749325841665268,0.0510337411186401,0.1117452444659627,1.906304920655764,-4.532393455505371,-19.671735763549805,-39.78900146484375,0.21077774110953634,1015.8875921222883
3.653821044921875,-0.0684961016643792,0.2257723470764234,1.3695382946670054,0.3446538746356964,0.0750136077404022,-0.1539826393127441,0.0545129895096925,0.1125833117776338,1.9045985811347168,-4.162117004394531,-19.85301399230957,-40.306671142578125,0.21046065501554823,1015.8876325591579
3.6638896484375,0.0104468674734234,0.3288453662011772,1.2442659013569357,0.2934452891349792,0.0643551051616668,-0.1368009895086288,0.0575514748884103,0.1134092176129861,1.9031180622659425,-4.078761100769043,-19.79730224609375,-39.621185302734375,0.2101435766099868,1015.887672995047
3.6739580078125,0.13844627459459,0.5163626552937552,1.0151853430479765,0.2345860302448272,0.0340685732662677,-0.1229013502597808,0.0600298627415762,0.1140043975508643,1.9017768176857577,-3.935780048370361,-20.023542404174805,-39.608917236328125,0.2098265058928521,1015.8877134299555
3.68402685546875,0.2462112874604761,0.6988922191016376,0.7054302425682545,0.1807611435651779,-0.0167482662945985,-0.1054989248514175,0.0619684484680806,0.114184554158636,1.900811654005132,-4.142148017883301,-20.10867118835449,-39.82781982421875,0.20950941979886398,1015.887753866825
3.694094970703125,0.2928163867689669,0.8517992729861289,0.3896621654093265,0.1465573161840438,-0.0720899403095245,-0.0852254927158355,0.0634797374021246,0.113788337466178,1.9000757134615829,-4.056278228759766,-20.17320251464844,-40.078155517578125,0.20919235677015593,1015.8877943007532
3.704163818359375,0.3424734209939837,0.9662946900855748,0.1751040534496307,0.1306766122579574,-0.1082508713006973,-0.0566164888441562,0.0647664205955635,0.112907510886702,1.8996499878021076,-4.048365592956543,-19.99537467956543,-39.872100830078125,0.20887527067616785,1015.8878347376227
3.71423291015625,0.3581680529277771,1.055557977707684,0.0715723673045635,0.1331027746200561,-0.1247049421072006,-0.0168991386890411,0.0660284297044325,0.1117490914413796,1.8995412502142373,-4.0202317237854,-20.134265899658203,-40.00177001953125,0.208558176893753,1015.8878751754727
3.724301025390625,0.3447267528787255,1.1055593683909624,0.0787614020258188,0.145122155547142,-0.1240588650107383,0.0269170496612787,0.067422367604584,0.1104950141372175,1.8999715017795848,-4.327478408813477,-20.18940544128418,-40.276153564453125,0.20824111386504499,1015.8879156094008
3.734369873046875,0.3437162606619298,1.1208580598097293,0.2010357825636863,0.160839632153511,-0.094326414167881,0.0788133889436721,0.0690166314953095,0.1093491918896058,1.9007864099806968,-4.303733825683594,-20.33823013305664,-39.596771240234375,0.20792402777105687,1015.8879560462703
3.74443896484375,0.369276306919381,1.0945272483754902,0.3759305771768093,0.1757735759019851,-0.0573731921613216,0.134283572435379,0.0708221306760287,0.1085042040994203,1.9020131117480303,-4.197683334350586,-20.477651596069336,-39.39990234375,0.20760693398864205,1015.8879964841204
3.754507080078125,0.3851913766708225,1.0597609823554754,0.5114765272200107,0.1681833565235138,-0.0327454879879951,0.1844174563884735,0.0727292521179102,0.1079750097279398,1.90383121388622,-4.27996826171875,-20.36148452758789,-39.65692138671875,0.20728987095993404,1015.8880369180484
3.764575927734375,0.4109770483776926,1.059328216961399,0.5841501337647438,0.1375074535608291,-0.0309313405305147,0.2347834408283233,0.0745057374450393,0.1075225670899594,1.906245492436024,-4.506130218505859,-20.49091911315918,-39.6934814453125,0.20697278486594592,1015.8880773549181
3.77464501953125,0.4781191050846129,1.0434967338401824,0.590408609637618,0.0820633172988891,-0.0397009886801242,0.2795885801315307,0.0759013027611022,0.1069998711212891,1.909260544595736,-4.651800155639648,-20.40724372863769,-39.75750732421875,0.20665569108353107,1015.8881177927681
3.784713134765625,0.5457892773188651,1.021840124762058,0.5196387908875942,0.0206929072737693,-0.0352095663547515,0.3126269578933716,0.076747158727938,0.1063876690495279,1.9127707470612243,-4.79335880279541,-20.452123641967773,-39.80563354492188,0.20633862805482306,1015.8881582266962
3.79478173828125,0.5763012468952685,1.0273201636083424,0.4027344129502773,-0.0364606566727161,-0.0279826931655406,0.3338803946971893,0.0770015459834436,0.105806376749599,1.91646836686798,-4.628263473510742,-20.506563186645508,-39.60592651367188,0.20602154964926164,1015.8881986625852
3.80485009765625,0.6377204689759761,1.0100102784976364,0.2196913831949234,-0.0813024342060089,-0.0208395645022392,0.3436755239963531,0.0767615964836683,0.1052895766907566,1.9204532937732075,-4.840825080871582,-20.413389205932617,-39.488677978515625,0.20570447893212693,1015.8882390974939
3.8149189453125,0.7002678913690149,1.0137404780019077,0.0651332741677761,-0.1057421714067459,-0.0146134654060006,0.3530440032482147,0.0761330553623645,0.1048537416473292,1.9246832655943025,-5.16166877746582,-20.347387313842773,-39.77926635742188,0.2053873928381388,1015.8882795343634
3.82498779296875,0.7247492024790495,0.9685584702990948,-0.0432020128667354,-0.116500549018383,-0.0225749872624874,0.3497779071331024,0.0753075799285011,0.1044224191548426,1.928974402646088,-5.381715774536133,-20.43381118774414,-39.48248291015625,0.2050703067441507,1015.8883199712329
3.835055908203125,0.6793759830530732,0.9102044079426675,-0.0876817905843257,-0.1063669100403785,-0.008340235799551,0.3358884453773498,0.074527669252193,0.1039889184718104,1.93325311769538,-5.564572334289551,-20.248044967651367,-39.735595703125,0.20475324371544268,1015.888360405161
3.845125,0.608628887591511,0.8207277698308229,-0.1114800148010253,-0.0880409032106399,-0.0055433847010135,0.3096842467784881,0.0739010078502123,0.1037039090954734,1.9371742820519733,-5.373319625854492,-20.234920501708984,-39.837432861328125,0.20443614993302783,1015.888400843011
3.85519384765625,0.6159810769852251,0.77699639932774,-0.2005430306106805,-0.0844179689884185,-0.011430338025093,0.3073200285434723,0.073361703003865,0.1033747008259863,1.9410107051382548,-5.628617286682129,-20.13265609741211,-39.84326171875,0.20411906383903972,1015.8884412798806
3.865261962890625,0.5934415475927293,0.6456738391332328,-0.194324302226305,-0.0839708223938942,-0.0334448255598545,0.299271672964096,0.0728169659305345,0.1029341453259896,1.9448714996994945,-5.841198921203613,-20.17634010314941,-39.770263671875,0.2038020008103317,1015.8884817138087
3.875330810546875,0.5252363916989415,0.5815418509624898,-0.2847539302140474,-0.0665932446718216,-0.0873043090105056,0.2513249218463897,0.0723338011770963,0.1021277527630265,1.9484071575772397,-5.778328895568848,-19.91748809814453,-39.92449951171875,0.20348491471634358,1015.8885221506782
3.88539990234375,0.4693777994200587,0.5893555934533476,-0.3193558725178241,-0.0400255508720874,-0.1280136555433273,0.2148401439189911,0.0720311549071614,0.1008690419693757,1.9515209480117144,-6.008119583129883,-20.051240921020508,-40.148284912109375,0.20316782093392877,1015.8885625885282
3.8954677734375,0.3878891643874347,0.4872307784315198,-0.2378004558593034,-0.0050205960869789,-0.1774753481149673,0.1830102652311325,0.0720237891626261,0.0991865075165466,1.9540907578961997,-5.725496292114258,-19.88446044921875,-39.76837158203125,0.20285076559364745,1015.8886030214759
3.905536865234375,0.2796903632141649,0.3484199813734739,-0.0810644182711839,0.0280563961714506,-0.2206153571605682,0.1470999270677566,0.0723045790042709,0.0970374718595291,1.956293240500397,-5.916506767272949,-19.917705535888672,-39.588714599609375,0.20253367181123264,1015.8886434593259
3.915605712890625,0.18465879438892,0.1939711048744618,0.1834481034249067,0.0451776497066021,-0.2372103482484817,0.1121725514531135,0.0728071046042935,0.0946291541203628,1.9586093429101064,-6.233526229858398,-20.034643173217773,-39.894927978515625,0.2022165857172445,1015.8886838961954
3.925673828125,0.0857442466504871,0.0802923379201442,0.4432271668583154,0.0473798178136348,-0.2265070974826812,0.0777107179164886,0.0733778853175132,0.0922055640434828,1.9601837451257436,-6.403618812561035,-19.78647994995117,-39.49920654296875,0.20189952268853648,1015.8887243301235
3.935742919921875,-0.0238425017498433,-0.008610591956973,0.6415910998642445,0.0449582263827323,-0.205576092004776,0.048020139336586,0.0739115279261162,0.0899867276306731,1.961440343070597,-6.507471084594727,-19.76694869995117,-39.59942626953125,0.20158242890612166,1015.8887647679735
3.94581103515625,-0.1159247192502021,-0.0920306334435939,0.8080407222151755,0.0334437787532806,-0.1859126389026641,0.0260234978049993,0.0743479040731815,0.0880136248785274,1.9625451260358608,-6.793303489685059,-19.724035263061523,-39.41204833984375,0.20126536587741364,1015.8888052019016
3.955879638671875,-0.2206807595584541,-0.1707806372925639,0.8759948990225791,0.0120847504585981,-0.1691105216741562,0.0127630569040775,0.0745885613196353,0.0862037735535547,1.9633274506991905,-6.676605224609375,-19.933950424194336,-39.273040771484375,0.20094828747185223,1015.8888456377907
3.965948974609375,-0.3040348962020129,-0.2676578339844942,0.942674818110466,-0.0092290602624416,-0.1384764462709427,0.0005942750722169,0.0746128624483416,0.084638100280254,1.9640365082678128,-6.70621395111084,-19.76437187194824,-39.59478759765625,0.2006311860010107,1015.8888860766212
3.976016845703125,-0.3763379158686846,-0.3618422113958746,0.9793950677424668,-0.0291558764874935,-0.0915921479463577,-0.0036348775029182,0.0744075672982311,0.0834726677525434,1.9645890654457967,-6.55551815032959,-19.83155632019043,-39.86422729492188,0.2003141306607294,1015.8889265095688
3.986085693359375,-0.4195847177252173,-0.4359181590192019,0.9721522570073604,-0.048674713820219,-0.0420240648090839,-0.0075491918250918,0.0739939072407519,0.0828100482909083,1.9652423885206112,-6.890255928039551,-19.73288345336914,-39.652862548828125,0.19999704456674128,1015.8889669464384
3.996155029296875,-0.3832270908605307,-0.4625426927030086,0.9298848946422338,-0.070302166044712,0.0155339315533638,-0.0090586328878998,0.0733830161109328,0.0826992811560903,1.965790470991688,-6.755110740661621,-19.68373107910156,-39.115325927734375,0.19967994309589973,1015.8890073852689
4.006222900390625,-0.3192592072103172,-0.4569867390763014,0.8153747183650731,-0.0936000272631645,0.0586457177996635,0.0034481044858694,0.0725588163229014,0.0831013331026113,1.9664184009031616,-6.791520118713379,-19.832172393798828,-39.37969970703125,0.19936288775561842,1015.8890478182166
4.0162919921875,-0.266547023198381,-0.4507960677426308,0.5584136349618435,-0.1295853555202484,0.0632504522800445,0.0120487343519926,0.0714630095191985,0.0837200716108652,1.96707601467196,-6.567767143249512,-19.788009643554688,-39.515899658203125,0.1990457939732036,1015.8890882560665
4.02636083984375,-0.1637354680214077,-0.4269959438297897,0.3943108679980039,-0.1485228389501571,0.0955884158611297,0.0029883943498134,0.0700564715472716,0.0844781539560079,1.967792880904246,-6.601346969604492,-19.68012237548828,-39.63101196289063,0.19872870787921548,1015.8891286929361
4.036428955078125,-0.1366337452799081,-0.295098944748193,0.2686123582303524,-0.15403713285923,0.1164661273360252,0.0060484898276627,0.068533694112598,0.085541936323126,1.9686604462659412,-6.869438171386719,-19.48573112487793,-39.83868408203125,0.19841164485050747,1015.8891691268642
4.046497802734375,-0.0715588502358645,-0.240481365506351,0.0619686726570129,-0.1425708979368209,0.1203620582818985,0.0126544591039419,0.067050173550445,0.0867016970235126,1.9694796503515508,-6.6929473876953125,-19.470903396606445,-39.51385498046875,0.19809455875651932,1015.8892095637337
4.05656591796875,0.0463921141449362,-0.251182134675607,-0.0157476042300462,-0.1208605766296386,0.1308060586452484,0.0164293684065341,0.0657424943578408,0.087933765057434,1.9703314779832355,-6.622238159179688,-19.46934700012207,-39.98556518554688,0.19777749572781134,1015.8892499976619
4.066634765625,0.1023755018472671,-0.2504658761650323,-0.0117301852822303,-0.0931493267416954,0.1356423646211624,0.0127757769078016,0.0646994109586103,0.0892459959168923,1.971008993112194,-6.206146240234375,-19.273561477661133,-39.70684814453125,0.1974604096338232,1015.8892904345314
4.076703857421875,0.214736318070814,-0.2507112292282283,0.0184042562186717,-0.0618336573243141,0.1329935789108276,0.010787321254611,0.0639556924003661,0.0905637322720114,1.9717528885271196,-6.328387260437012,-19.157474517822266,-40.0421142578125,0.19714331585140837,1015.8893308723814
4.086771728515625,0.2964108310643583,-0.2840309497017413,0.0854483324438333,-0.0315913259983062,0.1314055472612381,0.0128904189914464,0.0635173456671017,0.0918690781917732,1.972583237012659,-6.475744247436523,-19.03813362121582,-39.83346557617188,0.19682626051112706,1015.8893713053291
4.096841064453125,0.3524192801427095,-0.3364469272460788,0.1964396869450807,-0.0011866865679621,0.1297229528427124,0.0128239169716835,0.0633753656694184,0.0931689154364094,1.9733860476842655,-6.499006271362305,-19.14165496826172,-40.050567626953125,0.19650915904028554,1015.8894117441595
4.106909912109375,0.3943286959156394,-0.4004525856234133,0.2807762587547302,0.032149963080883,0.1182388663291931,0.007737279869616,0.0635628528242103,0.0944128419399298,1.9741050582822317,-6.361087799072266,-19.03239631652832,-39.87921142578125,0.19619207294629742,1015.889452181029
4.116977783203125,0.4248261255100369,-0.4450572318296879,0.3854840029418468,0.0582480728626251,0.0813735127449035,0.0029115355573594,0.0640508392760826,0.0954170935513458,1.9746755143258856,-6.420668601989746,-19.43616104125977,-39.54757690429688,0.1958750176060161,1015.8894926139767
4.127046875,0.4082761188559234,-0.484004948252812,0.5447533583998679,0.0712885111570358,0.0398990400135517,-0.0150344418361783,0.0647193343023508,0.0960295231376658,1.97513860075397,-6.458432197570801,-19.485984802246094,-39.92379760742188,0.1955579238236013,1015.8895330518267
4.137115966796875,0.3870984524011612,-0.516232635705918,0.7254962945193052,0.0638600140810012,-0.0068101566284894,-0.0351462960243225,0.0654017507296157,0.096226244554161,1.9753676876697024,-6.380475997924805,-19.476171493530277,-39.695648193359375,0.19524083004118645,1015.8895734896768
4.14718359375,0.3723815063931047,-0.5827588255368172,0.8632745336592197,0.0469143204391002,-0.0634204372763633,-0.0470639429986476,0.0659433593750776,0.0958970884038056,1.9754032022689725,-6.259477615356445,-19.48517799377441,-39.722991943359375,0.19492378238933183,1015.8896139216439
4.1572529296875,0.3324996509250253,-0.6021717473413795,0.928545754992962,0.0171667598187923,-0.115107461810112,-0.060681901872158,0.0662226977507175,0.0950312472422035,1.9754361646950565,-6.602089881896973,-19.621091842651367,-39.74468994140625,0.19460668091849032,1015.8896543604744
4.16732080078125,0.2892118594709784,-0.6150739720776677,0.9718991590291262,-0.0130209708586335,-0.1367839872837066,-0.0672314167022705,0.0662039964076933,0.0937912733079443,1.975369864106028,-6.518307685852051,-19.52076911926269,-39.5238037109375,0.19428962557820897,1015.889694793422
4.177389892578125,0.2691832169208675,-0.635967122502625,0.9851514393121004,-0.0327922068536281,-0.1464645713567733,-0.0721032992005348,0.0659191812326835,0.0924202567398307,1.975258992398521,-6.529786109924316,-19.554384231567383,-39.83575439453125,0.19397253179579418,1015.8897352312721
4.187458984375,0.2541191379755735,-0.6513623330984264,0.9584124854683876,-0.0431116893887519,-0.1479524821043014,-0.0756610184907913,0.0654774978792313,0.0910151003089315,1.975222113076568,-6.6766204833984375,-19.238731384277344,-39.525146484375,0.19365543801337937,1015.8897756691221
4.19752685546875,0.1858945467289537,-0.6769597887568175,0.939535935562849,-0.049151737242937,-0.1249528899788856,-0.0819439440965652,0.064956630111576,0.0897212405650517,1.9751288155922169,-6.710911750793457,-19.3162784576416,-39.82330322265625,0.19333838267309802,1015.8898161020696
4.20759619140625,0.1086544359862804,-0.7221350013926625,0.9461632447481156,-0.0516990534961223,-0.0908923894166946,-0.0906868353486061,0.0643924334070986,0.0887075282203469,1.9749200209411129,-6.64546012878418,-19.30162811279297,-39.790069580078125,0.19302128120225653,1015.8898565409002
4.217664794921875,0.0798840493801981,-0.7628642674703151,0.9002841216266154,-0.056402388960123,-0.0549744814634323,-0.099737673997879,0.0637932819310445,0.0880328208006199,1.9746096566037423,-6.6149444580078125,-19.192773818969727,-39.615814208984375,0.1927042027966951,1015.8898969767893
4.22773291015625,0.0654319648534059,-0.81606123932451,0.8789216001242399,-0.0738769844174385,-0.0056114569306373,-0.1016391739249229,0.0630822270854774,0.0878075129903327,1.9744647092325045,-7.129375457763672,-19.214506149291992,-39.89990234375,0.19238713976798705,1015.8899374107174
