Timestamp,Acc x (m/s^2),Acc y (m/s^2),Acc z (m/s^2),Gyro x (rad/s),Gyro y (rad/s),Gyro z (rad/s),Beccheggio/Pitch (rad/s),Rollio/Roll (rad/s),Imbardata/Yaw (rad/s),Mag x (microTesla),Mag y (microTesla),Mag z (microTesla),Altitudine (m),Pressione (milliBar)
0.02456005859375,0.2674146728783845,0.1617066656075418,-0.6615355712622404,-0.0279349684715271,-0.0579559840261936,-0.0866329669952392,0.1814235129652445,0.0493047610904256,1.6269352342793832,1.2831013202667236,-21.715431213378903,-31.529815673828125,-0.006005294717017212,1015.749289818661
0.034629150390625,0.3314597499506548,0.1957378222860396,-0.6471224305063485,0.0017678001895546,0.0093761850148439,-0.0852127000689506,0.181243941913741,0.0492409997238258,1.626065252854617,1.4427456855773926,-21.86810302734375,-31.656219482421875,-0.006110988592893341,1015.7493020265803
0.04469775390625,0.4376279220791533,0.2231903312265872,-0.6149269648224115,0.0262976996600627,0.0642905309796333,-0.0691772773861885,0.1813441365996325,0.0497621956382454,1.6252505106027606,1.5296955108642578,-22.70651054382324,-31.621612548828125,-0.006216677343348144,1015.7493142339075
0.05476708984375,0.5592295544546098,0.23272476003021,-0.5267226116687059,0.0525021404027938,0.1087607964873313,-0.0330373793840408,0.1817120848946635,0.0507497702046138,1.62469943924131,1.5109639167785645,-22.686792373657227,-31.442138671875,-0.006322373781934936,1015.7493264421228
0.064835693359375,0.6091263522522523,0.2491412034325301,-0.4102595477581024,0.0722251087427139,0.1375430077314376,0.008909011259675,0.1823436837259282,0.0520226664864204,1.6245382818293554,1.3933615684509275,-22.55198860168457,-31.62628173828125,-0.006428062532389739,1015.74933864945
0.074905029296875,0.6157534057091921,0.2445687809504568,-0.2535328625202179,0.0898259431123733,0.141985684633255,0.0466095171868801,0.1831729835383295,0.0534247773414083,1.624777591756013,1.3989155292510986,-22.64034652709961,-31.34674072265625,-0.006533758970976532,1015.7493508576653
0.08497412109375,0.6065391853032633,0.2237638933308422,-0.1314426063776016,0.1022916510701179,0.1159317642450332,0.0754209160804748,0.1841656958376298,0.0546404933174444,1.6253532332606175,1.4642674922943115,-22.86566162109375,-31.21127319335937,-0.006639452846852661,1015.7493630655846
0.09504296875,0.5784083752423524,0.1883817604348063,-0.052669513913989,0.117899902164936,0.0770615935325622,0.1035803854465484,0.1853073726807472,0.0554450123377071,1.6262154892763998,1.506784200668335,-22.6585693359375,-31.22372436523437,-0.006745144160018126,1015.7493752732078
0.105112060546875,0.566559605081752,0.1534134690366685,0.050192894667387,0.1339367032051086,0.0479598306119442,0.1222667321562767,0.186631975635088,0.0558816035378823,1.6272974397195177,1.4972383975982666,-22.496591567993164,-31.05340576171875,-0.006850838035894256,1015.7493874811271
0.1151806640625,0.5159027461644262,0.1320965402416885,0.1665361315906047,0.1317177563905716,0.0170993879437446,0.1307616680860519,0.1880381595373355,0.0559825525674643,1.628522349273123,1.3973474502563477,-22.496055603027344,-31.272613525390625,-0.006956526786349059,1015.7493996884543
0.12525,0.4554544880077242,0.0921926921375095,0.2432645664840936,0.1092385202646255,0.0093117896467447,0.1372169107198715,0.189317107211506,0.0558556435542466,1.629818895220466,1.3930091857910156,-22.538463592529297,-31.07037353515625,-0.007062223224935851,1015.7494118966696
0.135319091796875,0.3736198525490239,0.0221573251418769,0.3736415894567966,0.0856434479355812,0.0355937257409095,0.1519529819488525,0.1903576373707294,0.0558183466968195,1.631243335326723,1.4157350063323977,-22.62847328186035,-31.03076171875,-0.0071679171008119805,1015.7494241045888
0.145387939453125,0.2685098477039486,0.0063790335126221,0.5145376683562993,0.0441025123000144,0.039416566491127,0.1588127613067627,0.1910811612055749,0.0559418197153982,1.632800804167739,1.394432783126831,-22.61440086364746,-30.88558959960937,-0.007273608413977446,1015.7494363122121
0.15545703125,0.1356086034832522,0.0341794791080057,0.5845031849861144,0.0099075231701135,0.0394530519843101,0.1479278951883316,0.1914042139713655,0.0560566848203737,1.6343576792167265,1.371384620666504,-22.5332088470459,-30.83343505859375,-0.007379302289853575,1015.7494485201313
0.16552587890625,0.0387578564068302,0.0598800298146903,0.6921756241977215,-0.0251386407762765,0.0440805777907371,0.1201662942767143,0.1913848166247792,0.0562469464396978,1.635738941644002,1.265030860900879,-22.517240524291992,-30.61508178710937,-0.0074849936030190415,1015.7494607277546
0.175593994140625,-0.0219706434633582,0.0528413633495569,0.7531979559153318,-0.0582284107804298,0.0266635064035654,0.0845004394650459,0.1910267459106755,0.056427304923441,1.6368065767978175,1.0925917625427246,-22.55234146118164,-31.038543701171875,-0.0075906772280525175,1015.7494729344897
0.185662841796875,-0.0548997206514701,0.0492234651133418,0.7364969964832067,-0.0915156379342079,0.0165468528866767,0.0560970231890678,0.1903246858357813,0.0565139494022009,1.6375618819276765,1.171973466873169,-22.39030647277832,-30.9168701171875,-0.007696368541217984,1015.749485142113
0.19573193359375,-0.0702777974493801,0.0495351614110171,0.7071463988363742,-0.1204460933804512,0.0110530192032456,0.0381814055144786,0.1892693895187316,0.0565611277818067,1.6380929049399546,1.4425010681152344,-22.558504104614254,-30.89926147460937,-0.007802062417094113,1015.7494973500322
0.20580078125,-0.1112374382168054,0.0842684750095009,0.6196797123074531,-0.1516847163438797,0.0175586063414812,0.0213046893477439,0.187904186600585,0.0566354481490673,1.6384758770709211,1.448028802871704,-22.814794540405277,-31.12689208984375,-0.00790775373025958,1015.7495095576555
0.215869873046875,-0.1434496723724529,0.1635413336887955,0.5771867244929075,-0.1771946102380752,0.0316829457879066,0.0051337080076336,0.186269925684351,0.0568709241065928,1.6387072696548135,1.4453010559082031,-22.747323989868164,-31.126373291015625,-0.00801344760613571,1015.7495217655749
0.22593896484375,-0.1203022767473012,0.2383079669900238,0.5373018733501435,-0.1978327929973602,0.0408462584018707,-0.0046573877334594,0.1843860233862958,0.0572132273525236,1.6388167472088784,1.499847173690796,-22.26731300354004,-30.591552734375,-0.008119141482011838,1015.7495339734941
0.236008056640625,-0.0611541048711165,0.2470914312958717,0.5043804314792156,-0.2152799516916275,0.0490495935082435,-0.0052384892478585,0.1823173378561425,0.0576687600946132,1.6388791168662142,1.2826533317565918,-22.312395095825195,-31.025909423828125,-0.008224835357887967,1015.7495461814133
0.246076904296875,-0.0205227462099865,0.2135321299128234,0.4492617708474397,-0.231102168560028,0.0466364547610282,0.0013922322541475,0.1800792782223981,0.0581339655757218,1.638990949639566,1.1513357162475586,-22.42889404296875,-31.141632080078125,-0.008330526671053433,1015.7495583890366
0.256145751953125,-0.0028954291805624,0.18276582024917,0.3454728950709104,-0.2337584048509597,0.0559194348752498,0.0038332855328917,0.1777439602942624,0.0586094426428554,1.6391579533479228,1.2122163772583008,-22.482431411743164,-31.164093017578125,-0.0084362179842189,1015.7495705966599
0.26621484375,-0.0323523367460817,0.1720015573896467,0.240115747064352,-0.2212351858615875,0.0685007572174072,0.0008609336800873,0.1754664766872629,0.0592042973526813,1.6393258993416338,1.4845631122589111,-22.343578338623047,-31.12240600585937,-0.008541911860095027,1015.7495828045791
0.276283935546875,-0.0603176905795931,0.1599415556311607,0.1831944209247827,-0.2062887251377105,0.0755581334233284,-0.0055639427155256,0.1733191296906347,0.0599250090533873,1.6394270576818462,1.4640607833862305,-22.04597282409668,-31.499420166015625,-0.008647605735971158,1015.7495950124983
0.28635302734375,-0.054034993580915,0.1428568575784564,0.1436708043098449,-0.1924734860658645,0.0549492090940475,-0.0068593090400099,0.1713184382974199,0.0605869261182342,1.6394868873727968,1.5637396574020386,-21.967220306396484,-31.122100830078125,-0.008753299611847287,1015.7496072204175
0.296421875,-0.0057770490314811,0.1141423658780753,0.093960724723339,-0.191784530878067,0.0210301261395216,0.0005935472436249,0.1694002309681451,0.0609624231787101,1.6395630836679886,1.879680156707764,-21.86314392089844,-31.146697998046875,-0.008858990925012753,1015.7496194280408
0.306490966796875,0.0795782348340377,0.0680146748229861,0.0589449409216642,-0.2059326767921447,-0.0262814499437809,0.0077364249154925,0.1674150012926763,0.060904404316122,1.6397276038653108,1.6455585956573486,-21.90435791015625,-30.94989013671875,-0.008964684800888882,1015.7496316359601
0.316559814453125,0.1224247853266075,0.0140859546281397,-0.0480845242112875,-0.2117282450199127,-0.0648837015032768,0.0221715569496154,0.165320094395913,0.0603818156167927,1.64000481582183,2.025684118270874,-21.69712257385254,-31.237945556640625,-0.009070376114054347,1015.7496438435833
0.326629150390625,0.1247687181042507,-0.0314507847964763,-0.1787929710954427,-0.2080540955066681,-0.0680689364671707,0.0340119749307632,0.1632117282670009,0.0596222678566717,1.6404264178673031,1.7555887699127195,-21.536306381225582,-31.408905029296875,-0.00917607255264114,1015.7496560517985
0.33669775390625,0.0534221589121967,-0.0372578636400401,-0.2962462150871753,-0.2068628519773483,-0.0321660600602626,0.0324867814779281,0.1611428374679755,0.0590413889644788,1.6408897182486912,1.6200871467590332,-21.666492462158203,-31.71026611328125,-0.009281761303095944,1015.7496682591258
0.346766845703125,-0.0247429577209055,-0.0615545388981699,-0.3551309502542019,-0.20017771422863,0.0232124589383602,0.0314761102199554,0.1591277897019098,0.0589194151919453,1.64133778718591,1.755664944648743,-21.666221618652344,-31.242156982421875,-0.009387455178972073,1015.7496804670451
0.3568359375,-0.0648281172087416,-0.0945708194456994,-0.355233241584897,-0.2086521536111831,0.0738271623849868,0.0253130216151475,0.1570937143458385,0.0593472638497473,1.641745575924872,1.5742180347442627,-21.846172332763672,-31.470184326171875,-0.009493149054848202,1015.7496926749643
0.36690478515625,-0.0786102300520986,-0.1212441607072949,-0.3291448606044054,-0.2224883735179901,0.1185297295451164,0.0246288515627384,0.1549427564479971,0.0602570417859767,1.642138859475747,1.641036868095398,-21.780881881713867,-31.36163330078125,-0.009598840368013669,1015.7497048825876
0.37697412109375,-0.0733634519724175,-0.1620524103052914,-0.2950724951326847,-0.2356388121843338,0.1505180150270462,0.0248272567987442,0.1526619006558677,0.0615649019808002,1.6425337639244235,1.775370717048645,-21.720993041992188,-31.376251220703125,-0.00970453680660046,1015.7497170908027
0.387042724609375,-0.0268684985075145,-0.2034738233655691,-0.3139344319909811,-0.2401202470064163,0.1759294122457504,0.0281170718371868,0.1502877387796534,0.0631705363968861,1.6429401529044187,1.5653955936431885,-21.78306770324707,-31.69354248046875,-0.009810225557055262,1015.7497292981301
0.397112060546875,-0.0033491642974317,-0.1952121909767389,-0.3195598706573248,-0.2270214706659317,0.1820461601018905,0.032101958990097,0.147961039968502,0.0649080449266907,1.6433934392259888,1.7849093675613403,-21.66736221313477,-31.91558837890625,-0.009915921995642054,1015.7497415063453
0.407180908203125,-0.0227519300341606,-0.176498430417478,-0.3059060238361358,-0.2027048170566558,0.1675878465175628,0.035226359963417,0.1458179319088947,0.0666133195286901,1.6438773262520796,1.7178382873535156,-21.16362190246582,-31.7991943359375,-0.010021613308807522,1015.7497537139685
0.41725,-0.0235739870067685,-0.1696668308317661,-0.2981535100132226,-0.1703884154558181,0.1432630717754364,0.0407755859196186,0.1439775696438186,0.0681174688721103,1.6444042228146942,1.8866091966629028,-21.142601013183597,-31.40478515625,-0.01012730718468365,1015.7497659218878
0.42731787109375,0.0031278496969491,-0.1842114890128374,-0.2634492763787507,-0.1385697573423385,0.0980698838829994,0.0487565696239471,0.1424790887600678,0.0692547340775469,1.6449776900431947,1.8792662620544436,-21.14110565185547,-32.278594970703125,-0.010232988247006466,1015.7497781283271
0.437386962890625,0.0098149993106722,-0.2320592818588018,-0.2549883220255374,-0.1165424883365631,0.0490219108760356,0.0465434826910495,0.1412497120556827,0.0698807867879041,1.6455632053098168,1.700162649154663,-20.846057891845703,-32.40411376953125,-0.010338682122882593,1015.7497903362463
0.4474560546875,0.0093396368838846,-0.2805504871748387,-0.2365145077019929,-0.0983649343252182,0.0136011950671672,0.0401564240455627,0.1402163011197924,0.0701049978087588,1.646083842939574,1.743000030517578,-21.02392578125,-32.462982177734375,-0.010444375998758724,1015.7498025441655
0.45752490234375,-0.0506885692298412,-0.2534380238436162,-0.1779641190558671,-0.0897165834903717,-0.0036909752525389,0.0282329190522432,0.139325465961187,0.0700677295517506,1.6465067888266465,1.779294490814209,-20.95901298522949,-32.220245361328125,-0.01055006731192419,1015.7498147517888
0.467593994140625,-0.0995198932204395,-0.2077545694246888,-0.1216588789880275,-0.0909675881266594,0.0002919067628681,0.0116909593343734,0.1384517660500719,0.0699870327998637,1.646776272330807,1.6666228771209717,-21.060592651367188,-32.122283935546875,-0.010612195857986341,1015.7498263302043
0.477662841796875,-0.1093869880445301,-0.1804442454338073,-0.0799859753847122,-0.1012399345636367,0.0062810899689793,0.0044516883790493,0.1375045172434502,0.0699923404448913,1.6469214074460756,1.8813660144805908,-20.58454132080078,-32.4158935546875,-0.010665048642384956,1015.7498377743294
0.48773193359375,-0.0999074312333017,-0.1577937299475073,-0.0530278258323669,-0.1129058003425598,0.0062341499142348,-0.0052102664485573,0.1364473904487966,0.0700539198935898,1.6469779961093536,1.5902249813079834,-20.8084716796875,-32.354034423828125,-0.01071790270831173,1015.749849218732
0.49780078125,-0.0820348707385361,-0.1205120470404624,-0.0557984595894813,-0.1278248280286789,0.0084890481084585,-0.0100702689960598,0.1352329803689109,0.0701126813532346,1.646986902809586,1.5382447242736816,-20.70145606994629,-32.129150390625,-0.010770755492710345,1015.7498606628571
0.507869873046875,-0.0274211639542132,-0.1000849066920578,-0.1027098483681678,-0.1213630586862564,0.0175833348184824,-0.0045226383954286,0.133978190948452,0.0702246342715069,1.647013317135734,1.4777672290802002,-20.69825553894043,-32.116607666015625,-0.010823609558637119,1015.7498721072596
0.51793896484375,0.0520472172971814,-0.0588664688579738,-0.1409410870850086,-0.0969820842146873,0.0262702982872724,0.0096083600074052,0.1328921204524403,0.0704293299487926,1.647121606577136,1.76277494430542,-20.72327041625977,-32.259246826171875,-0.010876463624563895,1015.7498835516623
0.5280078125,0.0652856151852756,-0.002971855417639,-0.1746317597627639,-0.0705876350402832,0.0256739854812622,0.0171698555350303,0.1320998592967764,0.0706460978014132,1.6473289500735728,1.6980531215667725,-20.675220489501957,-32.268341064453125,-0.010929316408962508,1015.7498949957874
0.538076904296875,0.0478377098433673,0.0366634048782289,-0.1408195065319538,-0.0537327527999877,0.030121199786663,0.0199169069528579,0.1315130316689869,0.0708813222851772,1.6475522242732794,1.4921069145202637,-20.685747146606445,-31.979034423828125,-0.010982170474889284,1015.74990644019
0.548145751953125,0.0413511243030428,0.0415692970983684,-0.0712713385313749,-0.0458394847810268,0.0234055034816265,0.032661747187376,0.131063381868586,0.0711139406416056,1.6478545978414014,1.7116103172302246,-20.46412467956543,-31.740509033203125,-0.011035023259287898,1015.7499178843151
0.558215087890625,0.0235305862564593,0.0265818635858595,-0.0603314268440008,-0.0371605083346366,-0.0130126914009451,0.0403119437396526,0.1306915728836159,0.0711272825127613,1.6482501123776685,1.763429045677185,-20.49215316772461,-31.724273681640625,-0.011087878606742832,1015.7499293289951
0.568283935546875,0.0056130175761878,0.0368064666107296,-0.0706488227188587,-0.0261922664940357,-0.0457541830837726,0.0316353701055049,0.1304196201130522,0.0707504455463757,1.648640870719419,1.766671657562256,-20.68263435363769,-32.27423095703125,-0.011140731391141447,1015.7499407731202
0.57835302734375,-0.0065117930468171,0.0620035978399217,-0.0444330159664154,-0.0212009698152542,-0.0534738861024379,0.016575725749135,0.130225519096206,0.070193684474996,1.648882895176343,1.782724142074585,-21.008262634277344,-31.985015869140625,-0.011193585457068222,1015.7499522175228
0.588421875,-0.0281882758691906,0.089113576953113,-0.0075508537709712,-0.0297391861677169,-0.0497794263064861,0.0045113395899534,0.1299973316619534,0.0696340786698542,1.649011465015666,1.8944114446640012,-20.707788467407227,-32.08917236328125,-0.011246438241466835,1015.7499636616479
0.59849072265625,-0.0426468632020056,0.0827972334131598,-0.0044873745471239,-0.0373342521488666,-0.0222700387239456,0.0009349808096885,0.1296709202563173,0.0692551028789147,1.64906326632836,1.9163306951522827,-20.39569854736328,-31.84750366210937,-0.01129929102586545,1015.7499751057729
0.60856005859375,-0.0511306139089167,0.0699910894624888,0.0191191264897584,-0.048538826406002,0.0092302244156599,0.0051337187178432,0.1292465160704587,0.0692157242072876,1.6491203269324095,2.0051159858703613,-20.376922607421875,-32.07391357421875,-0.011352146373320385,1015.7499865504531
0.61862890625,-0.0326608181733638,0.0999262089990079,0.0188917474746704,-0.0531205236911773,0.0243106391280889,0.0104714930057525,0.128739546214694,0.0693896092544354,1.6492251747966296,1.9576735496521,-20.33330726623535,-31.937652587890625,-0.011404999157719,1015.7499979945782
0.628697998046875,-0.0390730963684618,0.1184486847698688,0.0309106865704059,-0.0541815720498561,0.0316666290163993,0.0171538926661014,0.1281976891731489,0.0696600509980936,1.6493984948939144,1.7420504093170166,-20.44508552551269,-32.30328369140625,-0.011457853223645774,1015.7500094389807
0.638766845703125,-0.0354356166489422,0.1178844750158488,0.0760509740233421,-0.0548550821840763,0.0050355507992208,0.0228040553629398,0.1276627677034601,0.069835562289899,1.6496373183093158,1.7408182621002195,-20.476221084594727,-32.34490966796875,-0.011510706008044389,1015.7500208831058
0.6488359375,-0.0233493844706565,0.106015173523873,0.035265374648571,-0.0507727600634098,-0.0481367819011211,0.0293847173452377,0.1271348042897608,0.0696030725579984,1.649926826920945,1.5864101648330688,-20.631074905395508,-32.479736328125,-0.011563560073971165,1015.7500323275084
0.65890478515625,0.0054641836900264,0.0827994253702461,-0.0598094487965106,-0.0324518084526062,-0.0820457488298416,0.028420653194189,0.1267172257551756,0.0688969309255152,1.6502468904639964,1.6356539726257324,-20.451074600219727,-32.50555419921875,-0.011616412858369778,1015.7500437716335
0.66897265625,0.0041270168021321,0.0796437378183007,-0.1050327383577823,-0.0098660895600914,-0.0857784748077392,0.0237619951367378,0.126500486830376,0.0679997982890133,1.650532815120764,1.6853100061416626,-20.379791259765625,-32.164764404296875,-0.01166926051665575,1015.7500552146487
0.6790419921875,-0.0567637974902987,0.1203140402503311,-0.1502706409662962,0.0096122715622186,-0.0704431980848312,0.0152183081954717,0.1264973129536626,0.0671660669973742,1.6507232829479015,1.6159898042678833,-20.601806640625,-32.06170654296875,-0.011722115864110686,1015.7500666593287
0.689111083984375,-0.1195318768966943,0.1490934138804674,-0.1357750826239585,0.0225833170115947,-0.0325792916119098,0.0086935646831989,0.1266715470392991,0.0666351828180123,1.6508310816384033,1.476151943206787,-20.41561889648437,-32.195709228515625,-0.01177496993003746,1015.7500781037313
0.699179931640625,-0.1526206381585449,0.1442373521514237,-0.0903244140475988,0.0247836206108331,0.0026319581083953,0.0049342466518282,0.1269107041644266,0.0664695721928664,1.6508777583049274,1.403702974319458,-20.30460929870605,-32.2139892578125,-0.011827822714436075,1015.7500895478564
0.7092490234375,-0.1685356348447501,0.1223370705105364,-0.0498871897190809,0.0255553945899009,0.0367396511137485,0.0041749724186956,0.1271359759228239,0.0666774166416546,1.6508887232788758,1.505462646484375,-20.252273559570312,-32.0875244140625,-0.01188067678036285,1015.7501009922589
0.71931787109375,-0.2027717395108193,0.1199291325859725,-0.0242640881627798,0.0284872688353061,0.0394211858510971,0.0003338954411447,0.1273806806844586,0.0670771828877443,1.6508956009029283,1.6136634349822998,-20.29313850402832,-32.26092529296875,-0.011933529564761463,1015.750112436384
0.729386962890625,-0.1953293145503848,0.1099152497023343,-0.0126958154439926,0.0307434163987636,0.0205886960029602,-0.0047098598442971,0.1276588180462078,0.0673920201004058,1.6508565616037336,1.4738523960113523,-20.20893669128418,-32.10833740234375,-0.01198638363068824,1015.7501238807866
0.7394560546875,-0.1939358874306082,0.0779722974747419,0.0087666593015193,0.0281652100384235,-0.0077028637751936,-0.0058049513027071,0.1279285090078652,0.0674666440406157,1.6507916250093335,1.5642995834350586,-20.252389907836918,-32.35760498046875,-0.012039237696615013,1015.7501353251893
0.74952490234375,-0.165896445447579,0.0144384213276207,0.0561591095954179,0.0295078009366989,-0.0292439498007297,0.0023592365905642,0.1281810594817548,0.0672779111097013,1.6507566962956817,1.3460147380828855,-20.343122482299805,-32.195556640625,-0.012092090481013628,1015.7501467693144
0.759593994140625,-0.1243381081346422,-0.0097702833861112,0.1216559563785791,0.0276206862181425,-0.0573797114193439,0.0047219926491379,0.1284459646416794,0.0668372472188935,1.6507867447357842,1.4206769466400146,-20.450815200805664,-31.93637084960937,-0.012144944546940402,1015.7501582137169
0.769662841796875,-0.1131082735899835,-0.0125533382333815,0.1174053131967782,0.0212434846907854,-0.090921863913536,0.0010753097012639,0.1286521506250655,0.0660673093706284,1.650806910164305,1.3277344703674316,-20.322452545166016,-32.13909912109375,-0.012197797331339017,1015.750169657842
0.77973193359375,-0.1030414184100925,-0.0386664152637124,0.1058820486634969,0.0195505134761333,-0.1071793958544731,-0.0062316050752997,0.1288135649620964,0.0650467658872329,1.6507765597954365,1.3367044925689695,-20.23594665527344,-32.34442138671875,-0.012250651397265793,1015.7501811022446
0.78980078125,-0.0956364759158343,-0.047960313309729,0.0720838239580392,0.0239601600915193,-0.1112410277128219,-0.0109158288687467,0.1289965311848384,0.0639306837749851,1.6506758163485369,1.32251238822937,-20.38089370727539,-32.123779296875,-0.012303504181664406,1015.7501925463697
0.799869873046875,-0.1311676984263584,-0.0464494703553617,0.0376624989181757,0.0193472988903522,-0.1006427109241485,-0.0198659151792526,0.1291826631580803,0.0628290491301481,1.6505197305619836,1.2373127937316897,-20.28270721435547,-32.23297119140625,-0.012356358247591182,1015.7502039907722
0.80993896484375,-0.1807795418027788,-0.0549561635464429,0.0443389079421758,0.0005417075008153,-0.0545317083597183,-0.0318344309926033,0.1292465187364631,0.0620517206486414,1.650242149717123,1.3039069175720217,-20.28030586242676,-32.223388671875,-0.012409212313517956,1015.7502154351748
0.8200078125,-0.1714986859014257,-0.1027725383408367,0.0748895290285348,-0.0204639751464128,-0.0035367009695619,-0.0285158660262823,0.1291150137840163,0.0617882400789344,1.649930366437861,1.334638595581055,-20.355466842651367,-31.9127197265625,-0.01246206509791657,1015.7502268792999
0.8300771484375,-0.1527573432154953,-0.1288901454158127,0.0549661004185676,-0.0265355594456195,0.0184994284063577,-0.0183383226394653,0.1288605346032177,0.0618595039012257,1.6497067619856494,1.3197739124298096,-20.408973693847656,-32.1944580078125,-0.012514920445371506,1015.7502383239799
0.840145751953125,-0.1111389828110113,-0.1100803771361708,0.0035667525708675,-0.0212324075400829,0.0091370847076177,-0.0167177878320217,0.1285943778919563,0.0620403839946178,1.6495548357016463,1.4640007019042969,-20.22254943847656,-32.420379638671875,-0.012567771948241959,1015.7502497678275
0.85021484375,-0.063606247263588,-0.1046905007913708,-0.0101502226144075,-0.0119920261204242,-0.0163456927984952,-0.0175505522638559,0.1284408234149358,0.0620290937732803,1.649386056723276,1.577007293701172,-20.628421783447266,-32.230560302734375,-0.012620626014168735,1015.7502612122302
0.860283935546875,-0.0328861513618379,-0.1231355274118483,-0.0072708677858114,0.0044750971719622,-0.0320556797087192,-0.0185841247439384,0.1284059900482038,0.0617930177605001,1.6492026571901468,1.418828010559082,-20.52095603942871,-32.3004150390625,-0.01267348008009551,1015.7502726566328
0.870352783203125,-0.0011905614914372,-0.1514015446923673,0.0317465528726577,0.0090593760833144,-0.0411792062222957,-0.0194768346846103,0.1284845094255657,0.0614419510649174,1.6490126819602564,1.412876844406128,-20.42913246154785,-32.224395751953125,-0.012726332864494124,1015.7502841007579
0.880422119140625,0.0102954032387584,-0.1512204890370369,0.0209743989676237,0.0097427433356642,-0.053438801318407,-0.0142091028392314,0.1285954273373873,0.0609532816501412,1.6488348684966927,0.9867475032806396,-20.570362091064453,-32.0372314453125,-0.01277918821194906,1015.7502955454379
0.89049072265625,0.0164926869763061,-0.1343107091598212,0.0540916556715965,0.0069763828068971,-0.0475677736103534,-0.0052936300635337,0.1286878105020641,0.060423514053731,1.6487215842110778,1.0377213954925537,-20.269695281982425,-32.585418701171875,-0.012832039714819513,1015.7503069892855
0.90056005859375,0.0214365365866571,-0.1257742053523659,0.0865378812462091,-0.0029473546892404,-0.0649795159697532,0.003645269665867,0.1287347166692699,0.0598529693679788,1.64872763915306,1.1490211486816406,-20.358396530151367,-32.1859130859375,-0.012884895062274448,1015.7503184339656
0.91062890625,0.0573420723022893,-0.0998759401164949,0.0468242950171232,-0.014370147138834,-0.087762139737606,0.0009024860337376,0.1286743076002709,0.0590517860111665,1.648763539994918,1.2279317378997805,-20.4251766204834,-32.038665771484375,-0.012937747846673063,1015.7503298780907
0.920697998046875,0.0883054754406213,-0.1069631218984723,0.0113631055355072,-0.018259959295392,-0.1082509011030197,-0.001421388471499,0.1285302588314035,0.058050092286843,1.6487701911270267,1.1868484020233154,-20.607988357543945,-31.891754150390625,-0.012990601912599837,1015.7503413224932
0.93076708984375,0.0983641473140567,-0.0845436386890709,-0.0571726705521345,-0.0106904245913028,-0.0990666449069976,-0.0079333689063787,0.1284044687003302,0.0569978033278478,1.6487132497855934,1.1339914798736572,-20.539167404174805,-32.028839111328125,-0.013043455978526613,1015.7503527668958
0.940835693359375,0.0458634871609509,-0.0335294907666742,-0.0890349587589502,-0.0027528721839189,-0.0482612587511539,-0.0163702629506587,0.128357060904708,0.0562709000834646,1.648590716378229,0.8958687782287598,-20.497289657592773,-32.27996826171875,-0.013096307481397066,1015.7503642107434
0.950905029296875,0.0222348108248785,0.0041702714219689,-0.1061678798675537,0.00752770062536,-0.01379647385329,-0.0137646244838833,0.1284176806707405,0.0559925196331159,1.6484337939706883,0.8606123924255371,-20.6315975189209,-32.028656005859375,-0.013149162828852002,1015.7503756554236
0.960972900390625,0.0583925677359104,0.030079642573744,-0.158864866310358,0.0175944492220878,-0.0028985522221773,-0.0044243861921131,0.1285738041567532,0.0559530405832595,1.648333035384837,1.1076745986938477,-20.445711135864254,-32.170166015625,-0.013202010487137972,1015.7503870984386
0.9710419921875,0.1133553436862304,0.0413479094326496,-0.1475286487817764,0.0339995324611663,-0.0082385120913386,0.0002819607034325,0.1288554377498902,0.0559195511961523,1.6483024927915977,1.0093278884887695,-20.211381912231445,-31.934814453125,-0.013254864553064748,1015.7503985428413
0.981111083984375,0.1676535182479769,0.0518475300066173,-0.10552198317945,0.0447392612695694,-0.0182988680899143,0.0066136261448264,0.1292888247372441,0.0558169048357823,1.6483282123563652,0.7532150745391846,-20.27707862854004,-32.57257080078125,-0.013307718618991523,1015.7504099872439
0.9911796875,0.1967206593109294,0.0497824141703546,-0.0457750782251358,0.0519624091684818,-0.0217269212007522,0.0151754040271043,0.129815059781704,0.0556165179373394,1.648421947676738,0.8639516830444336,-20.546222686767575,-32.405487060546875,-0.013360570121861976,1015.7504214310915
1.0012490234375,0.1920112760435789,0.0331257322713732,0.0180149646401405,0.0463503301143646,-0.0285483431071043,0.0253438856452703,0.1303642428349689,0.0553503577125609,1.6486077008579425,0.8928594589233398,-20.410932540893555,-32.263641357421875,-0.013413425469316911,1015.7504328757715
1.011317626953125,0.1558530807411298,0.0194945356734097,0.0625730682909488,0.0283056553453207,-0.0338724292814731,0.0254190005362033,0.1307629145768703,0.0550239924201984,1.6488637245719735,0.9503726959228516,-20.31485748291016,-32.317901611328125,-0.013466276972187365,1015.7504443196191
1.021386962890625,0.1230743352765217,-0.0004385375477373,0.0503805261939764,0.0115514434874057,-0.0248975791037082,0.0210996195673942,0.130959769703698,0.0546871537506775,1.6490914099798164,0.6974546909332275,-20.43901634216309,-31.7559814453125,-0.0135191323196423,1015.7504557642992
1.0314560546875,0.1160609128504991,-0.0081087799146771,0.0464426022231578,0.0056364824995398,0.0023476779460906,0.0121231712400913,0.1310481456764531,0.0545624762958498,1.6492488784434318,0.7409958839416504,-20.366622924804688,-32.291839599609375,-0.013571986385569076,1015.7504672087018
1.04152490234375,0.0968210460579022,0.0128603583559393,0.041841245907545,0.003581054508686,0.0228177979588508,0.0086597315967082,0.131080970519056,0.0546949016708116,1.6493559150653916,0.9703652858734132,-20.580461502075195,-31.95199584960937,-0.01362483916996769,1015.7504786528268
1.051593994140625,0.0956063730385154,0.0386710914388298,0.0212567230403423,0.0139565048739314,0.0346806049346923,0.0099694617092609,0.1311346501121642,0.0550053881542797,1.649443550305457,0.8112242221832275,-20.672422409057617,-31.9639892578125,-0.013677693235894465,1015.7504900972294
1.061662841796875,0.1255689651038497,0.0260975872002542,0.043915129572153,0.0172718744724988,0.0283848904073238,0.0129410177469253,0.1312881754060669,0.0553574289696931,1.6495556165468883,0.8513376712799072,-20.55341148376465,-32.49835205078125,-0.01373054602029308,1015.7505015413545
1.07173193359375,0.1469670328436419,-0.0003591887012124,0.0689168843597173,0.008760530501604,0.0140444431453943,0.0141378426924347,0.1314142912721005,0.0555895934833151,1.6496884671594765,1.0838468074798584,-20.641122817993164,-32.1759033203125,-0.013783400086219854,1015.7505129857572
1.08180126953125,0.1452361173978075,-0.0147558167137205,0.1033516534030437,-0.002896923571825,0.017421331256628,0.0145916463807225,0.1314418312419305,0.0557681001073606,1.6498099051928483,0.8892819881439209,-20.464336395263672,-32.32135009765625,-0.01383625543367479,1015.7505244304372
1.091869873046875,0.1442312877368181,-0.0309133169189095,0.1166419276088476,-0.0110608311370015,0.0213680807501077,0.0194663032889366,0.1313806027575037,0.0559636630682233,1.6499768785375717,1.0046985149383545,-20.586145401000977,-32.163909912109375,-0.013889106936545242,1015.7505358742848
1.10193896484375,0.1362888773649931,-0.0486075251720845,0.0750426737636327,-0.0129743134602904,0.0325485616922378,0.0265220813453197,0.1312690616752354,0.0562260929665484,1.6502104336025112,0.920374870300293,-20.684595108032227,-32.589141845703125,-0.013941961002472018,1015.7505473186874
1.11201171875,0.0901003595007583,-0.0504457003846764,0.0538905801415443,-0.0144121665507555,0.0486780554056167,0.02659397944808,0.1311415675275281,0.0566208516675159,1.6504824229805743,1.1961069107055664,-20.51787376403809,-32.324310302734375,-0.013994834291321201,1015.7505587672523
1.1220810546875,0.0564702579038217,-0.051569151456654,0.0615548311591148,-0.0164153967052698,0.0617323406040668,0.0225952416658401,0.1309952363915167,0.0571707704277898,1.6507520476475217,1.257237434387207,-20.328351974487305,-32.1119384765625,-0.014047689638776137,1015.7505702119323
1.132149658203125,0.0736027406210079,-0.0716373953647911,0.0534440054178237,-0.0095578357577323,0.0580637082457542,0.0206987913697958,0.1308703794722827,0.0577788622048914,1.650976643115505,1.1601049900054932,-20.43868637084961,-32.282012939453125,-0.01410054114164659,1015.7505816557799
1.14221875,0.0728920716010034,-0.0770753486350178,0.0230552968949079,-0.0071133207529783,0.0376812070608139,0.0187016855925321,0.1307881805615473,0.0582522733492342,1.6511767515023494,1.1047990322113037,-20.49930000305176,-32.238006591796875,-0.014153395207573366,1015.7505931001825
1.152287841796875,0.0704190325509756,-0.0461563326276838,0.014597265151143,-0.0065139634534716,0.0148599054664373,0.0181064698845148,0.1307362665607073,0.0585066605203476,1.651371434806635,1.080249309539795,-20.382328033447266,-32.248504638671875,-0.01420624927350014,1015.7506045445851
1.162356689453125,0.0629017157234251,-0.029549042828381,0.024075287592411,-0.0101363947615027,-0.0019188085570931,0.0214154478162527,0.1306744561557124,0.0585560818957946,1.6515713347766598,0.9879755973815918,-20.28487205505371,-32.417388916015625,-0.014259102057898754,1015.7506159887103
1.172426025390625,0.0379326210964471,-0.0305279708631336,0.0066202949225902,-0.018087837845087,-0.013518052175641,0.0163000784814357,0.1305583833953038,0.0584605931502487,1.6517737297816957,0.9052889347076416,-20.34678840637207,-32.365570068359375,-0.01431195740535369,1015.7506274333903
1.18249462890625,0.0152918963517993,-0.0375114000096917,-0.0454752184957265,-0.0186974368989467,-0.0077128941193223,0.0156212402507662,0.1303941812258494,0.0583406824614848,1.6519546364093936,0.9626975059509276,-20.330135345458984,-32.28265380859375,-0.014364808908224143,1015.7506388772379
1.19256396484375,-0.0292868847608566,-0.0382452672421932,-0.0823147105932235,-0.0083888685330748,0.0227140821516513,0.0103806536644697,0.1302725412658104,0.0584000483642107,1.6520944694566608,1.1978366374969482,-20.37129592895508,-32.695587158203125,-0.014417664255679079,1015.750650321918
1.202632568359375,-0.051480779053457,-0.021565058337152,-0.1046820252239704,0.004086710512638,0.0541348531842231,0.0055720494128763,0.1302644019370578,0.0588056996456275,1.652173926972112,1.090376615524292,-20.384376525878903,-32.39874267578125,-0.014470515758549532,1015.7506617657656
1.212701904296875,-0.0405080245424062,0.0131036655925214,-0.0887222395479679,0.0119855385273695,0.0686077028512954,0.0024912916123867,0.130367276340575,0.0594489029527871,1.652199345869366,1.083108901977539,-20.45128059387207,-32.277862548828125,-0.014523371106004468,1015.7506732104456
1.22277099609375,-0.014298501400277,0.0148307816460728,-0.0443932684779167,0.0122467949986457,0.0571888610720634,0.0036191404797136,0.1305141160762085,0.0600952108948718,1.6522145119115803,0.8794002532958984,-20.37016868591309,-32.328277587890625,-0.014576225171931243,1015.7506846548482
1.232839599609375,0.0191291364271193,0.0124377490296959,-0.0048912791728973,0.0081785377115011,0.0437153615057468,0.007523079868406,0.1306219663905058,0.0606296692774566,1.652260046154144,1.073047399520874,-20.49549674987793,-32.059906005859375,-0.014629076674801697,1015.7506960986958
1.242908935546875,0.0637171237595379,0.0056261693187057,-0.007642623707652,0.0113945715129375,0.0286759566515684,0.0197635013610124,0.1307370859166433,0.0609856315986109,1.6523985140019852,0.8922774791717529,-20.467514038085938,-32.293182373046875,-0.014681932022256632,1015.7507075433758
1.2529775390625,0.0450328815557062,0.0245296072311699,-0.0025870938837528,0.0169645734131336,0.0155657473951578,0.0237047132104635,0.130911405918106,0.0611699480596928,1.6526081575797624,1.1726093292236328,-20.40453338623047,-32.048736572265625,-0.014734783525127085,1015.7507189872235
1.263046875,0.0093087302889674,0.0273133927308022,0.0094832831382751,0.0195808634161949,0.0206100400537252,0.0274866670370101,0.1311207982375518,0.0613063800765893,1.6528658764153596,0.9992308616638184,-20.45005226135254,-32.03765869140625,-0.014787638872582021,1015.7507304319035
1.27311572265625,-0.0114597708430141,0.0180985512703657,0.0382797540336847,0.0167853813618421,0.0277760941535234,0.0245052445679903,0.1313273272003061,0.0615053041010184,1.6531113232427854,1.0678765773773191,-20.349950790405277,-32.122406005859375,-0.014840491656980634,1015.7507418760287
1.283184814453125,-0.0274130902456119,0.0227544142521917,0.0768207893520593,0.0123472232371568,0.03081183321774,0.021109715104103,0.1314983919187572,0.0617474733984463,1.6533357660694057,0.9988415241241456,-20.474384307861328,-32.172119140625,-0.01489334572290741,1015.7507533204313
1.29325390625,-0.02166903016828,0.0344113881677389,0.1353483816444873,0.004828356206417,0.0290869213640689,0.0178137701004743,0.131589203489677,0.0620198301900301,1.6535363135819825,1.2804749011993408,-20.49972343444824,-32.17303466796875,-0.014946199788834186,1015.7507647648338
1.30332275390625,-0.0169974946932867,0.0444622420608997,0.1540840617746114,-0.0119333136826753,0.0303327478468418,0.0167580917477607,0.1315456194317529,0.0623091065864108,1.6537169943094825,1.2521581649780271,-20.71558380126953,-31.75643920898437,-0.0149990525732328,1015.7507762089589
1.313391845703125,0.0232488101730123,0.020173603978753,0.182380766454339,-0.0173336043953895,0.0278191659599542,0.0261052623391151,0.1314022364296431,0.0625861559822335,1.6539401868685288,1.3702549934387207,-20.81223487854004,-32.264923095703125,-0.015051906639159575,1015.7507876533615
1.323460693359375,0.0337544951615855,0.003844546598941,0.1485042158156633,-0.0188148543238639,0.0177457612007856,0.029866712167859,0.131231025404568,0.0627974393530919,1.654230245530403,1.31087327003479,-20.65060043334961,-32.57562255859375,-0.015104759423558189,1015.7507990974866
1.33352978515625,-0.0076755030639469,-0.0260807821959257,0.0871077900886535,-0.0106778154149651,0.022011823952198,0.0228314492851495,0.1310773416533687,0.0629483585695312,1.654515763955472,1.4313831329345703,-20.28670310974121,-32.369537353515625,-0.015157613489484963,1015.7508105418891
1.343598876953125,-0.0469151151057332,-0.0433729855194687,0.0738046564012765,-0.0121430875733494,0.0254968386143445,0.0059957443736493,0.1309609728089892,0.063166847854836,1.6546871571987205,1.5814672708511353,-20.215652465820312,-32.25689697265625,-0.01521046755541174,1015.7508219862917
1.353667724609375,-0.0799383368507027,-0.0539592614635825,0.0565004703789949,-0.0225836783647537,0.0244298856705427,-0.0153763834387063,0.1307955980397889,0.0634228193099118,1.6546697645835302,1.3423209190368652,-20.34322166442871,-32.004425048828125,-0.015263320339810352,1015.7508334304168
1.36373681640625,-0.0979473832067102,-0.0464445019192993,0.0440156673371791,-0.0372965782880783,0.0234005730599164,-0.0329140983521938,0.1304757894474787,0.0637031380374978,1.6544454887985094,1.237776279449463,-20.55814743041992,-31.97845458984375,-0.015316174405737126,1015.7508448748194
1.3738056640625,-0.0686309070251882,-0.0506847698375582,0.0004880757778882,-0.03617400303483,0.0335406176745891,-0.0376076847314834,0.1300704733990333,0.0640248585889557,1.6541113852664546,1.036433458328247,-20.392637252807617,-32.2791748046875,-0.015369027190135741,1015.7508563189446
1.383873779296875,-0.0185603235632181,-0.0367313555479049,-0.0407698172837495,-0.0293752215802669,0.0438569039106369,-0.0371003523468971,0.1297049778252786,0.0644595376186145,1.653759495303902,1.3854990005493164,-20.437442779541016,-31.93463134765625,-0.015421876129949875,1015.7508677622371
1.393942626953125,0.048532121848315,0.0116975981868803,-0.0721609808474779,-0.0167037509381771,0.0351153761148452,-0.0310160685330629,0.1294532403443564,0.064914362736808,1.653426811677013,1.544480323791504,-20.343338012695312,-32.0865478515625,-0.01547472891434849,1015.7508792063622
1.40401171875,0.1052654511351138,0.0394167952395975,-0.113562081772089,0.0053048795089125,0.0196011308580636,-0.0189426280558109,0.1293800433139287,0.0652200162471307,1.6531765465980366,1.4782757759094238,-20.48386573791504,-32.489013671875,-0.015527582980275264,1015.7508906507649
1.414080810546875,0.1485042158156633,0.0305875920958817,-0.0921095438987016,0.0198408626019954,0.0044992864131927,-0.0048332191072404,0.1295030774797178,0.0653605226179138,1.653048039997134,1.145238161087036,-20.770092010498047,-32.176422119140625,-0.015580437046202038,1015.7509020951674
1.42414990234375,0.168166509271413,0.0143982354477047,-0.0674053107529878,0.0232566334307193,-0.0047304304316639,0.005764830391854,0.1297463659800318,0.0653255895410951,1.6530542844337146,1.0750136375427246,-20.734317779541016,-32.21282958984375,-0.015633291112128814,1015.75091353957
1.43421875,0.1602381274249404,0.0089108900777995,-0.0323714067727327,0.0244904495775699,-0.0113116167485713,0.0107800979167222,0.130028415480995,0.0652043770116576,1.6531328887326568,1.242574691772461,-20.83552360534668,-32.20135498046875,-0.01568614389652743,1015.7509249836951
1.444287841796875,0.1367291684783995,0.020560703600198,0.0268593653529882,0.0117666637524962,-0.0112109491601586,0.014420373365283,0.1302416090517688,0.0650536176688737,1.653253621359443,1.24796462059021,-20.890382766723636,-32.36627197265625,-0.0157389979624542,1015.7509364280977
1.454356689453125,0.0930531083591282,0.0346219621784985,0.0554904165536165,-0.0130108958110213,-0.0033822488039731,0.0096019059419631,0.1302565209280999,0.0649439307396028,1.6533835763930065,1.338343858718872,-20.760290145874023,-32.2041015625,-0.015791850746852815,1015.7509478722227
1.464426025390625,0.0604169862356036,0.0298528480805456,0.054144847163558,-0.0339982025325298,0.0069529465399682,0.0144858788698911,0.1300276715054608,0.0649281131191259,1.6535133544138614,1.2179999351501465,-20.511341094970703,-32.366302490234375,-0.015844706094307753,1015.7509593169028
1.474494873046875,0.0467353015594184,0.0370744698971509,0.0020049100816249,-0.0405267812311649,0.0247328132390975,0.0133202234283089,0.1296469773010938,0.0650857576936732,1.6536592071628278,1.2625732421875,-20.64603614807129,-32.571990966796875,-0.016116905622643552,1015.7509885174327
1.484563720703125,0.0434613944552838,0.063338353575021,-0.0644201574623584,-0.0321111902594566,0.027371471747756,0.0154014835134148,0.1292548287805856,0.0653735323077578,1.6538320566030256,1.4582111835479736,-20.60503387451172,-32.320892333984375,-0.016435185858877658,1015.751021448256
1.4946328125,0.0730637749060988,0.1126604567572474,-0.1573246511310339,-0.0115725062787532,0.0111710727214813,0.019363734871149,0.1290180483892479,0.0655746433684969,1.6540262552709863,1.6317843198776243,-20.793704986572266,-32.36370849609375,-0.01675347381249298,1015.7510543798778
1.50470166015625,0.1177968697976321,0.1416995042368769,-0.1761678832888603,0.0172412991523742,0.0113433804363012,0.0299588553607463,0.1290651693012129,0.0656992875331085,1.6542680420455476,1.493584156036377,-20.714399337768555,-32.078887939453125,-0.01707175404872709,1015.7510873107011
1.51477099609375,0.1110249645099043,0.1725131601735949,-0.116752986767888,0.0380333811044693,0.0040050935931503,0.0360907725989818,0.1293716987889777,0.0657829454878937,1.6545802613649052,1.4930341243743896,-20.583229064941406,-32.24639892578125,-0.01739004971972364,1015.7511202431214
1.524839599609375,0.0897458835072815,0.1772944031007587,-0.0778460407465696,0.0476953275501728,0.0066986144520342,0.0438496246933937,0.1298326063524151,0.065805475823618,1.654969934770126,1.1928515434265137,-20.6757755279541,-32.761383056640625,-0.01770832223857653,1015.7511531731461
1.534908935546875,0.0663154696896672,0.1387682730905711,-0.0236024093836545,0.0425950698554515,0.0123933590948581,0.048037152737379,0.1303333051014159,0.0658650192717531,1.6554194442361072,1.2859041690826416,-20.3783016204834,-32.33013916015625,-0.01802661790957307,1015.7511861055664
1.544977783203125,0.0427503235764801,0.1167246374562382,0.0286298821568489,0.0285820476710796,0.028608014807105,0.0472997240722179,0.1307132336260771,0.066029978493656,1.6558882882383843,1.006335973739624,-20.384449005126957,-32.26727294921875,-0.018344898145807177,1015.7512190363897
1.555046875,0.0332370836913585,0.0833525292083621,0.083317165634036,0.0158996749669313,0.0428139008581638,0.0504548028111457,0.1309745571453169,0.0663341715608259,1.6563693117402147,1.306077241897583,-20.406414031982425,-32.219512939453125,-0.0186631860994225,1015.7512519680114
1.56511572265625,0.0411341205514967,0.0849174404375255,0.1199281096726656,-0.0014449600130319,0.0419153496623039,0.0498966015875339,0.1310585721982121,0.0667085976361755,1.656872753492196,1.3183693885803225,-20.51125907897949,-32.2393798828125,-0.01898146633565661,1015.7512848988347
1.5751845703125,0.0336448607746511,0.0665182987853884,0.1160240879714488,-0.0131620690226554,0.041445568203926,0.0497717000544071,0.1309976536901836,0.0670790213908547,1.6573834774706862,1.1769471168518066,-20.35990524291992,-32.19744873046875,-0.01929974657189072,1015.751317829658
1.58525390625,0.0359607365015894,0.0309112710922956,0.1010299324572086,-0.0202119890600442,0.0420280024409294,0.0425404198467731,0.1308290263677914,0.0674557973685113,1.657869735226006,1.1860589981079102,-20.4641170501709,-32.277557373046875,-0.01961804224288726,1015.7513507620782
1.59532275390625,0.0392160119704902,0.0091552202276885,0.0986433295816183,-0.0176849793642759,0.0392355360090732,0.0406540818512439,0.1306229467544778,0.0678433984313495,1.6583025157727125,1.219904899597168,-20.28842544555664,-32.48272705078125,-0.01993632247912137,1015.7513836929015
1.605391845703125,0.0413834922026842,0.009183131147921,0.0633043051749467,-0.0031374599784612,0.020531091839075,0.0395624488592147,0.1305027001026246,0.0681125017410035,1.6587207113479996,1.0798029899597168,-20.65136337280273,-32.372222900390625,-0.0202546104327367,1015.7514166245234
1.615460693359375,0.0349979558840394,0.0214347099557518,0.0195668702572584,0.0088227000087499,-0.0078125596046447,0.0341863185167312,0.1305315376886405,0.0681231400180428,1.6591076488094465,1.3944909572601318,-20.62494468688965,-32.22174072265625,-0.0205728906689708,1015.7514495553467
1.62552978515625,0.0332630218502134,0.0351177828714251,0.0327349793881177,0.0149421114474534,-0.0273364596068859,0.0291763823479414,0.1306460806856705,0.0679019597379039,1.6594168293919962,1.3326821327209473,-20.48518943786621,-32.2852783203125,-0.02089117862258613,1015.7514824869684
1.635598876953125,0.0483008703757077,0.0218199098810553,0.0445844071358442,0.0113137448206543,-0.0315825492143631,0.0289004892110824,0.1307866261896913,0.0675870630140006,1.6596907407567123,1.2511448860168457,-20.524946212768555,-31.958892822265625,-0.02120946657620145,1015.7515154185901
1.645667724609375,0.0496015046454966,0.0056650400243699,0.0481458990097045,0.0024004112929105,-0.0277167055755853,0.0287577435374259,0.1308641833157781,0.0672531387895807,1.6599694029729657,1.2897450923919678,-20.78118324279785,-32.3511962890625,-0.02152774681243556,1015.7515483494134
1.65573681640625,0.0068077803187072,-0.0061135144442319,0.0282592952787876,-0.0111377928406,-0.0047581084072589,0.020201276987791,0.130837806549648,0.0670521103367456,1.6602116998941543,1.172271728515625,-20.57655143737793,-32.2435302734375,-0.02184603476605089,1015.7515812810352
1.6658056640625,-0.0075925009556114,0.001357552088797,0.0307195479124784,-0.019361101090908,0.0352681390941143,0.0097971046343445,0.1307135848464461,0.067193453009258,1.6603724099651804,1.245159387588501,-20.45572853088379,-32.44891357421875,-0.022164315002284996,1015.7516142118585
1.675874755859375,0.0086804423227906,0.0209919346243143,0.041000118908286,-0.0246230959892272,0.0585594698786735,0.0090644666925072,0.1305014040246089,0.0676736159146848,1.6604846228283554,1.3492038249969482,-20.366249084472656,-31.91259765625,-0.02248260295590032,1015.7516471434802
1.68594384765625,0.0310229878384619,0.0233029880456626,0.047406478819251,-0.0281411297619342,0.053004115819931,0.018457967787981,0.1302312375737825,0.0682371281761634,1.6606454078478072,1.1658339500427246,-20.44178771972656,-32.0465087890625,-0.022800890909515648,1015.7516800751021
1.6960126953125,0.0664409227002412,0.0051605976335704,0.0259165315449237,-0.0244858041405677,0.0344435684382915,0.0248743370175361,0.1299659002726372,0.0686559854192738,1.6608901497426718,1.2232415676116943,-20.418302536010746,-32.51690673828125,-0.023119171145749757,1015.7517130059252
1.706081787109375,0.087969521484524,0.0003821311853826,0.0152022453069686,-0.0102408220991492,0.0109867118299007,0.0234852321445941,0.1298130423549119,0.068857123257183,1.661161605411858,1.0179967880249023,-20.64373588562012,-32.550811767578125,-0.02343745909936508,1015.7517459375471
1.71615087890625,0.0823955938097089,0.031644407672435,0.0131464818209409,0.0039135999977588,-0.0126527473330497,0.0189687497913837,0.1297964159768878,0.0688299675404857,1.6613791710114925,1.0210609436035156,-20.37464141845703,-32.41546630859375,-0.02375574705298041,1015.7517788691688
1.7262197265625,0.0591911707676947,0.0399321974158287,-0.0078232409715652,0.0166999697685241,-0.0260330028831958,0.012703395448625,0.1299254446741597,0.0686162649854062,1.661529695645399,1.189034938812256,-20.32328224182129,-32.25738525390625,-0.02407402728921451,1015.7518117999921
1.7362890625,0.0336247678346931,0.0512511715486645,0.009912322205305,0.0196760296821594,-0.0296476576477289,0.0035184044390916,0.1301353968697976,0.0683228565994782,1.661610406251204,1.031097412109375,-20.24371337890625,-31.91217041015625,-0.024392322960211058,1015.7518447324123
1.746357666015625,0.0011966624386608,0.0583852612122893,0.0379506682097911,0.0015287175774574,-0.0322921760380268,-0.0066612623631954,0.1302535199621617,0.0680109571625225,1.661600184831265,1.113219976425171,-20.32383155822754,-32.09234619140625,-0.02471059547906395,1015.7518776624372
1.756427001953125,0.0044916853960603,0.050538785495609,0.0324146613925695,-0.0188718512654304,-0.0188725776970386,-0.0046540265902876,0.130154469071246,0.0677475453192316,1.6615440788602065,1.0623857975006104,-20.545249938964844,-31.86236572265625,-0.02502889115006049,1015.7519105948575
1.76649560546875,0.0433175290051847,0.0513449873119592,0.0372948346495628,-0.0339980721473693,0.006451154127717,0.001707199960947,0.1298834348804415,0.0676762571687967,1.661542087204201,1.143127202987671,-20.37784194946289,-31.792755126953125,-0.02534716366891338,1015.7519435248822
1.776564697265625,0.0525155654612928,0.0856621213249862,0.0254097510665655,-0.040550947189331,0.0196768380701541,0.0080670993775129,0.1295038950972129,0.0678199076396912,1.6616184642243397,0.9598166942596436,-20.33086204528809,-31.88812255859375,-0.025665451622528708,1015.7519764565039
1.786634033203125,0.0431463371567428,0.1182616377651691,-0.0073082771867513,-0.0394023284316062,0.0233541317284107,0.0125481337308883,0.1291170153510974,0.0680264234998403,1.6617503246325611,1.2148425579071045,-20.364768981933597,-31.983062744140625,-0.02598374729352525,1015.7520093889242
1.79670263671875,0.0586125671621412,0.1168333585277199,-0.0217734403908252,-0.0338320098817348,0.0125547107309103,0.015421412885189,0.1287547393531217,0.0681873587007052,1.6619205233610157,1.1417624950408936,-20.112281799316406,-32.010498046875,-0.02630201981237814,1015.7520423189491
1.80677197265625,0.0638875849556177,0.1112796699233353,-0.0290711961835622,-0.0234454162418842,-0.0022697751410305,0.0191287994384765,0.1284760270335278,0.0682118435158861,1.6621087807068524,1.0212018489837646,-20.105131149291992,-31.93173217773437,-0.02662031548337468,1015.7520752513693
1.816840576171875,0.0726416770365089,0.1001809144124388,-0.0288180982053279,-0.0112189939245581,-0.0121561214327812,0.0269475914537906,0.1283195503104057,0.0681256254059141,1.6623591513930889,1.075035810470581,-20.39704322814941,-31.961151123046875,-0.026938588002227575,1015.7521081813941
1.826909912109375,0.054571840403974,0.1048074051693081,0.0089957918822765,-0.0046598957851529,-0.0311013162136077,0.0320600643754005,0.1282567416651962,0.0678591692143998,1.6626664448250137,1.1071679592132568,-20.364665985107425,-31.827423095703125,-0.027256883673224118,1015.7521411138143
1.836978759765625,0.0244886176336556,0.1063923362731933,0.0105120416641235,-0.0091117303818464,-0.0341982021927833,0.032232366502285,0.1282043112681462,0.067473828827756,1.6629949939689954,1.2018508911132812,-20.42592430114746,-32.412445068359375,-0.027575163909458227,1015.7521740446376
1.8470478515625,-0.012705679250881,0.0864300369575619,0.0550438418298959,-0.0194639693945646,-0.0260188337415456,0.0284900926053524,0.1280750031369986,0.0671267195796273,1.663302123995542,1.1030025482177734,-20.173646926879883,-32.03680419921875,-0.02789345186307355,1015.7522069762593
1.857116943359375,-0.0311971022963523,0.0597768617011606,0.0815162536919116,-0.0319299548864364,-0.0066107450984418,0.0299649313092231,0.1278270406894498,0.0669329916910953,1.663612238518694,1.0943217277526855,-20.098527908325195,-32.10552978515625,-0.028211739816688876,1015.7522399078812
1.867185546875,-0.0514839573912322,0.0679892481207847,0.1158423016637563,-0.0472276844084262,0.0026756972074508,0.0237768106162548,0.1274406283769212,0.0668922543169454,1.6639174680863569,0.8284592628479004,-20.59894371032715,-32.37066650390625,-0.02853001233554177,1015.7522728379059
1.8772548828125,-0.0595343581821769,0.0674113021023571,0.1218979484409093,-0.062253288924694,0.0101757617667317,0.0197833888232707,0.1268735678118963,0.066945971743461,1.6641868049420372,0.8687527179718018,-20.5770263671875,-32.24298095703125,-0.028848308006538308,1015.7523057703262
1.887323486328125,-0.0483752507861703,0.0370233242318034,0.1341582950770855,-0.0654405578970909,0.0104207741096615,0.0203253403306007,0.1262263487072673,0.067039508025653,1.6644310581019703,0.8948698043823242,-20.64352035522461,-31.8824462890625,-0.029166580525391197,1015.7523387003511
1.897392822265625,-0.0189083332832902,0.0062613984823226,0.0992202526867389,-0.0693424716591835,-0.0025452352128922,0.0132208252325654,0.125540736786079,0.0670657160809398,1.6646476001411283,1.2079837322235107,-20.329235076904297,-32.0888671875,-0.02948487619638774,1015.7523716327713
1.9074619140625,0.0173026516523212,-0.008477832422778,0.0358890595048666,-0.0552727282047271,-0.0201844163239002,0.0123899197205901,0.1249025113006975,0.0669371510488746,1.6648188357792648,1.0795211791992188,-20.401561737060547,-32.27691650390625,-0.02980316415000307,1015.752404564393
1.91753076171875,0.0289501270871609,-0.0126381669726222,0.0027069208711385,-0.0448231734335422,-0.0324532613158226,0.0051480224356055,0.1243980598060189,0.0666734015998626,1.6649373681283648,1.1427645683288574,-20.553455352783203,-32.678497314453125,-0.03012144438623718,1015.7524374952163
1.927599853515625,-0.0052598202243447,0.0109506522770971,-0.0252788181632757,-0.0379301123321056,-0.0385220721364021,-0.0007250467315316,0.1239773458919477,0.0663095793390624,1.6649777537435364,1.1417157649993896,-20.379762649536133,-32.3253173828125,-0.030439732339852497,1015.752470426838
1.937668701171875,-0.0153054134204983,0.0065458414468914,-0.0384925200015306,-0.035346619784832,-0.0364305861294269,-0.0011367998085916,0.1236015994655854,0.0659232771386368,1.6649941805501032,1.1523442268371582,-20.480728149414062,-32.564727783203125,-0.03075801257608661,1015.7525033576613
1.94773779296875,-0.0145993109777569,0.0041615035936236,-0.0403752650082111,-0.031948160380125,-0.0394692532718181,-0.0029911589808762,0.1232643420957056,0.0655242175709057,1.665002650842846,1.2555887699127195,-20.408546447753903,-32.350311279296875,-0.031076300529701936,1015.7525362892832
1.957806884765625,-0.0115011257667094,0.0140496412057429,-0.0517909775137901,-0.0217369720339775,-0.0296883657574653,-0.0132294101640582,0.1229888221831343,0.0651721482013035,1.664933173875218,0.9536948204040528,-20.47659683227539,-32.655487060546875,-0.03139458848331726,1015.7525692209049
1.967875732421875,-0.0028477175813168,-0.0043750732790678,-0.0536760606080293,-0.0134382965043187,-0.0159967895597219,-0.0194739904254674,0.1228023460264854,0.064957573525688,1.6647792086684294,0.9404952526092528,-20.715900421142575,-32.30230712890625,-0.03171286871955137,1015.7526021517282
1.97794482421875,0.0094836484644562,-0.0023281506866216,-0.0398246453881263,-0.012763038277626,-0.0103677734732627,-0.0263774581253528,0.1226590482424578,0.0648576989645625,1.664555284641802,0.9786341190338136,-20.22807884216309,-32.18267822265625,-0.032031156673166694,1015.75263508335
1.988013671875,0.051906712847948,-0.0133708651613444,-0.0555371783047914,-0.0075469706207513,0.0027783885598182,-0.0213731117546558,0.1225391839165086,0.0648489640829648,1.6643215171750594,0.7559738159179688,-20.151100158691406,-32.201812744140625,-0.0323494369094008,1015.7526680141732
1.998082763671875,0.0920239845070987,-0.0177690270550549,-0.0641834260970354,-0.0059814928099513,0.0128565011546015,-0.0104080699384212,0.122456277411897,0.0649546492616152,1.6641709103630558,0.871570348739624,-20.22153091430664,-32.335906982421875,-0.032667724863016126,1015.752700945795
2.00815185546875,0.1227658173166215,0.0169901516370475,-0.0679687898546457,-0.005164966918528,0.0193250514566898,0.0028020082972943,0.1223992360086466,0.0651322695458845,1.6641344107873206,0.936683177947998,-19.974689483642575,-31.981170654296875,-0.03298601281663145,1015.7527338774167
2.018220703125,0.1214119184896349,0.020011033828184,-0.053529345613718,-0.0037067160010337,0.0229113698005676,0.009654582478106,0.1223559992972643,0.0653329416175637,1.6641965621571515,0.8187651634216309,-19.928659439086918,-32.306396484375,-0.03330429305286556,1015.75276680824
2.0282900390625,0.1015226113449782,0.0236527513314038,-0.0645481677561998,3.90196219086e-05,0.0135343810543417,0.0148189840838313,0.1223458090067939,0.0655010524628617,1.6643234147258572,1.0944218635559082,-19.921955108642575,-32.33880615234375,-0.033622588723862104,1015.7527997406603
2.038358642578125,0.0884407922580838,0.0258021113850176,-0.054702481046319,0.0003277547657489,-0.0054918099194765,0.0111443474888801,0.1223514024663085,0.0655384320701973,1.6644512478477758,0.8746840953826904,-20.03459930419922,-32.3858642578125,-0.033940861242715,1015.7528326706852
2.048427734375,0.0741598995797336,0.028554040441662,-0.0665671063631773,7.15591013431e-05,-0.0288754291832447,0.005796720739454,0.1223574059341055,0.065360324730029,1.6645225331092568,1.0013742446899414,-20.063888549804688,-31.964385986328125,-0.03425914919633033,1015.7528656023069
2.05849658203125,0.0790562202539294,0.0232311649184674,-0.0810731860995292,0.0123896710574626,-0.038777008652687,0.0014613713137805,0.1224101151077912,0.0650106964583911,1.6645489204786308,1.107424020767212,-19.93338203430176,-31.9171142578125,-0.034577429432564435,1015.7528985331302
2.068565673828125,0.0988889749057591,0.0351700975805521,-0.0933797099649906,0.0264152102172374,-0.0290855001658201,-0.0019815634004771,0.1226066762774265,0.0646958375441496,1.6645344612630073,1.1875145435333252,-20.09251976013184,-32.376678466796875,-0.03489571738617975,1015.7529314647519
2.0786357421875,0.0984024334978312,0.0444610730171203,-0.0845464151680469,0.0369936972856521,-0.0100187053903937,-0.0017086118459701,0.122946294539609,0.0645175410890015,1.6644924918027164,1.2431554794311523,-20.233522415161133,-32.3780517578125,-0.03521403620931996,1015.7529643995676
2.08870361328125,0.0799458625700324,0.0493636773016303,-0.0434112717032432,0.0352466627955436,0.013087679632008,0.001655759755522,0.1233116634115785,0.0645565465327586,1.6644593210600171,1.0200622081756592,-20.11774063110352,-32.417327880859375,-0.035532285576029186,1015.752997327197
2.09877294921875,0.0588774286434054,0.0317467720683664,0.0165209266901016,0.0265134554356336,0.0351739674806594,-0.003023674711585,0.1236079518023276,0.0648177249588016,1.664427652617064,1.518195390701294,-20.04031562805176,-32.415252685546875,-0.03585058124702574,1015.7530302596173
2.1088427734375,0.0645923722241073,0.0242778244271874,0.0555289949983358,0.0157082118093967,0.0469632484018802,-0.0010793006513267,0.1237937929611309,0.0652477288881859,1.6643954155959588,1.4129071235656738,-20.220630645751957,-32.223968505859375,-0.03616889235278471,1015.7530631936345
2.118906982421875,0.0703456019885838,0.0232495042927563,0.0707698187500238,0.0132151786237955,0.0474003441631794,0.0027170213870704,0.1239187673533656,0.0657503645878017,1.6643958856869907,1.3234708309173584,-20.2197380065918,-32.16705322265625,-0.03648702595877566,1015.7530961092866
2.12897705078125,0.0825492500014603,0.0050064299851655,0.0638940877616405,0.017220040783286,0.0357644595205783,0.0024389871396124,0.1240584719306998,0.0661744596194051,1.664421784162602,1.3066728115081787,-20.294771194458008,-32.30517578125,-0.03680534478191587,1015.7531290441024
2.139046142578125,0.113519484739378,-0.0058645811844617,0.0682733257591724,0.0254883542656898,0.0154331233352422,0.0032855831086635,0.1242637735507551,0.0664232229731333,1.6644383630479298,1.0034923553466797,-20.493783950805664,-32.590423583984375,-0.03712363273553118,1015.7531619757241
2.149114990234375,0.1354339410360902,-0.020324702887237,0.0899094035059213,0.0284396670758724,-0.0070775113999843,0.0039652222767472,0.1245308076321591,0.0664801479666282,1.664462413924621,1.066273212432861,-20.339561462402344,-32.069549560546875,-0.037441912971765294,1015.7531949065474
2.15918408203125,0.1385234314840286,-0.0147064976792782,0.1185743569761514,0.022896084934473,-0.0216128826141357,0.0080156605690717,0.1247852512717441,0.0663336009300655,1.6644852151953966,1.2576181888580322,-20.28121566772461,-31.904205322265625,-0.03776020092538063,1015.7532278381691
2.16925341796875,0.1300046094637364,-0.0171983875602483,0.1334849258601665,0.0154040791094303,-0.0306886695325374,0.0050379806198179,0.1249751374114333,0.0660566772630807,1.6645285792970437,1.1477255821228027,-20.06065559387207,-32.164764404296875,-0.03807849659637717,1015.7532607705893
2.179322021484375,0.1129850125364959,-0.018097966748476,0.1474690275490283,0.0039467001333832,-0.0258519239723682,-0.0029877130873501,0.1250672184096919,0.0657759862244884,1.6645332175969496,1.2711067199707031,-20.18879127502441,-32.1436767578125,-0.03839676911523006,1015.7532937006142
2.189391357421875,0.0758664843019098,0.0067947747066617,0.1261643737137317,-0.0196576938033103,-0.0167106240987777,-0.0099939573556184,0.1249803915869123,0.0655603638472024,1.664488023259956,1.2982864379882812,-20.28709983825684,-32.28179931640625,-0.03871506478622659,1015.7533266330345
2.1994599609375,0.0533663370717316,0.0042984278462827,0.0722422293901443,-0.0411352217197418,0.0068277395330369,-0.0110851116478443,0.1246776990943176,0.0655172606029067,1.66438333650389,1.313772201538086,-20.453733444213867,-32.284210205078125,-0.039033337305079484,1015.7533595630592
2.209529296875,0.062710357869789,0.0094118253372609,0.0177326405674219,-0.0466255955398082,0.0271740239113569,-0.0008809431456029,0.1242343879226706,0.0657225210322535,1.6643400367396373,1.1732699871063232,-20.43606758117676,-32.568450927734375,-0.03935163297607604,1015.7533924954795
2.219598388671875,0.0715362000126391,0.0303569251451641,-0.0588274520218372,-0.042302019894123,0.0344644822180271,0.0103568118065595,0.1237726595527946,0.0660426275619697,1.6644188609905846,1.2468297481536863,-20.271076202392575,-32.38433837890625,-0.03966992092969136,1015.7534254271013
2.229667236328125,0.0803049782060086,0.0317692761611193,-0.133625795635581,-0.0277004446834325,0.0344604887068271,0.021948218345642,0.1234411184379784,0.0664004742294768,1.6646107535386383,1.3222472667694092,-20.1287899017334,-32.369842529296875,-0.03998820116592547,1015.7534583579245
2.239736328125,0.0759853614412248,0.039893838166818,-0.1561567763954401,-0.0013923598453402,0.034973107278347,0.023359153419733,0.1233226556177747,0.0667518789396524,1.6648478323974882,1.3884673118591309,-20.199974060058597,-32.14892578125,-0.04030648911954078,1015.7534912895463
2.249804931640625,0.0643231268286705,0.0202395088218152,-0.1307896954268217,0.0228005945682525,0.0297698266804218,0.0169707611203193,0.1234557150413543,0.0670756209106829,1.6650529350900194,1.2247662544250488,-20.14034080505371,-32.53533935546875,-0.040624761638393674,1015.7535242195711
2.259874267578125,0.0596000438295304,0.0061846069190651,-0.1023012675672769,0.0336652025580406,0.020409096032381,0.0137259718030691,0.1237643690228222,0.0673334663305758,1.6651966611454152,1.4585416316986084,-19.901348114013672,-32.550750732421875,-0.04094305730939023,1015.7535571519913
2.26994287109375,0.04788856324777,-0.0135330699857324,-0.0607563742578029,0.0448326356709003,0.0213502570986747,0.00773172872141,0.1241830837907851,0.0675568464739615,1.6652735984093858,1.2754056453704834,-20.108497619628903,-32.353729248046875,-0.04126132982824311,1015.7535900820162
2.28001220703125,0.0257932704914361,-0.0197262986026704,0.0355798474252224,0.0320675037801265,0.023592660203576,0.0032416740432381,0.1245769353424426,0.0677861121181178,1.6653011698327085,0.9608957767486572,-20.03788185119629,-32.61126708984375,-0.04157962549923966,1015.7536230144365
2.290081298828125,0.0228230225089937,-0.0226090874973684,0.1008686044156551,0.0038534421473741,0.0256997533142566,-0.0017538836691528,0.1247573927628342,0.0680627828931634,1.6652947668514393,1.016904354095459,-20.268360137939453,-32.378753662109375,-0.04189791345285499,1015.7536559460582
2.300150146484375,0.0194433169428259,-0.0289455239772796,0.1283586688876151,-0.0287629812955856,0.0333480648696422,-0.001516132382676,0.1246290629645308,0.068363581833012,1.6652723804665006,1.1743597984313965,-20.43001747131348,-32.228057861328125,-0.0422161936890891,1015.7536888768815
2.31021923828125,0.0183601248160004,-0.034956600960344,0.1061614501267671,-0.0513889268040657,0.0468617416918277,-0.0002348856069147,0.1241958585660495,0.0687797163058181,1.6652877163412263,1.2995257377624512,-20.358680725097656,-32.582855224609375,-0.042534481642704416,1015.7537218085032
2.3202880859375,0.0402030502464622,-0.018821970174089,0.048667292535305,-0.0479575581848621,0.0591727569699287,0.0047876387834548,0.1236703435051951,0.0693304897433594,1.6653354319133449,1.1937108039855957,-20.038219451904297,-32.6014404296875,-0.04285276187893852,1015.7537547393265
2.330357177734375,0.0516625288285315,0.0314431129466742,-0.0040308629512786,-0.0319032222032547,0.0499246641993522,0.0077980766072869,0.1232538573988309,0.0698882162320237,1.665430787062747,1.3720901012420654,-20.224018096923828,-32.395904541015625,-0.04317104983255385,1015.7537876709483
2.34042626953125,0.0687901892401278,0.075476681266725,-0.0706330406278371,-0.0116054853424429,0.0320576429367065,0.0065138675272464,0.1230427244783502,0.0702800227246522,1.6655258577376413,1.261629581451416,-20.17452812194824,-32.3359375,-0.04348933778616918,1015.75382060257
2.3504951171875,0.0910877265702933,0.0723160252787172,-0.1055389343142509,0.0188834480941295,0.009978437796235,0.0106614744290709,0.123086962022153,0.0704806131695385,1.6656163327244182,1.2829375267028809,-20.271413803100582,-32.410858154296875,-0.043807618022403294,1015.7538535333933
2.360564208984375,0.0818207895964384,0.0769957805927842,-0.0907908625155687,0.0414411947131156,-0.0091525949537754,0.0186991393566131,0.1233986872396889,0.0704668340672122,1.6657385300357157,1.219139575958252,-20.320253372192383,-32.252105712890625,-0.044125905976018606,1015.7538864650152
2.370633056640625,0.0552642065823078,0.0771983904927968,-0.0557791703671216,0.0485544949769973,-0.0236873291432857,0.0136322109028697,0.1238807888415704,0.0702779541993246,1.665880415573046,1.2580509185791016,-20.34855079650879,-32.7037353515625,-0.04444418621225271,1015.7539193958384
2.3807021484375,0.0231705207724124,0.0671033321317285,-0.0029459903240203,0.0420429930090904,-0.0155419632792472,0.0052054249681532,0.1243657393495734,0.0700583307274173,1.6659492423099234,1.2296531200408936,-20.137401580810547,-32.27508544921875,-0.04476247416586804,1015.7539523274602
2.390771240234375,0.0107489922251552,0.0458872333627194,0.0346972193717956,0.0229401383548975,0.0016045332886278,-0.0003403415903449,0.1247073866916625,0.069984414477804,1.6659579003702865,1.1982433795928955,-20.378631591796875,-32.2962646484375,-0.04508076211948337,1015.7539852590819
2.400840087890625,0.0046889615338295,0.0257153829496353,0.0475777437329292,-0.0014762710779905,0.0380676873028278,0.001573990099132,0.1248180376037951,0.0702088945746213,1.665941974090905,1.14508318901062,-20.4392204284668,-32.696319580078125,-0.045399042355717484,1015.7540181899052
2.410909423828125,0.0036476357873529,0.016194617345184,0.0428039534598588,-0.0133704803884029,0.0701105743646621,0.0096715977415442,0.1247315232488456,0.0707779140201497,1.666008529117014,1.173748254776001,-20.49065399169922,-32.349609375,-0.045717338026714016,1015.7540511223254
2.42097802734375,0.0246871358804404,0.0385495839510112,0.0341021760880947,-0.0114971911534667,0.0691286772489547,0.0126702906563878,0.12459917430803,0.0714766059127281,1.666139280889762,1.4074418544769287,-20.287168502807617,-32.340484619140625,-0.0460356105455669,1015.7540840523503
2.431047119140625,0.0237964706510305,0.0486121282819658,0.0061187751412391,-0.0020147403702139,0.0466872900724411,0.011965618468821,0.1245106989396977,0.0720609534817576,1.666258319498359,1.1608936786651611,-20.253433227539062,-32.7164306640625,-0.04635389849918223,1015.754116983972
2.4411162109375,0.0430612161565572,0.032342765200138,0.023773089775443,0.0153370797634124,0.021258395165205,0.0155701804906129,0.1245610514064489,0.0724045734658435,1.666404515223156,1.473351001739502,-20.43772315979004,-32.616363525390625,-0.04667218645279756,1015.7541499155939
2.45118505859375,0.0347224999435245,0.0312201178457587,0.0594102203458547,0.0222370624542236,-0.0081564839929342,0.0137336645275354,0.1247532503745489,0.072463775912828,1.6665252531827732,1.280439376831055,-20.323923110961918,-32.673797607421875,-0.046990466689031674,1015.754182846417
2.46125439453125,0.0229901957694441,0.0407201329231262,0.0644739334762096,0.0293856412172317,-0.0232625901699066,0.0112374881282448,0.1250067937444858,0.0722718740934609,1.6666303764663413,1.0656702518463137,-20.412134170532227,-32.33203125,-0.04730876236002822,1015.7542157788373
2.471322998046875,-0.000710851683095,0.0058396659389138,0.1116512797147035,0.0324541367590427,-0.0127686709165573,0.0047982297837734,0.1253282061167758,0.0720803529130329,1.6667041797184186,1.216806173324585,-20.367202758789062,-32.63409423828125,-0.04757254085680864,1015.7542432020279
2.481392333984375,-0.0244485048189759,-0.0055997197031974,0.1606587639898061,0.0183370597660541,-0.0129642356187105,-0.0087332800030708,0.1255828040429672,0.0719536804651974,1.6666749986652023,1.371371507644653,-20.37025451660156,-32.3182373046875,-0.04762557611869896,1015.7542493288452
2.4914609375,-0.0227554371654987,-0.0069401745267212,0.1654682100981473,-0.0075616482645273,-0.0137959402054548,-0.0181299783289432,0.1256295803604684,0.071841316940842,1.6665347324912765,1.0329749584197998,-20.403018951416016,-32.198699951171875,-0.04767860752291822,1015.7542554552167
2.5015302734375,0.0137687784377485,-0.0369790466986596,0.1472282045304775,-0.0292489044368267,-0.0070961713790893,-0.0208623670041561,0.1254182028591461,0.071760994308992,1.6663439194541811,0.918445348739624,-20.690603256225582,-32.00274658203125,-0.04773164278480855,1015.754261582034
2.51159912109375,0.0179203451592475,-0.0189586021658033,0.1039157170265912,-0.0451168157160282,-0.0073446440510451,-0.0215257611125707,0.1250095372328453,0.071714994236314,1.666150725343485,1.162635087966919,-20.84650611877441,-32.107666015625,-0.047784675474918166,1015.7542677085542
2.52166796875,0.0044593174964189,0.0360731839001178,0.0459954429775476,-0.0426597669720649,-0.002399404766038,-0.027434280142188,0.1245292200971368,0.0717100106094756,1.6659315430531667,1.020701885223389,-20.73281478881836,-32.442138671875,-0.04783770816502778,1015.7542738350743
2.5317373046875,0.0118553460318595,0.0566749501630663,0.0145452427029609,-0.0314864739775657,0.0082772076129913,-0.0282798334956169,0.1241244511629351,0.0718077226361496,1.6656828096541136,1.3427937030792236,-20.565317153930664,-32.41748046875,-0.04789074342691811,1015.7542799618916
2.541807373046875,0.0520717672165483,0.0659408642236143,-0.0156084880203008,-0.0134025616571307,0.0057716900482773,-0.0193038862198591,0.1238772307458419,0.0719171360373479,1.6654571982930406,1.31577467918396,-20.631837844848636,-32.429718017578125,-0.04794378254647951,1015.7542860891544
2.551876220703125,0.0958728419549763,0.0719349900718778,-0.0373100322186946,0.0150461234152317,-0.0046039852313697,-0.0115583483129739,0.1238781186026453,0.0719215551060261,1.6652933063210438,1.3964605331420898,-20.608251571655277,-32.293060302734375,-0.04799681523658913,1015.7542922156746
2.561945068359375,0.1227878830179572,0.0583946135625243,-0.0191284788399934,0.0353784449398517,-0.0221942570060491,-0.0041715968400239,0.124132018801501,0.0718025289820812,1.665197860555395,1.4283647537231443,-20.707664489746094,-32.234527587890625,-0.04804984792669874,1015.7542983421948
2.57201416015625,0.1406957340218126,0.0677354194901883,0.0016378303349018,0.0497400760650634,-0.0311731044203043,0.004534809384495,0.1245690926552682,0.0715185343705976,1.6651677904605795,1.313690423965454,-20.547800064086918,-32.23046875,-0.04810288190269871,1015.7543044688634
2.5820830078125,0.1265519117265939,0.0641625294394791,0.0485883820801973,0.0421978421509265,-0.0389134585857391,0.0075492756441235,0.1250477211875511,0.0711608347882842,1.66518893659313,1.280179738998413,-20.57750129699707,-32.1759033203125,-0.048155914592808324,1015.7543105953837
2.59215234375,0.0992236867528408,0.0372723305568099,0.0861754776746034,0.0176458954811096,-0.0386942774057388,0.0116609307006001,0.1253752613767333,0.07075718415574,1.6652695944352929,1.3464539051055908,-20.67400360107422,-32.172332763671875,-0.04820894985469865,1015.7543167222009
2.602220947265625,0.0707500180710107,0.0087565762989223,0.1138929211616516,-0.0091509940102696,-0.0232530608773231,0.016527272760868,0.1254127099394692,0.0704226996787656,1.665406924371887,1.4489192962646484,-20.25562858581543,-31.849334716796875,-0.04826198125891791,1015.7543228485725
2.612290283203125,0.0450830043077468,-0.0134321668945252,0.1141232227861881,-0.0333173163235187,-0.0077827577479183,0.0180348865687847,0.1251930368314829,0.0702592933549303,1.6655941553012892,1.249765396118164,-20.42674446105957,-32.100830078125,-0.04831501652080824,1015.7543289753897
2.622359130859375,0.0091830580826848,0.0040684915479272,0.0812801068484783,-0.0413813032209873,-0.0086422627791762,0.0030037844553589,0.1248078577023641,0.0701774621033719,1.665733028333589,1.4161524772644043,-20.564496994018555,-32.395782470703125,-0.048368049210917856,1015.75433510191
2.63242822265625,-0.0001366319917142,0.0028266017280519,0.0148445179104804,-0.0394150912761688,-0.0173907466232776,-0.0100174751132726,0.1243726664060749,0.0700700655093573,1.665727914504039,1.232842206954956,-20.654712677001957,-32.86126708984375,-0.048421083186917825,1015.7543412285786
2.642497314453125,0.0277148131385445,0.0019075871869921,-0.0507055203646421,-0.025465965270996,-0.0304615590721368,-0.0138753345236182,0.1240014345583351,0.0698644823843708,1.6656165727000505,1.1381306648254397,-20.49009132385254,-32.458343505859375,-0.048474117162917794,1015.7543473552473
2.65256591796875,0.056875148910284,0.01422748199068,-0.1117705221801996,-0.0066765649244189,-0.0451427698135376,-0.012915264815092,0.1238220193201033,0.0695411860734984,1.6654864834450327,1.2537596225738523,-20.50788307189941,-32.151611328125,-0.04852714856713705,1015.754353481619
2.66263525390625,0.0955048123601823,0.0382055928189307,-0.1568126099556684,0.0081215389072895,-0.0528933815658092,-0.0098038641735911,0.1238257257279428,0.0690918337622863,1.6653545211016914,1.3189799785614014,-20.46350860595703,-32.257049560546875,-0.04858018382902738,1015.7543596084362
2.6727041015625,0.131025842270255,0.0448662928171455,-0.1779126811295747,0.0247191581875085,-0.0558998212218284,-0.007619007024914,0.1239873631361545,0.0685787192460431,1.6652509943076454,1.393082857131958,-20.41275978088379,-32.46893310546875,-0.048633216519137,1015.7543657349564
2.682773193359375,0.1294379154916852,0.0634134646378457,-0.1896177319705486,0.0297230184078216,-0.0431300029158592,-0.0063348393887281,0.1242787225279047,0.0680974269402954,1.6651530533721275,1.5139236450195312,-20.37849235534668,-32.95416259765625,-0.048686250495136967,1015.754371861625
2.69284228515625,0.1205008680593222,0.0597130757499486,-0.1778717645972967,0.0309765692800283,-0.0072207376360893,0.0006437082774937,0.1245904462187041,0.0678646387666614,1.6651007383899887,1.2034034729003906,-20.484798431396484,-32.78570556640625,-0.048739284471136936,1015.7543779882938
2.7029111328125,0.1262788669388741,0.0449618621461093,-0.1341600486427545,0.0242369286715984,0.0333253405988216,0.0101471934467554,0.1248737156369573,0.0679963270653555,1.6651329164159483,1.417890548706055,-20.6450309753418,-32.453643798828125,-0.04879231716124655,1015.754384114814
2.712980224609375,0.1355656045917421,0.0256343536026775,-0.0760690942019224,0.0144711174070835,0.0563454367220401,0.0198805145919322,0.1250865234287571,0.0684596402183298,1.6652518823414395,1.225269794464111,-20.75666618347168,-32.538818359375,-0.04884535113724653,1015.7543902414826
2.723049072265625,0.1472642256919294,-0.0132425626065582,-0.0457464366525411,0.0102357305586338,0.0481854528188705,0.0187299773097038,0.1252125172204089,0.0689820851267195,1.6654408258085172,1.4506070613861084,-20.854644775390625,-32.2342529296875,-0.04889838382735614,1015.7543963680029
2.7331181640625,0.1418522836457937,-0.0439569228872656,-0.0183130708038806,0.0111617110669612,0.0281891115009784,0.014706740155816,0.125316205378602,0.0693863852752078,1.665607966191643,1.1155314445495603,-20.619007110595703,-32.6591796875,-0.048951417803356115,1015.7544024946716
2.7431875,0.1236037294454872,-0.0416723190814256,-0.0201876325041055,0.0166231337934732,-0.0055614849552512,0.0046213618479669,0.1254433523945102,0.0694946710880346,1.6656938069771987,1.4616193771362305,-20.5727596282959,-32.689971923828125,-0.04900445306524644,1015.7544086214888
2.753256103515625,0.1260065528035164,-0.034272125827521,-0.0506003064244985,0.0365789979696273,-0.0312822945415973,0.0009877453558146,0.1256964137591012,0.0693109978785171,1.6656926933205043,1.1339917182922363,-20.45653915405273,-32.448455810546875,-0.049057484469465694,1015.7544147478604
2.7633251953125,0.1511512962583452,-0.0102953301735222,-0.0607359159916639,0.0490033738315105,-0.0408419221639633,-0.0002378267236053,0.1260998916623835,0.0689593599470447,1.6656453517271208,1.2126727104187012,-20.467681884765625,-32.5938720703125,-0.04911051844546567,1015.754420874529
2.77339404296875,0.1580186978098005,0.050385933021456,-0.051692193314433,0.0514867715537548,-0.0288430508226156,0.0049071344546973,0.1266001117499093,0.068610760618035,1.6656231389153693,1.0666322708129885,-20.6298885345459,-32.619903564453125,-0.04916355113557528,1015.7544270010493
2.783463134765625,0.1544086906190961,0.0949937210328877,-0.0379687883883714,0.0486198514699935,-0.007368866354227,0.0175294298678636,0.1270939779354896,0.06843199245505,1.6656901532450532,1.1873886585235596,-20.505708694458008,-32.824371337890625,-0.049216585111575256,1015.754433127718
2.793532470703125,0.1539653307657688,0.080867580524832,-0.0096902038872241,0.0349764749407768,0.0286344084888696,0.031901977956295,0.1275185196993647,0.0685430880249176,1.6659157396734563,1.1302483081817627,-20.686906814575195,-32.473175048828125,-0.049269620373465585,1015.7544392545352
2.80360107421875,0.1469594705916941,0.0811756235606968,0.0333136560589075,0.0272417329251766,0.0547154024243354,0.0454707778990268,0.1278578492977387,0.0689442122583549,1.666289151361618,1.3809142112731934,-20.74336814880371,-32.69610595703125,-0.04932265177768484,1015.7544453809069
2.81367041015625,0.097637148213759,0.0746603964477777,0.0505617279797792,0.0170695222914218,0.0640122294425964,0.0512988418340683,0.1281111001200834,0.069526518659597,1.6667647529236291,1.307182550430298,-20.62819480895996,-32.9136962890625,-0.04937568703957517,1015.7544515077241
2.823739990234375,0.0751371471140533,0.050714142062515,0.1141530334025621,0.0107357911765575,0.0531717278063297,0.051616333425045,0.1282798985983476,0.0701042764950401,1.6672642452196609,1.470536231994629,-20.74234390258789,-32.64996337890625,-0.04942872358735585,1015.7544576346899
2.833809326171875,0.0642332565881311,0.0204679107502102,0.1297416476786136,0.0098188649863004,0.0262780655175447,0.0432532094419002,0.1284163539915283,0.070473648685395,1.667733945924448,1.3064587116241455,-20.42850112915039,-32.393524169921875,-0.04948175884924618,1015.7544637615072
2.843878173828125,0.0541799915421754,-0.0033138007231056,0.1263771396815776,0.0110667357221245,0.0009286203421652,0.0365976653993129,0.1285405398483847,0.0705701725613281,1.6681281750481236,1.1650972366333008,-20.60175132751465,-32.2078857421875,-0.0495347915393558,1015.7544698880273
2.853947265625,0.0385259838797152,-0.0181434133253991,0.1313788934916257,0.0131336152553558,-0.0182661116123199,0.0230227336287498,0.1286620469898245,0.07047275795424,1.668416214401082,1.4815771579742432,-20.493858337402344,-32.426788330078125,-0.04958782551535577,1015.754476014696
2.86401611328125,0.0230782393790781,-0.0063286184996366,0.1224111586600542,0.011842637322843,-0.0220330134034156,0.0165901388972997,0.1287690641040035,0.070261419819182,1.6686066347291697,1.350088596343994,-20.50589942932129,-32.238128662109375,-0.049640858205465384,1015.7544821412162
2.874085205078125,0.0146251760713756,0.0118285310901701,0.1180798514574766,0.0077517558820545,-0.0112386867403984,0.0130926091223955,0.1288666313828392,0.0700693484468964,1.6687476555392076,1.3215186595916748,-20.542673110961918,-32.03070068359375,-0.04969389218146535,1015.7544882678849
2.884154052734375,0.029338322687149,0.0281359611600637,0.1302151104092598,-0.0066740475594997,0.000641955062747,0.0144254863262176,0.1288663026272177,0.070048901260868,1.6688739726545996,1.16129469871521,-20.735492706298828,-31.85577392578125,-0.04974692487157497,1015.754494394405
2.89422314453125,0.0327400939546525,0.0254006909772753,0.1270475862890482,-0.0216266307979822,0.0180465131998062,0.0157144553959369,0.1287235359486072,0.0701288402518542,1.6690364969115457,1.24640154838562,-20.85379219055176,-32.4827880859375,-0.04979995884757494,1015.7545005210737
2.904292236328125,0.0222609316468238,0.0243963362403213,0.1278793609380722,-0.0429014451801776,0.029632456600666,0.0207047238945961,0.1284048746678037,0.0703731900750528,1.6692487827716465,0.9259076118469238,-20.794925689697266,-32.6380615234375,-0.049852992823574915,1015.7545066477425
2.914361083984375,0.0530978953938931,0.0189180509597063,0.1044891330003738,-0.0518222376704216,0.0279804952442646,0.0231529679149389,0.1279339319916641,0.0706453268085073,1.6695108289401788,1.124009370803833,-20.83764266967773,-32.572021484375,-0.049906025513684525,1015.7545127742626
2.92443017578125,0.0858633429855108,0.0188661746419966,0.0295586874395608,-0.0482813194394111,0.0111533319577574,0.029984513297677,0.1274516876988954,0.0708111257140853,1.669819441451884,1.171003341674805,-20.562088012695312,-32.6402587890625,-0.0499590594896845,1015.7545189009313
2.9344990234375,0.098856022484228,0.0347732072174549,-0.0671118807643652,-0.0260889325290918,-0.0033957839477807,0.0383010357618331,0.1271025521821102,0.0707951878290867,1.6701905318621664,1.3415031433105469,-20.47675132751465,-32.266571044921875,-0.05001209217979411,1015.7545250274515
2.944568359375,0.0757409582260996,0.0624770605705678,-0.1203273381233215,0.0036175865679979,-0.0182288102805614,0.0377601385116577,0.1270277663533879,0.0706321777892128,1.6705758955791945,1.1784443855285645,-20.3950252532959,-31.86444091796875,-0.05006512744168444,1015.7545311542688
2.95463720703125,0.0500088433373719,0.0707332861319184,-0.129908820939064,0.019792029634118,-0.0281815752387046,0.0361997932195663,0.127184294438846,0.0703554436605506,1.6709434140523989,1.18257737159729,-20.30649757385254,-31.883270263671875,-0.05011816013179406,1015.7545372807889
2.964706298828125,0.0325186332236975,0.0549063330553472,-0.1190536649256944,0.023695234209299,-0.0341729782521724,0.0323339626193046,0.1274339849364133,0.0700011992325575,1.671267795905006,1.4865412712097168,-20.14501571655273,-32.0435791015625,-0.050171194107794026,1015.7545434074576
2.974775146484375,0.0419557391326874,0.016429595144838,-0.0724321990042924,0.0164921823889017,-0.0235770586878061,0.0363164544105529,0.1276626879987747,0.0696783729831935,1.6715855960663577,1.3527348041534424,-20.11293029785156,-32.119781494140625,-0.05022422679790364,1015.7545495339778
2.984843994140625,0.0414363183684647,-0.0094753920927643,-0.0245814835488796,0.0002334164455533,0.0022054305300116,0.0408949665725231,0.127768578857201,0.0695323858031168,1.6719690441648047,1.3217041492462158,-20.09654998779297,-31.90414428710937,-0.05027725948801326,1015.7545556604979
2.994913330078125,0.0318702523175627,-0.0200955703064799,0.0001233341187238,-0.0158062689006328,0.0215279944241046,0.0452777296304702,0.1277074579940311,0.0696232587590175,1.6724064976747466,0.9281272888183594,-20.310142517089844,-32.2059326171875,-0.05033029474990359,1015.7545617873152
3.004982177734375,0.0315533683881163,-0.0197495333477854,0.0079991820603609,-0.0284394957125186,0.032010480761528,0.044627621769905,0.1274969018554284,0.0698699310388783,1.672887748776306,1.177332639694214,-20.28890037536621,-31.78207397460937,-0.0503833274400132,1015.7545679138353
3.01505126953125,0.0314675898008048,-0.0361224298693239,-0.0195312144219875,-0.0233563184738159,0.0213016420602798,0.0428875088691711,0.1272443401165543,0.0701078079199513,1.6733517348195135,1.2002394199371338,-20.31600570678711,-32.076995849609375,-0.05043636141601317,1015.754574040504
3.0251201171875,0.0413676370464265,-0.0432370841801166,-0.0791045163750648,-0.005776741541922,-0.000810073222965,0.0399958044290542,0.1270975020105575,0.070181133436658,1.6737809695666852,1.4919612407684326,-20.08747673034668,-32.40350341796875,-0.050489394106122784,1015.7545801670242
3.035189208984375,0.0379532254930585,-0.0252370248481631,-0.1165419743657112,0.0193429924547672,-0.0058724759146571,0.035797331482172,0.1271635117749064,0.0701018138364351,1.674156467316381,1.323450803756714,-20.026582717895508,-32.45916748046875,-0.05054242808212275,1015.7545862936929
3.045258056640625,0.0494508441284298,-0.0052047290362417,-0.0714122083067893,0.0392340719699859,0.0011386019177734,0.0282057747244834,0.1274845764528566,0.0700455320682282,1.6744611574636736,1.249096155166626,-20.195566177368164,-32.653350830078125,-0.05059546077223237,1015.754592420213
3.0553271484375,0.0688812285244464,0.0056745385050773,0.0155623107910156,0.0410562045872211,0.0019599203951656,0.0276281349360942,0.1279415612498263,0.0700365507842014,1.6747241395681394,1.156761884689331,-20.10550880432129,-32.20330810546875,-0.05064849474823234,1015.7545985468818
3.065396240234375,0.0974151029609143,-0.0204291861750185,0.0994891327559947,0.0244738161563873,0.0084835775196552,0.0354772247374057,0.1283039149834874,0.0700600738038227,1.6750283777794628,0.9173152446746826,-20.29578399658203,-32.268463134765625,-0.050701528724232316,1015.7546046735505
3.075466064453125,0.10720979013592,-0.0386186305992305,0.1816097820818424,-0.0046531744301319,0.0024336758069694,0.0354367457330226,0.1284338349300181,0.0700850754998796,1.6753892679445428,0.892284631729126,-20.41760635375977,-32.21331787109375,-0.050754566557903356,1015.7546108006649
3.08553515625,0.0924937209106981,-0.0491907318875193,0.1777139436870813,-0.0384215265512466,-0.0102554876357316,0.0244123227894306,0.1282391758456416,0.0700115071941912,1.6757155393501904,1.1336848735809326,-20.25835609436035,-32.382415771484375,-0.050807600533903326,1015.7546169273336
3.095604248046875,0.0703388069216161,-0.0375672218501567,0.1090706155717372,-0.0531107187271118,-0.0055874995887279,0.0110645601525902,0.1277880733281206,0.0699003740307749,1.6759198440489638,0.9003989696502686,-20.397260665893555,-32.54351806640625,-0.0508606345099033,1015.7546230540023
3.105673095703125,0.0596094692450016,-0.0019696926377713,0.0223223064452409,-0.0476797372102737,0.0108703020960092,0.0089271077886223,0.1272787332567837,0.0698911950241897,1.676052194825689,0.9383711814880372,-20.491952896118164,-32.709625244140625,-0.05091366720001291,1015.7546291805224
3.115741455078125,0.0618637509778141,0.0519008676290512,-0.0725105249375104,-0.0271132085472345,0.0227131135761737,0.0087233753874897,0.1269250289812341,0.070041228487814,1.67617762155641,1.067857265472412,-20.336803436279297,-32.4501953125,-0.050966697318341816,1015.7546353067455
3.125810302734375,0.1089885633114725,0.0973296166345477,-0.1095890864878892,-0.0058332867920398,0.0179232060909271,0.0223787501454353,0.1267803331299646,0.0702569678869535,1.6763557983198003,1.1515178680419922,-20.378042221069336,-32.998748779296875,-0.051019730008451426,1015.7546414332656
3.13587939453125,0.1628773898873478,0.0903219298295676,-0.126231009209156,0.0175362173467874,0.0067224847152829,0.0335664227604866,0.1268598390191585,0.0703790524538777,1.6766315037228663,0.8339200019836426,-20.37557601928711,-32.77264404296875,-0.0510727639844514,1015.7546475599344
3.145948486328125,0.1882865564320236,0.0747895757853984,-0.0873275703191757,0.0236027762293815,-0.004485837649554,0.0444456972181797,0.1271090334884924,0.0703688872748929,1.677020701396365,1.1660113334655762,-20.632078170776367,-32.34283447265625,-0.05112579796045137,1015.7546536866031
3.156017333984375,0.1912742670059204,0.060275020481646,-0.0505973838150501,0.019302038475871,-0.018753457814455,0.0524136088788509,0.1273859607831678,0.0702022645394131,1.6774882929636574,1.1626429557800293,-20.370973587036133,-32.310699462890625,-0.05117883065056099,1015.7546598131232
3.166086669921875,0.1751951657991856,0.0429904159426689,-0.0469505517452955,0.014880958944559,-0.0226033721119165,0.0625600069761276,0.1276088774667896,0.0699336794883125,1.6780529960171189,0.8721811771392822,-20.47245216369629,-32.644775390625,-0.05123186591245131,1015.7546659399405
3.1761552734375,0.1423583334717899,0.0239483002118766,-0.0585047959387302,0.0088816564530134,-0.0162919480353593,0.0619735829532146,0.1277895690403908,0.0696491207896413,1.6786717189545042,0.6893696784973145,-20.465988159179688,-32.12335205078125,-0.05128489731667057,1015.7546720663121
3.186224365234375,0.0850352215982973,0.016324235074222,-0.0987777696162462,0.004762876778841,-0.0047815539874136,0.0605722181499004,0.12791340420337,0.0694509756609935,1.6793009215707535,0.8972604274749756,-20.195091247558597,-32.16552734375,-0.051337931292670544,1015.7546781929808
3.19629345703125,0.0294570536959916,0.0117483054608106,-0.1191162087678909,0.0101709580048918,0.0133862644433975,0.0559010319411754,0.128027555517866,0.0694430232424423,1.6798807908835716,0.7385013103485107,-20.34455299377441,-32.368682861328125,-0.05139096526867051,1015.7546843196495
3.2063623046875,0.0015092355191707,8.16869340837e-05,-0.1439326701164245,0.0142891323193907,0.0249091200530529,0.0499775931239128,0.1281665342270094,0.0695949399592833,1.6803985347298862,0.8157398700714111,-20.790721893310547,-32.824432373046875,-0.05144399795878013,1015.7546904461697
3.216431640625,0.0128649614658206,-0.0089466920435428,-0.1580003584355115,0.032456949353218,0.0243463926017284,0.0476228259503841,0.1284075663666033,0.0698147581174591,1.6808574107260792,0.741661787033081,-20.52408599853516,-32.465911865234375,-0.05149703322067046,1015.754696572987
3.226500244140625,0.0326629370652139,-0.0070994567416608,-0.1426139887332916,0.0435235723853111,0.0160763561725616,0.0465993732213974,0.1287975070011117,0.070014074699778,1.681314310534625,0.7409806251525879,-20.444868087768555,-32.41339111328125,-0.051550064624889716,1015.7547026993585
3.236569580078125,0.044222515020892,-0.003709375911951,-0.1014022729009389,0.0491857193410396,0.0084663731977343,0.0493951626121997,0.1292845659148094,0.0701226084546027,1.6817766964562246,0.7670834064483643,-20.363452911376957,-32.477752685546875,-0.051603099886780045,1015.7547088261758
3.24663818359375,0.0372693348821252,0.0040745559625327,-0.0523620554000139,0.0445384234189987,-0.0052773151546716,0.0462214574217796,0.1297926500408927,0.0701190347938007,1.6822218287741666,0.6388921737670898,-20.614839553833008,-32.283050537109375,-0.0516561312909993,1015.7547149525474
3.25670751953125,0.0220236157596111,-0.0175436938665807,-0.0230798468142747,0.0358301550149917,-0.0080227674916386,0.0441798791289329,0.1302316932957739,0.0700287196708728,1.682630513819853,0.5228738784790039,-20.56792640686035,-32.415435791015625,-0.05170916655288963,1015.7547210793647
3.266776611328125,0.0273361890845,-0.0373209920041263,0.0007908581167459,0.0289060585200786,-0.0068359207361936,0.0456544756889343,0.1305830644352195,0.0699162023226542,1.683052155762622,0.4258096218109131,-20.49206924438477,-32.56915283203125,-0.0517622005288896,1015.7547272060334
3.276846435546875,0.0250811766993254,-0.0273363352149724,0.0148579619139432,0.019572477787733,0.0028787585906684,0.0454507432878017,0.1308558559007522,0.0698426514268948,1.6834871329589374,0.541609525680542,-20.61136245727539,-31.9027099609375,-0.05181523836256064,1015.7547333331478
3.28691552734375,0.0143047119453549,-0.0309426891438663,0.0169675014138221,0.0189737156033515,0.0088696274906396,0.0437391139566898,0.1310697652075489,0.0698603114659866,1.6839264662721531,0.5762264728546143,-20.872573852539062,-32.563507080078125,-0.05186827233856062,1015.7547394598165
3.296984619140625,0.0249278858337551,-0.0396270769894123,0.0206692785412073,0.023412674665451,0.0118872541934251,0.040189653635025,0.1313000926756384,0.0699242696860932,1.6843431198837349,0.7682886123657227,-20.78446578979492,-32.467315673828125,-0.051921306314560586,1015.7547455864851
3.307053466796875,0.054987362402305,-0.0425540703520178,0.0346767611056566,0.0259216967970132,-0.0003218101337552,0.0308089554309844,0.131568514717202,0.069944012985284,1.6846888009755452,0.7079513072967529,-20.769289016723636,-32.857330322265625,-0.0519743390046702,1015.7547517130054
3.317122314453125,0.0664363195903599,-0.0325591844297945,0.0382224708884954,0.0304831601679325,-0.0130011197179555,0.030911486595869,0.1318885670053302,0.0698465121919972,1.684987198502782,0.7358071804046631,-20.543418884277344,-32.356842041015625,-0.05202737169477982,1015.7547578395255
3.32719140625,0.0762950849775224,-0.0243440215311944,0.044912908437848,0.036373246461153,-0.0148647967725992,0.0330702885985374,0.1322410684029112,0.069681833792377,1.6852764108691831,0.5504131317138672,-20.83021545410156,-32.2647705078125,-0.05208040567077979,1015.7547639661942
3.33726025390625,0.0597151215765625,0.0035147301226854,0.0348620545446872,0.0322067290544509,-0.0219445433467626,0.0256176982074975,0.1326132087624063,0.0694507548800507,1.685542666268183,0.8772845268249512,-20.715625762939453,-32.151123046875,-0.0521334383608894,1015.7547700927144
3.34732958984375,0.0590694440841674,0.0318222484573721,0.0347509953856468,0.0324137285351753,-0.0196958109736442,0.0247899331152439,0.1329545607608998,0.0691810136831572,1.6857802895870628,0.8461239337921143,-20.82790946960449,-32.59844970703125,-0.05218647362277973,1015.7547762195315
3.3573984375,0.0907199892364442,0.0344721784442663,0.0444692563235759,0.02497099339962,0.0001423419453203,0.028864836320281,0.1332579788685868,0.0690524322147181,1.6860340608993936,0.8383359909057617,-20.53330421447754,-32.40447998046875,-0.052239506312889344,1015.7547823460518
3.367467529296875,0.0887193900037556,0.0450672222167253,0.0384101024150848,0.0214197188615798,0.0213649906218051,0.0345946848392486,0.1335166896566273,0.0691068279293931,1.6863499611121489,0.73382568359375,-20.61924362182617,-32.249603271484375,-0.052292540288889314,1015.7547884727205
3.377536376953125,0.0710275929033756,0.0597771539621055,0.0447065722107887,0.0170023329555988,0.039112027734518,0.0426912270486354,0.1337215244531669,0.0693592319625013,1.686733939854315,0.6919970512390137,-20.82203865051269,-32.187347412109375,-0.05234557297899893,1015.7547945992407
3.38760546875,0.0843341606568545,0.0499630314342677,0.072615738877654,0.0133167849853634,0.0476690307259559,0.0450318790972232,0.133912640220874,0.0697634486509918,1.6871585243127625,0.7857263088226318,-20.899600982666016,-32.201629638671875,-0.0523986069549989,1015.7548007259094
3.39767431640625,0.1163624530803412,0.0175742351353168,0.0876823751062154,0.013281631283462,0.0380992256104946,0.0431479588150978,0.1340905140959129,0.070150405692558,1.6876087901386962,0.904184341430664,-20.73819923400879,-31.9630126953125,-0.052451639645108517,1015.7548068524295
3.407743408203125,0.1475137434735894,-0.0002579202838242,0.1077659627139568,0.0156647786498069,0.0225507672876119,0.0430648289620876,0.1342726812799771,0.0704117868492385,1.6880475450759098,0.7940149307250977,-20.39713859558105,-32.21875,-0.052504673621108486,1015.7548129790982
3.4178125,0.1530686011217534,0.0018694471336901,0.1385346104651689,0.0088779777288436,-0.0054198810830712,0.0450731180608272,0.134414578203706,0.0704421127510393,1.688478419741022,0.7781929969787598,-20.693099975585938,-31.99081420898437,-0.05255770759710846,1015.754819105767
3.42788134765625,0.1516360110353678,0.0126658586971461,0.1127156940758228,0.0051044942811131,-0.0292777866125106,0.0444531813263893,0.1344939046392131,0.0701893226938487,1.6889270330108652,0.6703484058380127,-20.854585647583008,-32.489990234375,-0.05261074028721807,1015.7548252322871
3.437950439453125,0.1366558109812438,0.008762713778764,0.0680938775390386,0.0087104141712188,-0.0284170527011156,0.045375432819128,0.1345849904463517,0.0698368575431029,1.689387366036831,0.6139802932739258,-20.92825126647949,-32.666290283203125,-0.05266377426321804,1015.7548313589558
3.448019287109375,0.1122775218542665,0.0213208743177354,0.0434931047677993,0.0049900077283382,-0.0254705362021923,0.037609614431858,0.134676207719656,0.0695277100419047,1.689797025745246,0.659721851348877,-20.649168014526367,-31.84088134765625,-0.05271680695332766,1015.754837485476
3.45808837890625,0.0943462169095873,0.0339076764293015,0.019047230297327,0.0036981087177991,-0.0124490102753043,0.0343533679842948,0.1347241742766561,0.0692940242441415,1.690152528912929,0.5767014026641846,-20.848915100097656,-32.16748046875,-0.05276984092932763,1015.7548436121447
3.468157470703125,0.1089865905500948,0.0094997958816587,-0.0109673842161893,-0.0054835490882396,0.0018706829287111,0.0371925681829452,0.1347224335922959,0.0692038838974491,1.6905079739998825,0.8820919990539551,-20.92955207824707,-32.35546875,-0.0528228749053276,1015.7548497388134
3.478227294921875,0.1223974954608827,0.0210085934981703,-0.0390501538842916,-0.0086298063397407,0.0067077823914587,0.0385297425091266,0.1346748630746055,0.0692246929852346,1.6908944763369125,0.6406996250152588,-20.9346866607666,-32.220550537109375,-0.0528450012207031,1015.7548545290816
3.48829638671875,0.126342945151031,0.0546367223337292,-0.0735977356523275,-0.003082213923335,0.0077123772352933,0.0463964268565177,0.1346399111944836,0.069265011347131,1.691330761934623,0.6744763851165771,-20.659820556640625,-32.1982421875,-0.0528450012207031,1015.7548583621632
3.498365478515625,0.1244696255598217,0.0677329352721572,-0.10928922675848,0.0037000589072704,0.0061224699020385,0.054728128015995,0.1346787264085138,0.0693042696481585,1.6918346528798036,0.6652376651763916,-20.83937263488769,-31.95223999023437,-0.0528450012207031,1015.7548621952446
3.508434326171875,0.1248057256463915,0.0619502602174878,-0.1016957028895616,0.0161237567663192,0.0003752852790057,0.0586291812360286,0.1348227792856486,0.0693018216862847,1.6924057145374147,0.8646633625030518,-20.9502067565918,-32.247314453125,-0.0528450012207031,1015.7548660282332
3.518503662109375,0.1174858310870826,0.0606485299691557,-0.1045288804888725,0.0264403093606233,-0.0054037743248045,0.064573086798191,0.1350891909453019,0.069210441286295,1.6930189472033366,0.5019419193267822,-21.280445098876957,-32.501220703125,-0.0528450012207031,1015.7548698614078
3.528572265625,0.0866740748465061,0.0491052455611526,-0.0694371088415384,0.0319669023156166,-0.0029070605523884,0.060471024364233,0.1354257839664936,0.0691041499925678,1.693623383165067,0.2608718872070312,-20.897634506225582,-32.647979736328125,-0.0528450012207031,1015.7548736943033
3.538641357421875,0.0605939502377063,0.034142508098483,0.0018476736932992,0.0256426930427551,0.0002972548827528,0.0539010055363178,0.1357493056649995,0.0690499159025684,1.6941743590996978,0.1919443607330322,-20.84809875488281,-32.641265869140625,-0.0528450012207031,1015.7548775273849
3.54871044921875,0.0558828499373048,0.0133896429270505,0.0470393990725278,0.0184875633567571,-0.0025048905517905,0.0490300543606281,0.1360005269028192,0.0689980074036287,1.6946910701381714,0.2797293663024902,-20.877620697021484,-32.682159423828125,-0.0528450012207031,1015.7548813604664
3.558779296875,0.0702489366810768,-0.0141347622059285,0.057658408242464,0.0140115888789296,-0.0225595589727163,0.0442209169268608,0.1361862580881502,0.0688607256631618,1.6951734047523794,0.4045624732971191,-20.950613021850582,-32.2655029296875,-0.0528450012207031,1015.754885193455
3.5688486328125,0.0713368049830198,-0.0302621595337986,0.0337047012031078,0.017888044938445,-0.0318070836365222,0.0436917580664157,0.1363591276915597,0.0685339943494183,1.6955890594985763,0.4665732383728027,-20.76742172241211,-32.447174072265625,-0.0528450012207031,1015.7548890266295
3.578917236328125,0.0269955589532852,-0.0253831553205847,0.0363607686698436,0.0212779827415943,-0.0352340377867221,0.0426898784935474,0.1365686561712026,0.0681704500646819,1.6960046267020563,0.5322744846343994,-20.620119094848636,-32.584625244140625,-0.0528450012207031,1015.7548928595251
3.588986572265625,-0.0009016250148415,0.0043992578722536,-0.0055260699450969,0.0157207045704126,-0.0398409739136695,0.0379856452345848,0.1367693674117095,0.0677467379558055,1.6963979233226991,0.2866101264953613,-21.032649993896484,-32.6441650390625,-0.0528450012207031,1015.7548966926995
3.59905517578125,-0.0035321196489036,-0.012958996424824,-0.0288391409933567,0.0178890507668256,-0.02940484136343,0.0315554440021514,0.1369387699116397,0.0673558627535245,1.6967247089662578,0.3589160442352295,-21.20738983154297,-32.873748779296875,-0.0528450012207031,1015.7549005255952
3.60912451171875,0.0041354193042963,-0.0056340603642165,-0.0103472064912319,0.0139654874801635,-0.0143969664350152,0.0299248415976762,0.13710745968227,0.067106705901054,1.6970194471329498,0.2742648124694824,-21.032581329345703,-33.0936279296875,-0.0528450012207031,1015.7549043587696
3.619193603515625,0.0247212573457509,0.0484394751287996,-0.0133493109166622,0.017866751179099,-0.0039842729456722,0.0331549867987632,0.137282497378385,0.0669914447756683,1.6973142137592123,0.4476425647735595,-21.06755828857422,-32.953948974609375,-0.0528450012207031,1015.7549081918512
3.62926220703125,0.0641416327819228,0.0586745995476841,0.0116653033524751,0.0206822995096445,0.0010978290811181,0.0432879664003849,0.13750430032125,0.0669558475886186,1.6976818266328786,0.387249231338501,-20.859390258789062,-32.263214111328125,-0.0528450012207031,1015.7549120247468
3.63933154296875,0.1070673129253089,0.0217237560302019,0.0460439582943916,0.0309980530291795,-0.0091508133336901,0.0580069907009601,0.137797983819012,0.0668680286470526,1.6981872712647446,0.3745143413543701,-20.85351181030273,-32.1531982421875,-0.0528450012207031,1015.7549158579212
3.649400146484375,0.117278033555299,-0.0313147373266518,0.0577174449533224,0.0285688005387783,-0.0286987703293561,0.0552825927734375,0.138145426141313,0.0666051306406917,1.6987508185333569,0.343818187713623,-21.0926570892334,-32.12249755859375,-0.0528450012207031,1015.7549196908169
3.659469482421875,0.0602568272378295,-0.059789136660844,0.0878109699219465,0.0223348718136549,-0.0450196862220764,0.0434304624795913,0.1384490918109395,0.066176585043874,1.6992367580215229,0.1529266834259033,-21.132905960083008,-32.443695068359375,-0.0528450012207031,1015.7549235239914
3.669538330078125,-0.0138215315382927,-0.0875461815059185,0.1259235506951808,0.0081940609961748,-0.0507987812161445,0.0243915095925331,0.1386263348314613,0.065638615918186,1.6995688043848232,0.0874300003051757,-21.125377655029297,-32.434417724609375,-0.0528450012207031,1015.7549273569799
3.6796083984375,-0.0515915094189345,-0.0773893830202519,0.1138239475786686,-0.0054573025554418,-0.0528102666139602,0.0089811272919178,0.1386398337921313,0.0651046830446875,1.6997343269899046,0.1212730407714843,-21.142654418945312,-32.2958984375,-0.0528450012207031,1015.7549311904332
3.68967724609375,-0.0633013825654983,-0.0519511365115642,0.0854185218274593,-0.013324243016541,-0.0513836629688739,-0.0022187691647559,0.1385319692599923,0.0645827140297124,1.6997722887945748,0.1150333881378173,-21.039831161499023,-32.043701171875,-0.0528450012207031,1015.7549350234218
3.69974658203125,-0.0183320677652955,-0.0457050817288458,0.0429910004645586,-0.011507966555655,-0.0452365539968013,-0.0026091886684298,0.1383739111044494,0.0640946559117485,1.699753753066688,-0.2082016468048095,-21.19046974182129,-32.637664794921875,-0.0528450012207031,1015.7549388565963
3.709815185546875,0.0463209486048668,-0.0508646564491093,0.017618658798933,-0.0049708755686879,-0.0316937007009983,0.0071782399900257,0.1382740878493671,0.0637222811607734,1.6997781073462988,-0.1556756496429443,-21.13740539550781,-32.427520751953125,-0.0528450012207031,1015.7549426894919
3.719884521484375,0.0715596539534628,-0.0354423386506736,0.0309650471061468,0.0004156334325671,-0.0196916330605745,0.0164905153214931,0.1382596739883986,0.0634648967958254,1.6998939439828211,0.0558054447174072,-20.874357223510746,-32.632720947265625,-0.0528450012207031,1015.7549465226664
3.729953369140625,0.114607353041321,-0.020015198546648,0.0315489844739437,0.008086834102869,-0.0108645353466272,0.0248735882341861,0.1383381965696749,0.0633161694507771,1.7001081565045302,-0.0913543701171875,-20.900606155395508,-32.701568603515625,-0.0528450012207031,1015.754950355655
3.7400224609375,0.1022608624916523,-0.0441620900705456,0.0182487733960151,0.016409745439887,-0.011725534684956,0.0329943634569644,0.1385019722069204,0.0631711058086672,1.700395786338608,-0.131927490234375,-21.16084671020508,-32.3095703125,-0.0528450012207031,1015.7549541887365
3.750091552734375,0.0815601293662563,-0.053100306546688,0.0472533340841531,0.012706272304058,-0.0091776009649038,0.0289426203817129,0.1386909708502179,0.0630390666455456,1.700702790867387,-0.1439771652221679,-21.25389671325684,-32.68328857421875,-0.0528450012207031,1015.754958021818
3.76016015625,0.0616445187365636,-0.059787383095175,0.0938999344468116,0.0028568375855684,-0.0191743075847625,0.0179466921836137,0.1388036144909693,0.0628562348787819,1.700917627477896,-0.0840175151824951,-21.03911590576172,-32.30145263671875,-0.0528450012207031,1015.7549618547137
3.7702294921875,0.0547862503396347,-0.0622613719932734,0.1089355910152196,-0.012182299979031,-0.0366081595420837,0.0065406397916376,0.1387800005271586,0.0625446973890429,1.7010443650382328,-0.1125593185424804,-21.02178192138672,-32.578704833984375,-0.0528450012207031,1015.7549656878881
3.78029833984375,0.0596541121043264,-0.0556640195548534,0.0776584092199802,-0.0196018666028976,-0.0406146198511123,-0.0005529560148715,0.1386272916631248,0.0621492455784561,1.7010870060634786,0.0122523307800292,-21.059803009033203,-32.386749267578125,-0.0528450012207031,1015.7549695208767
3.790367431640625,0.0642809316547587,-0.0362812736928463,0.0196814365476369,-0.0209883078932762,-0.0441371798515319,-0.0042371731251478,0.1384197913198122,0.0617319158539416,1.70105707698416,-0.0032575130462646,-21.010967254638672,-32.559112548828125,-0.0528450012207031,1015.7549733539582
3.8004365234375,0.1002902565384283,-0.0250575766280293,-0.0471802688479423,-0.0121727110818028,-0.0421067923307418,-0.0012200777418911,0.1382504035489196,0.061319211232499,1.7010234697582371,-0.189924955368042,-21.110736846923828,-32.385406494140625,-0.0528450012207031,1015.7549771870397
3.81050537109375,0.1367468867981806,0.0055012277647852,-0.0913695391863584,0.0045479452237486,-0.0394329726696014,-0.0026749626267701,0.1382229810071582,0.0609542195566601,1.700997011073034,-0.1716618537902832,-21.034448623657227,-32.279815673828125,-0.0528450012207031,1015.7549810200283
3.820574462890625,0.1658433635534718,0.0525505637094378,-0.105385789579153,0.0167042091488838,-0.0326461754739284,0.0020321747288107,0.1383373215275374,0.0606087425402075,1.7009809381864949,0.0622806549072265,-21.078144073486328,-32.31268310546875,-0.0528450012207031,1015.7549848531098
3.830643310546875,0.1736015764648094,0.0732674807846546,-0.1130494560748338,0.02797557041049,-0.0216420348733663,0.0076034497469663,0.1385907036319714,0.060335422797656,1.7010026188798166,-0.1787061691284179,-21.137584686279297,-32.7178955078125,-0.0528450012207031,1015.7549886860984
3.84071240234375,0.1955071918679401,0.0683769322641193,-0.0626239216953516,0.0282147228717803,-0.0140253938734531,0.0208212509751319,0.1388883235408559,0.0601621106804262,1.7011284186718834,-0.3271872997283935,-21.324670791625977,-32.391693115234375,-0.0528450012207031,1015.75499251918
3.850781494140625,0.2046622294325381,0.0759888685725629,-0.0227115980237722,0.023154379799962,0.0013586487621068,0.0322138145565986,0.1391790547864561,0.0600691521658517,1.7013975191181872,-0.3170933723449707,-21.27514266967773,-32.55120849609375,-0.0528450012207031,1015.7549963522614
3.860850341796875,0.1982543351516127,0.0489167372517287,0.0159808284640312,0.0186584312468767,0.016769029200077,0.0433791168034076,0.1394268316250569,0.0601148098391013,1.7017700476848938,-0.3375153541564941,-21.174680709838867,-32.730987548828125,-0.0528450012207031,1015.75500018525
3.87091943359375,0.1645249013660475,0.0286971021741628,0.0503349334865808,0.0110663184896111,0.0309724621474742,0.0421055518090724,0.1396098239139813,0.0603078878973742,1.7021918714166522,-0.5207235813140869,-21.18018913269043,-32.714111328125,-0.0528450012207031,1015.7550040183315
3.8809892578125,0.1248516836799681,0.0103147655263543,0.1068938560545444,0.00186562910676,0.0327450633049011,0.0358425974845886,0.1397046712255725,0.0606039831343624,1.7025865030822251,-0.2725892066955566,-20.941768646240234,-32.5396728515625,-0.0528450012207031,1015.7550078516919
3.891058349609375,0.1042675261389464,-0.0233563256680965,0.1323252344310283,-0.0086213629692792,0.0303900446742773,0.029488518834114,0.1396889845248881,0.0609058033912933,1.7029115051436672,-0.0898058414459228,-21.0866641998291,-32.251373291015625,-0.0528450012207031,1015.7550116847734
3.90112744140625,0.1012171986576169,-0.0343869843788445,0.1371089615762233,-0.0106978304684162,0.0062492880970239,0.019864123314619,0.1396163271161596,0.0610809351188093,1.7031540330549495,-0.169081449508667,-20.97995948791504,-32.232086181640625,-0.0528450012207031,1015.7550155178549
3.9111962890625,0.1043599536627531,-0.0120667237602174,0.1238192718923091,-0.0099117727950215,-0.0228124279528856,0.0142287369817495,0.1395263653809025,0.0609874960904206,1.7033265415221153,-0.0783362388610839,-20.96669578552246,-32.448974609375,-0.0528450012207031,1015.7550193508436
3.921265380859375,0.1176725492982193,0.0033181846372783,0.1072615203231573,-0.0096265478059649,-0.0426061078906059,0.0154545903205871,0.1394156492201488,0.0606474715644089,1.7034682088531072,-0.0437219142913818,-21.05560874938965,-32.74755859375,-0.0528450012207031,1015.755023183925
3.931334228515625,0.135004463577643,-0.0050499768659472,0.0799976658225059,-0.0115284118801355,-0.0421380326151847,0.022243183106184,0.1392935563243948,0.0602169018820103,1.7036557686542892,-0.2169859409332275,-21.0837516784668,-32.457244873046875,-0.0528450012207031,1015.7550270169136
3.941403564453125,0.128621301879175,0.0135540397085249,0.071509823462367,-0.0105752665549516,-0.0248996596783399,0.02898870408535,0.1391907608134407,0.0598711742383556,1.7039082759116078,-0.1253731250762939,-20.841184616088867,-32.54052734375,-0.0528450012207031,1015.755030850088
3.951472412109375,0.1123702051063999,0.0251974234901368,0.048344636452198,-0.0049123000353574,-0.0110738780349493,0.0371097438037395,0.1391416110887006,0.0596794080789625,1.7042470305162687,-0.1049537658691406,-20.970611572265625,-32.50311279296875,-0.0528450012207031,1015.7550346830766
3.96154150390625,0.0871122836006805,0.0111718207471072,0.0437374349176883,0.0001618200913071,0.002449654508382,0.0383659563958644,0.1391457722453056,0.0596145147997036,1.7046219018977875,-0.1362128257751464,-21.116968154907227,-32.752593994140625,-0.0528450012207031,1015.7550385161582
3.9716103515625,0.0639837753390893,-0.008819558532536,0.0501344424784183,0.0016959439963102,0.001432716846466,0.0369369015097618,0.1391827721709345,0.0595926572190788,1.7050043771575494,-0.2725756168365478,-21.17693901062012,-32.324920654296875,-0.0528450012207031,1015.7550423491467
3.981679443359375,0.0527555482296273,-0.0501277204766869,0.0569435379713773,0.0034112865105271,-0.0006975457072257,0.0334196649491786,0.1392435570818492,0.0595782829892463,1.705346539159001,-0.1670763492584228,-21.153465270996094,-32.210906982421875,-0.0528450012207031,1015.7550461822283
3.99174853515625,0.0414603933637961,-0.065304100690037,0.0834399152308702,-0.0060426322743296,-0.0019391621463,0.0265956055372953,0.1392524605212672,0.0595395081004523,1.7056462584716798,-0.2799406051635742,-21.27541923522949,-32.392425537109375,-0.0528450012207031,1015.7550500153097
4.0018173828125,-0.0017521774295717,-0.0877801363922655,0.0979880805432796,-0.0212082713842391,-0.0011407467536628,0.0234754458069801,0.1391260879473974,0.0595196554238424,1.705897985433698,-0.1700565814971923,-21.226577758789062,-32.743316650390625,-0.0528450012207031,1015.7550538482984
4.011886474609375,0.0025977979408577,-0.1113223400212824,0.0803717598319053,-0.0282015614211559,-0.004804603755474,0.0216276999562978,0.1388899056102496,0.0594857289868764,1.7061358696837916,-0.2937896251678467,-21.229978561401367,-32.592987060546875,-0.0528450012207031,1015.7550576813799
4.021955322265625,0.0207506001491099,-0.1015980877339839,0.0506412229567766,-0.0207023657858371,-5.19263558089e-05,0.0197099577635526,0.1386431902656293,0.0594634402887691,1.7063603660393225,-0.1104562282562255,-21.05813407897949,-32.316009521484375,-0.0528450012207031,1015.7550615143684
4.0320244140625,0.0275546541407704,-0.086024232635647,0.0360480494588613,-0.0127464802935719,-0.0052293413318693,0.022540908306837,0.138490301175159,0.0594394758094579,1.706585331642586,-0.2235677242279052,-21.06136131286621,-32.819732666015625,-0.0528450012207031,1015.75506534745
4.04209326171875,0.0347568771371617,-0.0796197724208235,0.0425046782523393,-0.0072233499959111,-0.0142316240817308,0.0182332452386617,0.1384101956793225,0.0593287535356438,1.706803087861585,-0.2754855155944824,-21.1662540435791,-32.364501953125,-0.0528450012207031,1015.7550691804386
4.05216259765625,0.0191068149974569,-0.0817820650212466,0.0619207418620586,-0.0166038442403078,-0.0234053786844015,0.0134275825694203,0.1383108277431368,0.0591054901038669,1.7069721781170473,-0.248584508895874,-21.14676856994629,-32.29193115234375,-0.0528450012207031,1015.755073013613
4.062232177734375,0.0227730093548074,-0.1029040557660162,0.0787117176651954,-0.0203397255390882,-0.0177248567342758,0.0079302862286567,0.1381543848738215,0.0588958491622799,1.7070774940172435,-0.326378583908081,-21.073467254638672,-32.157257080078125,-0.0528450012207031,1015.7550768468805
4.072301513671875,0.0139434408849105,-0.1029949489198625,0.0794505533337593,-0.0291959680616855,-0.0196957010775804,0.0060439775697886,0.1379139474224855,0.0586933691431112,1.7071625436142988,-0.1950736045837402,-21.023983001708984,-32.31494140625,-0.0528450012207031,1015.7550806800549
4.08237060546875,-0.0041433468824252,-0.0556945608235895,0.0662333443641662,-0.0384592413902282,-0.0217503309249877,0.0008007455617189,0.1375919866526394,0.0584881495202496,1.7072062944439648,-0.3491039276123047,-20.97352600097656,-32.464752197265625,-0.0528450012207031,1015.7550845131364
4.092439453125,0.0014807035444304,-0.0494888380512595,0.040811902859807,-0.040113940834999,-0.0259854681789875,-0.0008493629284203,0.137229551689289,0.0582601779543527,1.7072155567621408,-0.3160719871520996,-20.847244262695312,-32.245269775390625,-0.0528450012207031,1015.755088346125
4.102508544921875,0.0218706902202218,-0.0599773527093231,-1.57820910215e-05,-0.0356353037059307,-0.0205507539212703,-0.0041277143172919,0.1368584503410137,0.0580371416715869,1.707199310574126,-0.0224838256835937,-20.85263061523437,-32.260955810546875,-0.0528450012207031,1015.7550921792065
4.11258154296875,0.0277769916545599,-0.0445640950001776,-0.0200157830685377,-0.0264882054179906,-0.0226228777319192,-0.0109606478363275,0.1365658451821255,0.0578424009482862,1.7071395334351385,-0.162398099899292,-20.93106842041016,-32.26239013671875,-0.0528450012207031,1015.7550960137751
4.122650634765625,0.0485566352350637,-0.0289465468905866,-0.0540408022671937,-0.0179069656878709,-0.0230380650609731,-0.0062132966704666,0.1363559209332759,0.0576422382067121,1.7070710295296876,-0.1598103046417236,-21.01548194885254,-32.130401611328125,-0.0528450012207031,1015.7550998468565
4.132719482421875,0.0600360240940004,-0.0166680800758302,-0.0817909789800643,-0.0028360793367028,-0.0153519976884126,-0.001243510749191,0.1362643391096618,0.0574453572074753,1.7070242341332071,-0.1988844871520996,-21.17332649230957,-31.883819580078125,-0.0528450012207031,1015.7551036798451
4.14278857421875,0.0717995271239429,-0.0198985864296555,-0.0786503428667783,0.006987789645791,-0.0003181872889399,0.0069853910245001,0.1363014949966951,0.0573590564390051,1.7070482792827415,-0.0685231685638427,-20.971363067626957,-32.18280029296875,-0.0528450012207031,1015.7551075129267
4.152857421875,0.0717315764542669,-0.0219290693439543,-0.0456131656616926,0.0062271319329738,0.0144834639504551,0.010612329468131,0.1364159398988735,0.0574132486852837,1.707136407571175,-0.0432648658752441,-20.999387741088867,-32.107086181640625,-0.0528450012207031,1015.7551113459152
4.162926513671875,0.0460848017614334,-0.0224867032267153,0.0207154557704925,-0.0056463051587343,0.013632851652801,0.0185269769281148,0.1364509484441324,0.0575275696518626,1.707294122349485,-0.4021766185760498,-21.12413215637207,-32.269927978515625,-0.0528450012207031,1015.7551151789968
4.17299560546875,0.0115480701809749,-0.0523367748282849,0.0478834486812353,-0.0172657370567321,0.0100214071571826,0.0235099978744983,0.1363511048088452,0.0576163016998963,1.7075061251218484,-0.1897711753845214,-21.192798614501957,-32.163848876953125,-0.0528450012207031,1015.7551190120782
4.183064453125,-0.0020327479366213,-0.0839193693108856,0.0817465553164482,-0.0195872150361537,0.0057723340578377,0.0200289785861969,0.1361807652677931,0.057672928231312,1.7077478097331056,-0.1666402816772461,-21.05847930908203,-31.856109619140625,-0.0528450012207031,1015.7551228450669
4.193133544921875,-0.0242343871442601,-0.0727934335321188,0.0797141727060079,-0.0132586676627397,-0.0059302300214767,0.0095034204423427,0.1360321714175583,0.0576465981844642,1.7079091627127982,-0.1753830909729004,-21.02699851989746,-32.137908935546875,-0.0528450012207031,1015.7551266781484
4.203202392578125,-0.0294319557873532,-0.0790310127474367,0.0849228472650051,0.000216394662857,-0.0104679903015494,-0.0051634064875543,0.1359754244997026,0.0575649250133192,1.707936199922923,-0.2629287242889404,-20.92106056213379,-32.333404541015625,-0.0528450012207031,1015.7551305111369
4.213271484375,0.0139985686056315,-0.1269495327420532,0.1258949091225862,0.004970796406269,-0.0076233115978538,-0.0102119958028197,0.1360180665006171,0.0575153041081783,1.7078589707035703,-0.267737865447998,-20.75136947631836,-32.104644775390625,-0.0528450012207031,1015.7551343442185
4.223340576171875,0.0407702922077849,-0.1777878857061267,0.2000023478627204,-0.0076304823160171,-0.0152447456493973,-0.0122059043496847,0.1360220316211522,0.0574395866706553,1.7077429790554473,-0.2969751358032226,-20.90291404724121,-32.26708984375,-0.0528450012207031,1015.7551381773
