Timestamp,Acc x (m/s^2),Acc y (m/s^2),Acc z (m/s^2),Gyro x (rad/s),Gyro y (rad/s),Gyro z (rad/s),Beccheggio/Pitch (rad/s),Rollio/Roll (rad/s),Imbardata/Yaw (rad/s),Mag x (microTesla),Mag y (microTesla),Mag z (microTesla),Altitudine (m),Pressione (milliBar)
0.025947021484375,0.0075163669794797,0.0987675404831767,-0.042602293407917,0.0048619452863931,0.0019228034652769,0.0147972423583269,0.0873921521380953,0.0735702638802248,2.15074112268317,-6.207339286804199,-17.93583869934082,-35.668792724609375,0.0029364495339262754,1015.8564927454303
0.03601611328125,-0.0107984573900699,0.1136475680984556,-0.0113321258753538,0.0004828395321965,0.0183390956372022,0.0078293494880199,0.0874754893168235,0.0736843847870968,2.1508471430116334,-6.330495834350586,-17.791053771972656,-35.44622802734375,0.002989316880181376,1015.856482061304
0.0460849609375,-0.0305181801214814,0.0612708265859633,0.0501952327549457,-0.0190112330019474,0.0191225986927747,-0.0019729482010006,0.0874291689624418,0.0739111395506555,2.1508884832201165,-6.165009498596191,-18.04193687438965,-35.474273681640625,0.0030421829445863137,1015.8564713774367
0.056154296875,-0.0227318370942026,0.0149395027175545,0.0637502953767776,-0.0358289964497089,0.0108520444482564,-0.0067585725337266,0.0871592229397722,0.0741085197845759,2.150854709430422,-6.6051788330078125,-18.67717170715332,-35.592681884765625,0.003095051572691576,1015.8564606930514
0.06622216796875,0.0135951023712754,0.0269585148785263,0.0756003076463937,-0.0515994392335414,-0.0061820661649107,-0.0066621657460927,0.0867199611076162,0.0741707102937893,2.150813876859841,-6.651684761047363,-19.095083236694336,-35.82598876953125,0.003147912509695864,1015.8564500102204
0.076290771484375,0.0410717228397727,0.0296034033641219,0.0713759679496288,-0.0711005255579948,-0.0130018629133701,-0.0001258556731045,0.0861023522572928,0.0741111171007849,2.150804327477604,-6.337495803833008,-18.772680282592773,-35.451690673828125,0.003200777292250639,1015.8564393266122
0.086360107421875,0.0179334238365292,0.0055161330729722,0.0344306773900985,-0.0849641412496566,-0.0155507735908031,0.0018731132149696,0.0853064089890225,0.0739774814508451,2.150857642711269,-6.336668968200684,-19.090206146240234,-35.658233642578125,0.0032536459203559025,1015.8564286422269
0.09642919921875,0.0111018973160535,0.0380829162873327,-0.0253384393960237,-0.0836158394813537,-0.0159053653478622,0.0035203918814659,0.0844432831642464,0.0738131713856114,2.150937440429856,-6.5982208251953125,-19.0300235748291,-35.410797119140625,0.003306513266611003,1015.8564179581007
0.106498046875,0.0192496940668672,0.0760024587064981,-0.050067806982994,-0.0657838433980941,-0.0042881234548985,0.0064317593351006,0.0836839183760377,0.0736940614352015,2.1510549686738707,-6.64070987701416,-18.77603912353516,-35.703857421875,0.00335937933101594,1015.8564072742334
0.116566162109375,0.0235663151569664,0.092556410883367,-0.0430026909023523,-0.0518309772014617,0.0100868437439203,0.0116534568369388,0.0830810346328028,0.0737080407505534,2.151203961431932,-6.600810050964356,-18.77706527709961,-35.636474609375,0.0034122415498703904,1015.8563965911434
0.126635009765625,0.009880758023262,0.0775154205527156,-0.0602495937794446,-0.0335443802177906,0.0096572749316692,0.0155078507959842,0.0826597182717746,0.073819948097442,2.1513767201335585,-6.326913833618164,-18.56332778930664,-36.01171875,0.0034651076142753283,1015.8563859072761
0.1367041015625,0.0184622700162231,0.0545039627995342,-0.0786520964324474,-0.0131097976118326,0.0008207377977669,0.0156184108927845,0.0824487262976509,0.0738440195040054,2.1515480838276764,-6.78822135925293,-18.775297164916992,-35.291168212890625,0.0035179749605304287,1015.8563752231498
0.14677294921875,0.0254047826305031,0.0648809799071401,-0.052346857830882,-0.0065187402069568,-0.0110356556251645,0.0080845933407545,0.0823621840270649,0.0737760066289001,2.1516700664888533,-6.418294906616211,-18.72232818603516,-35.513031005859375,0.0035708410249353667,1015.8563645392826
0.156842041015625,0.0035683600060641,0.0664015405379235,0.0230909527301788,-0.0066396230831742,-0.0239407774060964,0.002981481142342,0.0823034049341597,0.0736056715714553,2.15171524638939,-6.584065437316895,-19.049545288085938,-35.75152587890625,0.003623708371190466,1015.8563538551564
0.166909912109375,-0.0005064151521772,0.0298137581791728,0.0522580105036497,-0.0141630535945296,-0.0325704850256443,0.0023031746968626,0.0822037495550554,0.073316935283529,2.151737918123161,-6.607666969299316,-19.14128875732422,-35.56317138671875,0.003676569308194754,1015.8563431723254
0.17697900390625,-0.0084150693848729,0.0228608703013509,0.099966102617979,-0.0273623652756214,-0.0302269216626882,-0.0040769213810563,0.0819669788443395,0.0729908577024448,2.1517603737388145,-6.672697067260742,-19.15985679626465,-35.599029541015625,0.0037294366544498546,1015.8563324881991
0.187048095703125,-0.0320958777669817,0.0463861227955669,0.1044680902123451,-0.0312441885471344,-0.0236451849341392,-0.0087473066523671,0.081633450961228,0.0727164532537935,2.151712392734048,-6.551185607910156,-18.915809631347656,-35.672576904296875,0.0037823040007049545,1015.8563218040728
0.197116943359375,-0.0357622913200408,0.034666166646406,0.1044669211685657,-0.0388820506632328,-0.0124651817604899,-0.0079071167856454,0.0812304696070562,0.0725375686937274,2.1516438907724647,-6.712512016296387,-18.97161293029785,-35.7225341796875,0.003835170065109893,1015.8563111202056
0.20718603515625,-0.0421572530541569,0.0158766374371945,0.0788239458680152,-0.0436152890324592,-0.0007629860192537,-0.0066133537329733,0.0807931388939508,0.0724695402997064,2.1516059532858294,-6.530107498168945,-18.94414710998535,-35.841400146484375,0.0038880374113649933,1015.8563004360793
0.2172548828125,-0.0135773475188761,0.0265566560793668,0.0423830976992845,-0.0419834330677986,-0.0056598260998725,-0.0060816728509962,0.0803395902305608,0.0724516239567596,2.151571971473349,-6.597080230712891,-18.68463897705078,-35.7642822265625,0.00394090347576993,1015.8562897522121
0.227322998046875,-0.0078239716239273,0.0234890852022916,-0.0013607669591903,-0.0320093631744384,-0.0223988592624664,-0.0031881486065685,0.0799492319135001,0.0723196699258958,2.1515621827727207,-6.6512451171875,-18.87743186950684,-35.615142822265625,0.003993765694624381,1015.856279069122
0.23739208984375,-0.0134044751700013,0.018014453183487,0.0077215341627597,-0.0240358188748359,-0.0239127539098262,-0.0007747919298708,0.0796647288494892,0.0720616305509215,2.151567910809353,-6.692686080932617,-18.755949020385746,-35.656402587890625,0.004046633040879481,1015.8562683849958
0.2474609375,-0.0330216143097728,0.0146599551238119,0.0738759680718183,-0.0257285237312316,-0.00747359264642,0.000815381295979,0.0794134248796777,0.0718928657692202,2.151591320882809,-6.399564743041992,-18.5956974029541,-36.2041015625,0.004099499105284419,1015.8562577011286
0.2575302734375,-0.0406076124593615,0.0339822029702365,0.1308060620397329,-0.0327215194702148,0.0106726121157407,-0.0041813165880739,0.0791245357340861,0.0719018944487232,2.15159096473307,-6.464466094970703,-18.56037139892578,-35.947845458984375,0.004152367733389682,1015.8562470167432
0.267598876953125,-0.0157358407270163,0.0736700702361762,0.1481482419848442,-0.038646250963211,0.0291179325431585,-0.0007279957644641,0.0787606414186257,0.0721113835052517,2.1516150075166216,-6.461923599243164,-18.733760833740234,-35.913818359375,0.004205232515944457,1015.856236333135
0.2776669921875,0.0324264979608356,0.0756519647683948,0.0687321754425764,-0.0372346937656402,0.0392439514398574,0.0059455418959259,0.0783817469688931,0.0724643370624732,2.151656564522082,-6.635354042053223,-18.877281188964844,-35.8670654296875,0.004258094734798907,1015.856225650045
0.287736083984375,0.0538361465405672,0.0761733582939952,0.026089550024271,-0.0330732390284538,0.0376676246523857,0.0087381321936845,0.0780371310144896,0.0728295009240242,2.1517411937153508,-6.646322250366211,-18.649126052856445,-35.82232666015625,0.004310962081054008,1015.8562149659188
0.297804931640625,0.0742386639043688,0.0390143519185483,0.0148112001627683,-0.0272071212530136,0.0405608639121055,0.0131829120218753,0.0777566388075097,0.0732062403769303,2.151880519406536,-6.630701065063477,-18.643999099731445,-35.9525146484375,0.004363828145458945,1015.8562042820515
0.3078740234375,0.0681215692635625,0.0202566060870885,0.0269873756468296,-0.0238158516585826,0.0399645790457725,0.0183060336858034,0.0775216375577699,0.0735867037204394,2.152054369759279,-6.65895938873291,-18.60591697692871,-35.738372802734375,0.004416695491714046,1015.8561935979252
0.317943115234375,0.0157117291990667,0.0307954626929014,0.0365823024660348,-0.0291015729308128,0.0455190390348434,0.0168441869318485,0.0772833309854064,0.0740187979051546,2.1522691941564958,-6.30366325378418,-18.642290115356445,-36.022857666015625,0.004469562837969146,1015.856182913799
0.3280107421875,-0.0158128514859825,0.0518302135456353,0.0032680618852376,-0.0290091633796691,0.0403272062540054,0.0108669884502887,0.0770165964890233,0.0744265980556889,2.1524296413157677,-6.283648490905762,-18.69855499267578,-35.920867919921875,0.00452242249312327,1015.856172231227
0.338080078125,0.0202932117704302,0.0677514207769185,-0.0172258600890636,-0.0336639732122421,0.0266170725226402,0.0065815821290016,0.0767166183472679,0.0747273494879727,2.1525424690985457,-6.327052116394043,-18.713150024414062,-35.964630126953125,0.004575291121228535,1015.8561615468417
0.348149169921875,0.0658344812396913,0.0666547846466302,-0.0432522817492485,-0.0399530306458473,0.0103054763749241,0.0051133809611201,0.0763289996566626,0.0749040109012371,2.152640676309835,-6.468923568725586,-18.690547943115234,-36.30615234375,0.0046281584674836345,1015.8561508627154
0.358218017578125,0.092810093383491,0.0586778874833136,-0.097276717403531,-0.0480016991496086,0.0022813277319073,0.0040768031030893,0.0758804993292149,0.0749586367129297,2.1527261237888253,-6.373899459838867,-18.583993911743164,-35.849700927734375,0.004681024531888572,1015.8561401788481
0.368287109375,0.0998671722881495,0.0094885438352823,-0.1139390983909368,-0.0579294264316558,-0.0032844122033566,0.0071969628334045,0.0753491454312572,0.07495313945022,2.1528251146850943,-6.576145172119141,-18.65376663208008,-35.68658447265625,0.004733891878143673,1015.8561294947219
0.378355224609375,0.0886854146689176,-0.0014442074589431,-0.1115501574277877,-0.0619368180632591,-0.00143200205639,0.0076072025112807,0.0747514270313591,0.0749455576000566,2.15294657394304,-6.474889755249023,-18.508718490600582,-36.10400390625,0.004786754096998123,1015.8561188116319
0.388424072265625,0.060538055332005,0.0468808475099504,-0.1398445240199566,-0.060175135731697,-0.0015332018956542,0.0076111969538033,0.0741385775556841,0.0749590577389623,2.1530586769988123,-6.577238082885742,-18.588525772094727,-35.92608642578125,0.00483962016140306,1015.8561081277646
0.398492919921875,0.0076872665669769,0.090042382235825,-0.2186702234536409,-0.05465604737401,-0.0116893760859966,0.003456971142441,0.073563899047082,0.0748667511311868,2.153168466622016,-6.490199089050293,-18.58702850341797,-36.1734619140625,0.004892486225807999,1015.8560974438974
0.40856201171875,0.0018475275628268,0.1140213698469102,-0.2494716044306754,-0.0439389534294605,-0.0182793699204921,0.0011581303551793,0.0730627777478749,0.0747109589885763,2.153227798209174,-6.431947708129883,-18.391447067260746,-36.31512451171875,0.004945353572063099,1015.8560867597712
0.418630859375,0.014125921312347,0.0787131059046834,-0.3178185799479484,-0.0347166322171688,-0.0350887477397918,-0.0021829605102539,0.0726503267451815,0.0744470569005557,2.1532357002891502,-6.407400131225586,-18.19856834411621,-36.507232666015625,0.004998219636468036,1015.856076075904
0.42869921875,0.0317100202545523,0.0359742535702884,-0.3134311586439609,-0.0267713591456413,-0.0381335392594337,-0.007533517666161,0.072319636122646,0.0740845895810809,2.153209389276605,-6.577668190002441,-18.39356231689453,-36.4091796875,0.005051083137172649,1015.8560653925548
0.438767822265625,0.031304435128346,0.0375500515196472,-0.2668108617663383,-0.0124115077778697,-0.0341604985296726,-0.0100356303155422,0.0721135734746448,0.0737568923050637,2.153128929948134,-6.536048889160156,-18.394512176513672,-36.286651611328125,0.005103947919727424,1015.8560547089467
0.4488369140625,0.0200247700925916,0.0313609876211732,-0.2448930444687604,0.0153687251731753,-0.0355115197598934,-0.0143744517117738,0.0721233592217112,0.0734406271795476,2.152987123903237,-6.479350090026856,-18.583934783935547,-35.971099853515625,0.0051568152659825246,1015.8560440248203
0.45890625,0.0169052498325705,0.0148633687414228,-0.1776443855822086,0.0377222895622253,-0.0374200791120529,-0.0166499707847833,0.0723796008883542,0.0731021662849738,2.1527972892210405,-6.312572479248047,-18.346586227416992,-35.9935302734375,0.005209683894087787,1015.856033340435
0.468974853515625,0.0298938376780599,-0.0064212652191519,-0.0859592045754194,0.0451397225260734,-0.0327651426196098,-0.0153199881315231,0.0727889873952257,0.07275458638269,2.152614239132248,-6.5253753662109375,-18.588743209838867,-36.064971923828125,0.005262548676642563,1015.8560226568269
0.479043212890625,0.0209816324260085,-0.0376841992933303,-0.016484686332941,0.0425422899425029,-0.0164347644895315,-0.0127986595034599,0.073203236298158,0.0724892420738909,2.152453700796373,-6.500796318054199,-18.546220779418945,-36.39077758789063,0.005345535444073082,1015.8560124100917
0.489112060546875,-0.0252688082259148,-0.0316035642053931,0.0425315662592649,0.0456725694239139,0.0010912315919995,-0.0110289882868528,0.0736107505051052,0.0724159831930076,2.1523077947934497,-6.645271301269531,-18.461156845092773,-36.225128173828125,0.005451222246841535,1015.8560024918211
0.49918115234375,-0.017368775691092,-0.0090543171364814,0.0700222152531147,0.0352093018591403,0.012247409671545,-0.0017792212311178,0.0740038678311801,0.0724979557759966,2.1522357973104875,-6.684164047241211,-18.6776123046875,-35.969207763671875,0.005556911612211287,1015.85599257331
0.50925,-0.003156929660961,0.0075198741108179,0.0590466477304697,0.0301594175398349,0.0245110001415014,0.0006399941630661,0.0743062423832141,0.0726840691745547,2.152198733837173,-6.547365188598633,-18.50502586364746,-35.77984619140625,0.005662598414979739,1015.8559826550394
0.51931884765625,-0.0481415150955319,-0.0009100275170058,0.0725730687797069,0.0280372165143489,0.030200807377696,0.0023774392902851,0.0745765340300113,0.0729559114280659,2.152191948429996,-6.527621269226074,-18.524370193481445,-36.056396484375,0.0057682852177481925,1015.8559727367688
0.529386962890625,-0.0732267834480851,-0.0143448247600346,0.1159971999645233,0.0273756869137287,0.0325395911931991,0.0014549205079674,0.0748399881047458,0.0732740259230721,2.152181916318438,-6.506980895996094,-18.620729446411133,-35.749237060546875,0.005873964332712749,1015.8559628192196
0.5394560546875,-0.0551223869588226,-0.010961027540639,0.1444365279853343,0.0294508375227451,0.0321653485298156,0.0004066196270287,0.0751248091041869,0.073597987698995,2.152170718239723,-6.456602096557617,-18.6053524017334,-35.6650390625,0.0059796536980825,1015.8559529007085
0.549525146484375,-0.034948636849597,-0.0241026870559901,0.1335439625710248,0.0254939123988151,0.0250642970204353,0.0014878627844154,0.0754029478785112,0.0738938731485714,2.152146565016265,-6.521601676940918,-18.458118438720703,-35.841278076171875,0.006085343063452252,1015.8559429821975
0.559593994140625,-0.0285984641052782,-0.0234676770880818,0.1145610296815633,0.0138013074174523,0.0111605450510978,-0.0040334360674023,0.0756055969312867,0.0740724302705207,2.1521226039425114,-6.501720428466797,-18.80734634399414,-35.991973876953125,0.006191029866220705,1015.8559330639268
0.5696630859375,-0.0102045831501483,-0.0206884946983307,0.0889087020307779,-0.0031760772690176,-0.0039728675037622,-0.0102734882384538,0.0756602810909322,0.0741046219321152,2.152049918422021,-6.601052284240723,-18.88949203491211,-35.843048095703125,0.006296719231590456,1015.8559231454158
0.57973095703125,-0.0025086218200623,-0.0082656509768217,0.0583954903453588,-0.0188909769058227,-0.0169639345258474,-0.0168304182589054,0.0755381566946031,0.0740052527244678,2.151928553500415,-6.807744979858398,-18.674007415771484,-36.107208251953125,0.0064023957839537135,1015.855913228107
0.589800048828125,0.0164772336788475,0.0354953109469264,0.007571896559,-0.0285047218203544,-0.027988888323307,-0.0165883377194404,0.0752695461209376,0.0737907898006639,2.1517884039001665,-6.833026885986328,-18.91731071472168,-36.46795654296875,0.006508085149323465,1015.855903309596
0.599869140625,0.0146026719786226,0.0877282600745558,-0.0296855286896228,-0.0238285697996616,-0.0365272238850593,-0.0172066092491149,0.0749797649053388,0.0734597105527154,2.15163506235565,-6.826467514038086,-18.708637237548828,-35.663787841796875,0.006613774514693216,1015.8558933910849
0.60993798828125,-0.0062535074368119,0.0981047657255083,-0.0508212556988,-0.0070639718323946,-0.0408916100859642,-0.0156843457370996,0.074801424398978,0.0730656187958301,2.1514818499092923,-6.971257209777832,-18.70618438720703,-35.929931640625,0.006719461317461669,1015.8558834728143
0.620007080078125,-0.0261431799076497,0.0822515091639012,-0.0445727166980505,0.0041221315041184,-0.0255044680088758,-0.0130789000540971,0.074786971676692,0.0727114244006397,2.1513305905975346,-6.704460144042969,-18.59774398803711,-35.7252197265625,0.006825150682831421,1015.8558735543032
0.630075927734375,-0.0289048266407102,0.057790802450478,0.007415244692564,0.0083368504419922,-0.0072535593062639,-0.0101691298186779,0.0748563402990359,0.0725500285890759,2.151202754683202,-6.687047958374023,-18.77000617980957,-35.743621826171875,0.006930837485599874,1015.8558636360326
0.64014404296875,-0.054056145966798,0.0339609409864991,0.0476133995682001,0.0032595340162515,0.0066241724416613,-0.0133878272026777,0.0749290199626698,0.0725516816154457,2.1510772160565947,-6.773077011108398,-18.70207977294922,-35.709381103515625,0.00703651660056443,1015.8558537184834
0.650213134765625,-0.0670667995136231,0.0154249481469392,0.07877776863873,-0.0003575710579752,0.0148765109479427,-0.0117217525839805,0.0749462678231447,0.0726890529447769,2.1509511092671065,-6.861082077026367,-18.971628189086918,-35.759735107421875,0.007142205965934182,1015.8558437999724
0.660281982421875,-0.071025327881053,0.0225979815814644,0.0565741201370954,-0.0114211542531847,0.0139424484223127,-0.0144104436039924,0.0748840818231814,0.0728337623935947,2.150822700675305,-6.732071876525879,-18.778709411621094,-36.05126953125,0.007247892768702633,1015.8558338817018
0.67035107421875,-0.0574410391647368,0.0376715590074658,0.0417968222439289,-0.0209795050323009,0.0116249658167362,-0.0191175807267427,0.0746963966878595,0.0729741731998612,2.150670181834069,-6.656689643859863,-18.84328842163086,-35.786773681640625,0.007353582134072386,1015.8558239631907
0.680420166015625,-0.0497194319367408,0.0448930346935987,0.0410176545649766,-0.0312520042061805,0.0129999378696084,-0.0208163727074861,0.0743943427933565,0.0731166984048681,2.150487026995496,-6.6508989334106445,-18.98163414001465,-35.734405517578125,0.007459271499442139,1015.8558140446795
0.69048779296875,-0.0183937348246574,0.0495369149766862,0.0045282910794019,-0.0325803905725479,0.0090448772534728,-0.0225809831172227,0.074027643999165,0.0732475042628386,2.1502885727379493,-6.481046676635742,-18.854530334472656,-36.0333251953125,0.007564945489204096,1015.8558041276113
0.70055712890625,0.0375431833874434,0.0491828408420085,-0.0335427886396646,-0.0278499983251094,-0.0025882897898554,-0.0215415898710489,0.0736701225170267,0.0732790692199494,2.150091114741937,-6.612262725830078,-18.82975196838379,-36.0435791015625,0.007670637417175146,1015.8557942088598
0.710626220703125,0.0492553215563297,0.0552499588612467,-0.0433510659486055,-0.0145001048222184,-0.0053214919753372,-0.0176507104188203,0.0734183770633453,0.0732275441238307,2.149921682453856,-6.452923774719238,-18.772180557250977,-35.957977294921875,0.007776326782544898,1015.8557842903487
0.720695068359375,0.0186107385762035,0.0508138030447065,-0.0251034615963697,-0.0106073720380663,-0.0033498704433441,-0.0210626777261495,0.073270793770678,0.073177537607699,2.149734925316485,-6.406482696533203,-18.70985984802246,-35.64666748046875,0.00788201358531335,1015.855774372078
0.73076416015625,0.004488470525667,0.0589997398488223,-0.0144032038837671,-0.0055907750502228,0.002786052878946,-0.0202256459742784,0.0731744772004795,0.0731674535020783,2.14954277084687,-6.550968170166016,-18.63031578063965,-36.05831909179688,0.007987702950683103,1015.855764453567
0.74083203125,0.0168482589483261,0.0469511362671852,-0.0097077395439147,-0.0027253050357103,-0.0043541202321648,-0.0231068059802055,0.0731053393174254,0.0731578984258265,2.149335119196504,-6.3629961013793945,-18.66189765930176,-36.127838134765625,0.00809337950304636,1015.8557545362584
0.750901123046875,0.0488845154825597,0.0283297301664948,-0.0012128829210996,-0.0069480147212743,-0.0131558682769536,-0.0241837874054908,0.0730220624933817,0.0730793422277867,2.149105002175086,-6.550915718078613,-18.646411895751957,-36.0318603515625,0.00819906886841611,1015.8557446177473
0.760969970703125,0.0496687246628105,0.0141059014376252,0.0099222590774297,-0.0120513197034597,-0.0204517897218465,-0.0224386192858219,0.0728835275044881,0.0729215067205111,2.1488888253982315,-6.80684757232666,-18.874340057373047,-36.24749755859375,0.008304755671184563,1015.8557346994767
0.7710390625,0.0317097279936075,-0.0183515031181275,0.0263005624264478,-0.0125373471528291,-0.0068555530160665,-0.0244959108531475,0.0727166630316345,0.0727828122059964,2.148657396007494,-6.635537147521973,-18.905309677124023,-36.2728271484375,0.008410445036554316,1015.8557247809655
0.78110791015625,0.0308218392431735,-0.0174732589788734,0.0585620790839195,-0.017471469938755,0.0115832295268774,-0.026479622349143,0.0725310713975383,0.0728421657424062,2.148422144324001,-6.867532730102539,-18.82834243774414,-36.449310302734375,0.008516131839322769,1015.855714862695
0.791176025390625,0.0334369901776313,-0.0225420136105269,0.0621019436478614,-0.0160288326442241,0.0310195107012987,-0.0213575661182403,0.0723341176076759,0.0731099242603258,2.148195503449819,-6.788858413696289,-18.78559875488281,-36.000457763671875,0.008621810954287325,1015.8557049451458
0.801244873046875,0.0168513276882469,-0.026891514056921,0.0057511108726263,-0.0146149061620235,0.0237858034670352,-0.0192599538713693,0.0721495099165345,0.0734132701502579,2.1480203383785006,-6.771084785461426,-18.522321701049805,-36.059112548828125,0.008727497757055776,1015.8556950268752
0.81131396484375,0.0248930337160825,-0.0154292589958757,-0.0240823018550872,-0.0098981820046901,0.0207055918872356,-0.018714539706707,0.0719904040218942,0.0736464963856296,2.147844012224013,-6.700616836547852,-18.82638168334961,-35.964935302734375,0.008833187122425527,1015.8556851083641
0.82138330078125,0.0170005999658256,0.0215136204108595,-0.0206710321068763,-0.0049874959513545,0.0027580498717725,-0.0213803928345441,0.071881512415942,0.0737953740771328,2.14764460513358,-6.503034591674805,-18.733068466186523,-35.529998779296875,0.00893887905039658,1015.8556751896125
0.831451904296875,0.0090866850361227,0.048174832843244,-0.019271102181077,-0.0077217640355229,-0.0101233934983611,-0.021961759775877,0.0718076568622156,0.0737932582031249,2.1474209612836166,-6.472082138061523,-18.87272834777832,-35.658447265625,0.009044563290563733,1015.8556652715823
0.84152001953125,0.0352297918785363,0.0295380099777132,0.0121253220796585,-0.0151894595474004,-0.0088697066530585,-0.0220900848507881,0.0716922111906004,0.0737357450023467,2.147203875105884,-6.509382247924805,-18.56210708618164,-36.015899658203125,0.00915024240552829,1015.8556553540333
0.851589111328125,0.0146784406285732,0.0034890842247754,0.051095396465063,-0.0255030859261751,-0.0098289772868156,-0.0282941870391368,0.0714615188392773,0.0736630530718484,2.1469595301418485,-6.306317329406738,-18.589017868041992,-35.6761474609375,0.009255931770898042,1015.8556454355221
0.861657958984375,0.0146706957135349,-0.0299674874361604,0.0431739558160305,-0.033232107758522,-0.0208471696823835,-0.0268896780908107,0.0711466244584004,0.0735394624860991,2.14670815143543,-6.688907623291016,-18.72970962524414,-35.85504150390625,0.009361618573666495,1015.8556355172515
0.87172705078125,0.0488924795933067,-0.054287981961295,0.0417798711091279,-0.0371157936751842,-0.0214991122484207,-0.0231593884527683,0.0707866921641736,0.0733274882927514,2.14647323254895,-6.519100189208984,-18.761455535888672,-36.23931884765625,0.009467307939036246,1015.8556255987404
0.8817958984375,0.0394637031212449,-0.048838849709928,0.077281977123022,-0.0409114174544811,-0.0009583090431988,-0.0160140451043844,0.0703953252419291,0.0732335866615297,2.146303960467023,-6.498562812805176,-18.762664794921875,-35.9990234375,0.009572994741804697,1015.8556156804698
0.89186376953125,0.0072844579197466,-0.04476246711649,0.1030412722796201,-0.0421164967119693,0.0306672621518373,-0.0117665696889162,0.0699707304297288,0.0734008466724866,2.1461922940373936,-6.520968437194824,-18.96650505065918,-35.94744873046875,0.009678671294167955,1015.8556057631612
0.90193310546875,-0.0034357466023415,-0.0252205851700156,0.0669920537769794,-0.0476506613194942,0.0533278472721576,-0.0081497691571712,0.0695056507158827,0.0738224004094414,2.1461232704758064,-6.525937080383301,-18.57791328430176,-35.922088623046875,0.009784363222139006,1015.8555958444095
0.912001953125,0.0105998660780489,0.0051671004395931,-0.0116910223156213,-0.0365114547312259,0.0569771751761436,-0.0122587606310844,0.0690632309478964,0.0744060570932981,2.1460514796432464,-6.684072494506836,-18.589574813842773,-35.938385009765625,0.009890050024907459,1015.8555859261389
0.922071044921875,0.062122255783528,0.039312311951816,-0.0760574037641286,-0.0213936250656843,0.0411611944437027,-0.0180970188230276,0.0687601754298223,0.0749211517880167,2.1459143321913654,-6.681539535522461,-18.718318939208984,-36.2738037109375,0.00999573939027721,1015.8555760076279
0.932140380859375,0.096354487992078,0.0261062819633632,-0.1069821188598871,-0.0120081137865781,0.0126232933253049,-0.0169199015945196,0.0686033538891886,0.075199990008798,2.145754703299976,-6.621861457824707,-18.573286056518555,-36.15283203125,0.010101431318248262,1015.8555660888763
0.9422080078125,0.0808309017762541,-0.0022826310444623,-0.0760737703770399,-0.0131581472232937,-0.0149282291531562,-0.0217239391058683,0.0684853049432208,0.0751954050320564,2.1455778688413614,-6.438800811767578,-18.491193771362305,-36.200531005859375,0.010207105308010219,1015.8555561718081
0.952277099609375,0.0448888699751347,-0.0301696589447557,-0.0301601604640483,-0.016801618039608,-0.0365483053028583,-0.0310404766350984,0.0683420860108343,0.0749522358580881,2.145323088070942,-6.408674240112305,-18.278676986694336,-35.86541748046875,0.01031279467337997,1015.855546253297
0.96234619140625,0.025243235393241,-0.0306254398882389,0.030285832670331,-0.0325371623039245,-0.0450076535344123,-0.0371642261743545,0.0680966835834167,0.074571974567742,2.1449948286271474,-6.398756980895996,-18.513994216918945,-36.21456909179688,0.010418484038749723,1015.8555363347859
0.9724150390625,0.0194356450930237,-0.0404079251687973,0.0924772081673145,-0.041028119623661,-0.0374320223927497,-0.0398809164762496,0.0677239026187988,0.0741684394140802,2.1446414005926635,-6.516905784606934,-18.57862091064453,-36.2689208984375,0.010524170841518176,1015.8555264165153
0.982484375,0.0206882755026221,-0.0538871460754424,0.0945148514747619,-0.0490434095263481,-0.0301230493932962,-0.0364131368696689,0.0672485882001494,0.0738536555012886,2.144283507475815,-6.48330020904541,-18.325883865356445,-35.713836669921875,0.010629862769489226,1015.8555164977637
0.99255224609375,0.0470480938356369,-0.0635519963257014,0.0795955147624015,-0.0524304136633873,-0.0141653884202241,-0.0309496633708477,0.0667196254293726,0.0736492612017289,2.143984425881992,-6.439852714538574,-18.302244186401367,-35.697601318359375,0.010735539321852484,1015.8555065804551
1.00262109375,0.0402058997906744,-0.0527037084445357,0.0854687907099723,-0.0476006418466568,0.0086737032979726,-0.0241272896528244,0.066191981896173,0.0736577892383508,2.143749805850612,-6.201733589172363,-18.350664138793945,-35.66778564453125,0.010841226124620934,1015.8554966621845
1.012690185546875,-0.00213766961582,-0.0180127726830542,0.1007043537646532,-0.0394260734319686,0.0288932211697101,-0.0170134548097848,0.0657306700468355,0.0739004784017278,2.143578968018561,-6.402877807617188,-18.366605758666992,-35.66229248046875,0.010946915489990688,1015.8554867436734
1.022759033203125,-0.0374428648181259,-0.0150857062552124,0.0623959581583738,-0.0317543745040893,0.0257395431399345,-0.0122112426906824,0.0653722427228501,0.0742197840026858,2.143464869755137,-6.688935279846191,-18.481842041015625,-36.124755859375,0.011052602292759138,1015.8554768254028
1.032828125,-0.0294901522479951,0.0066068509191274,0.0158569098234176,-0.0293253064155578,0.0210148300975561,-0.0158581752330064,0.0650812135467882,0.0744768002615017,2.143354953750866,-6.555185317993164,-18.50959587097168,-36.0147705078125,0.011158291658128892,1015.8554669068917
1.042896240234375,-0.0115874158106744,0.0357664560385048,0.0098053546994924,-0.0283363126218318,-0.0008999435231089,-0.0161730386316776,0.0648039630891388,0.0746036319881806,2.14320274331365,-6.736125946044922,-18.709453582763672,-36.34710693359375,0.011263970773093449,1015.8554569893425
1.05296484375,-0.0082961191803216,0.0157698160618543,0.0143915134459733,-0.0331363938748836,-0.0148349348455667,-0.0237404108047485,0.0645037490479252,0.0745255879105158,2.1430325300017654,-6.588810920715332,-18.49166679382324,-36.13885498046875,0.011369655013260604,1015.8554470713124
1.0630341796875,-0.0136851187422871,0.0036727702286094,0.0800660548835992,-0.0466500893235206,0.0017035477794706,-0.027576046064496,0.0641086106720978,0.0744779034546824,2.1428063907981536,-6.287006378173828,-18.29506492614746,-35.9925537109375,0.011475346941231652,1015.8554371525609
1.073103271484375,0.043396658656001,-0.0341149625044316,0.0762415281593799,-0.0564467906951904,0.0194596424698829,-0.0252889245748519,0.0635959562759772,0.0746216162260933,2.1425697584635475,-6.503286361694336,-18.113401412963867,-36.131439208984375,0.011581036306601403,1015.8554272340498
1.083172119140625,0.0796706988904625,-0.0348165349025279,-0.011846505138278,-0.0509113073348999,0.015218012034893,-0.0208693705499172,0.0630503044691867,0.0748120203516972,2.142371559358431,-6.328390121459961,-17.909202575683594,-35.863983154296875,0.011686723109369856,1015.8554173157792
1.093240234375,0.0971953227303922,-0.0104960403773933,-0.1018921022444963,-0.0434355437755584,0.0159897953271865,-0.0170304235070943,0.0625691529930393,0.0749613276305748,2.1422194996190176,-6.344949722290039,-18.06474494934082,-35.61456298828125,0.011792402224334413,1015.85540739823
1.10330908203125,0.0923491248082369,0.0005471855539828,-0.1430950502485036,-0.0346167795360088,0.0225076861679554,-0.011902317404747,0.0621838775035911,0.0751494236542496,2.142111697223178,-6.1727142333984375,-17.931224822998047,-35.95550537109375,0.011898089027102866,1015.8553974799594
1.113378173828125,0.0815769709032028,-0.0270208395250141,-0.171679339697957,-0.0251279361546039,0.0292710475623607,-0.010299626737833,0.0618745671658332,0.075408431654658,2.1420153159592736,-6.352995872497559,-18.180160522460938,-35.983734130859375,0.012003778392472617,1015.8553875614483
1.123447021484375,0.0740809160593897,-0.0058079190937802,-0.1867290247917175,-0.0193878691643476,0.0317805632948875,-0.0080705974251031,0.0616416112894218,0.0757154214906,2.141938982266,-6.243229866027832,-18.10884094238281,-35.886016845703125,0.01210946519524107,1015.8553776431777
1.13351611328125,0.0701711222045123,0.0284030145984143,-0.2027326496094465,-0.0096417646855115,0.0282145868986845,-0.0057312762364745,0.0614982914852336,0.076023358548068,2.1418610817561823,-6.275935173034668,-18.224773406982425,-35.800262451171875,0.01221515456061082,1015.8553677246666
1.143583984375,0.0769793409146368,0.0455815284144133,-0.1774438945740461,-0.0025602728128433,0.0243845283985137,-0.0078633651137351,0.0614340941218601,0.0762760664800535,2.141792956625591,-6.463893890380859,-18.056610107421875,-35.864959716796875,0.012320831112974079,1015.8553578073579
1.153653076171875,0.0754592917405068,0.0380138696391135,-0.1283931556791067,-0.0022649280726909,0.0251938626170158,-0.0093190493062138,0.0614253309327566,0.076523773313296,2.1417206189389093,-6.347023010253906,-18.206186294555664,-35.635772705078125,0.01242652047834383,1015.8553478888468
1.16372216796875,0.0523881396893411,0.0287423660879954,-0.1046376015603542,-0.0001845583319664,0.0163087863475084,-0.0089120045304298,0.0614259498555917,0.0767718551740371,2.14163762383924,-6.6148786544799805,-18.213912963867188,-36.02655029296875,0.01253220984371358,1015.8553379703358
1.173791015625,0.0497021885409951,0.0181736258005723,-0.1074304471492767,0.0107687572017312,-0.0050273956730961,-0.0114779602736234,0.0614774831342819,0.0768633277450585,2.1415396951625816,-6.301433563232422,-17.98931121826172,-36.009033203125,0.012637896646482034,1015.8553280520651
1.1838603515625,0.0772302469357848,-0.0081875807719305,-0.1265600950330495,0.0225212108343839,-0.030964408069849,-0.0034378799609839,0.0616278037121853,0.0767112403695269,2.1414475485807665,-6.237854957580566,-17.802440643310547,-35.8060302734375,0.012743588574453084,1015.8553181333135
1.19392822265625,0.0983998031493276,-0.0459943835316225,-0.107841950559616,0.027282677590847,-0.054155483841896,-0.001428524730727,0.0618776781772117,0.0762912080279992,2.141403200875029,-6.288366317749023,-17.718734741210938,-35.717193603515625,0.012849265126816342,1015.8553082160049
1.2039970703125,0.0735189713276922,-0.0447851904049515,-0.0426490551590919,0.0302603691816329,-0.0615532957017421,-0.0008504260331392,0.0621541011549962,0.0757294137024266,2.1413766373012515,-6.548582077026367,-18.08286476135254,-36.015472412109375,0.012954951929584796,1015.8552982977343
1.214066162109375,0.049829687378183,-0.0098688118571415,0.0211287127465009,0.0235153809189796,-0.0754006654024124,0.0028580259531736,0.0624191957540685,0.0750608285815743,2.1413617429907936,-6.082037925720215,-17.960844039916992,-35.829132080078125,0.013060641294954545,1015.8552883792232
1.224135009765625,0.0271969267442822,-0.0065108431987464,0.0447609327465295,0.014457756653428,-0.0778029784560203,0.0044763134792447,0.0625941070939857,0.0743142464723292,2.141374854519264,-6.159485816955566,-17.948843002319336,-36.2291259765625,0.013166328097722998,1015.8552784609526
1.234204345703125,0.0128087012339383,-0.0139143974535167,0.0458235935419797,-0.0003877682611346,-0.0619816742837429,0.0032278234139084,0.0626479749739316,0.0736269742459302,2.141410379609987,-6.169389724731445,-18.308351516723636,-36.0150146484375,0.01327202002569405,1015.855268542201
1.244272216796875,-0.0106795071855187,-0.0087940587650984,0.0152367320984601,-0.0077040195465087,-0.0401040874421596,0.0032316674478352,0.0625901595489033,0.0731356447251529,2.141443319303635,-6.366022109985352,-18.31978416442871,-36.13372802734375,0.013377696578057305,1015.8552586248924
1.2543408203125,-0.0123283703710883,0.0128321186421439,0.0006628478229045,-0.0043990369886159,-0.0189798921346664,0.003694259095937,0.0625370083907,0.072844435432091,2.141474907821018,-6.332114219665527,-17.955551147460938,-35.778045654296875,0.01348338081822446,1015.8552487068622
1.26441015625,-0.0062323185183107,0.0134360028194263,0.0274777895122766,0.0051962938159704,0.0053266664035618,0.0075875334441661,0.062537555775611,0.0728024511034293,2.141529174997942,-6.381683349609375,-18.1453857421875,-35.881500244140625,0.013589072746195512,1015.8552387881107
1.274479248046875,0.0060853843282908,0.0035212329287081,0.0448164623260498,0.0145120313391089,0.020732520148158,0.01052713021636,0.0626406174712338,0.0729513576586766,2.1416076120613026,-6.327729225158691,-18.14755249023437,-35.751129150390625,0.013694762111565263,1015.8552288695995
1.284548095703125,0.0214780376408249,-0.0256830881152302,0.0186140995770692,0.0306488461792469,0.0203197766095399,0.0125234331935644,0.0628826890998205,0.0731844691124124,2.1416992530084853,-6.513970375061035,-18.007768630981445,-35.909423828125,0.013800448914333716,1015.8552189513289
1.2946171875,0.029804113567993,-0.0268287510190159,0.0043529345124959,0.0398908145725727,0.0092495493590831,0.0157921966165304,0.0632548908407607,0.0733449953150801,2.14182067760348,-6.231724739074707,-17.95602035522461,-35.500030517578125,0.013906138279703467,1015.8552090328178
1.30468505859375,0.0368663070391863,-0.0172523827698081,0.032518121767044,0.0407816246151924,-0.0048407209105789,0.018700486049056,0.0636676549839482,0.0733592510079087,2.1419682537349787,-6.408967971801758,-18.08357048034668,-35.78472900390625,0.014011814832066725,1015.8551991155092
1.314754150390625,0.0430129200354218,-0.0194056152809411,0.0273252292990684,0.0277302712202072,-0.0257310885936021,0.0180093944072723,0.064028664952218,0.0731911359457532,2.1421204492971517,-6.481245040893555,-17.966764450073242,-35.8568115234375,0.014117504197436476,1015.855189196998
1.324822998046875,0.0653625528790056,0.007634294270724,0.0375917717695236,0.0107024442404508,-0.0324065573513507,0.0129671953618526,0.0642381697152,0.0728799941074238,2.14226543934816,-6.460527420043945,-18.21003150939941,-35.847137451171875,0.01422319100020493,1015.8551792787275
1.33489208984375,0.0584555499695241,0.0056320876028388,0.0480120434969663,-0.002368084155023,-0.0380199663341045,0.012094210833311,0.0642782345826024,0.0724993491290049,2.1424013813974185,-6.612545967102051,-18.279783248901367,-35.737274169921875,0.01432888036557468,1015.8551693602163
1.344961181640625,0.0542150628555566,0.0047974634096026,0.0414186365813016,-0.0083661749958992,-0.0276029147207736,0.0124612329527735,0.064208244817865,0.0721516062244153,2.142535052560415,-6.57799243927002,-18.245437622070312,-35.999359130859375,0.014434569730944431,1015.8551594417053
1.355029296875,0.0657096858162432,0.0163061148956418,0.0083890581607818,-0.0053437538444995,-0.0171055328100919,0.0154564892873168,0.0641609976688618,0.0719242553656074,2.1426940400932564,-6.714465141296387,-18.332355499267575,-35.844696044921875,0.014540248845908987,1015.8551495241561
1.36509814453125,0.049964858065173,0.0200066499140113,-0.026561259189248,0.001428360119462,-0.0026049972511827,0.0178908854722976,0.0641568662121901,0.0718356258928471,2.142865680349534,-6.865239143371582,-18.186826705932617,-35.83245849609375,0.01464593564867744,1015.8551396058855
1.3751669921875,0.0128760673817247,0.0206187904629856,-0.0410807829290628,0.0108207967132329,-0.0102714393287897,0.0136077217757701,0.064234710013719,0.0717724809411968,2.143016924301134,-6.556884765625,-18.486106872558597,-36.015228271484375,0.014751622451445894,1015.855129687615
1.385236083984375,-0.0026268413722515,0.0337207755550742,-0.0731032301336526,0.0214916430413723,-0.0216985587030649,0.0119780208915472,0.0644114346722777,0.07161391625866,2.143131854820648,-6.494405746459961,-18.208545684814453,-36.41012573242188,0.014857311816815644,1015.8551197691038
1.395304931640625,-0.0006724193688482,0.0353993762917816,-0.084139587932825,0.0243998169898986,-0.0336377769708633,0.0084208361804485,0.0646594067975002,0.0713381771814253,2.1432118341056605,-6.513727188110352,-18.048126220703125,-36.3973388671875,0.014962998619584097,1015.8551098508332
1.405373291015625,-0.0153258716866374,0.0493733219128102,-0.0374742828696966,0.0228004418313503,-0.0504149906337261,-0.0037269450258463,0.0648946729946381,0.0709395731906967,2.143205107026218,-6.438283920288086,-18.247020721435547,-36.43112182617188,0.015068680297149951,1015.8550999330436
1.415442138671875,-0.0060141457229852,0.0493186691161245,0.0259632932960987,0.0124229015782475,-0.067545510828495,-0.0064372438937425,0.0650572863626449,0.0703696359564819,2.1431395905421384,-6.5403594970703125,-18.294994354248047,-36.222412109375,0.015174367099918405,1015.8550900147729
1.425510986328125,-0.00480696189031,0.0181963125564157,0.0648433513104915,0.0025585945695638,-0.0730788111686706,-0.0092964544892311,0.0651186830520291,0.0696944244876158,2.143049017294225,-6.479026794433594,-18.30157470703125,-36.2376708984375,0.015280053902686858,1015.8550800965023
1.435580322265625,-0.0008463876962661,-0.0508193560026586,0.0905968012481927,-0.0003620944917201,-0.0692470595240593,-0.005625020712614,0.0651153289804785,0.0690127941416277,2.142962491380063,-6.554989814758301,-18.512487411499023,-36.27197265625,0.01538574583065791,1015.8550701777508
1.44564892578125,0.0173096659149974,-0.0811177558936178,0.1153869591116905,0.0016098329797387,-0.0506374314427375,0.0014756936579942,0.065108021192707,0.0684252212323558,2.142939759963686,-6.584392547607422,-18.40620994567871,-36.2430419921875,0.015491430070825062,1015.8550602597206
1.45571728515625,0.0047059857338666,-0.0766540544830262,0.1257867725729942,-0.0010333536192774,-0.0156235229223966,0.0083754118531942,0.0651054241089943,0.0680915140419784,2.143003059662953,-6.581572532653809,-18.372034072875977,-35.888214111328125,0.015597111748390919,1015.855050341931
1.4657861328125,-0.0185744251538068,-0.0721983171831816,0.0942494785368442,-0.0051010474562644,0.010630196891725,0.0099423006176948,0.065071425067171,0.068069573457015,2.143103894081752,-6.707809448242188,-18.654953002929688,-35.56658935546875,0.01570279855115937,1015.8550404236604
1.475855224609375,-0.015327844448015,-0.0558629031278192,0.0304167655736207,0.0027667302638292,0.0151184229180216,0.008183017373085,0.0650586808404027,0.0682121070422239,2.143211189519044,-6.78987979888916,-18.297393798828125,-36.0006103515625,0.015808487916529123,1015.8550305051493
1.485924072265625,0.0006803104143589,-0.0401258933570235,-0.0132207161009311,0.003546530380845,0.0062449662946164,0.0052301799878478,0.06509182483227,0.0683198605327312,2.1432987793576954,-6.874716758728027,-18.104633331298828,-36.091552734375,0.0158538818359375,1015.8550262451172
1.4959931640625,-0.0032422698568552,-0.0601933335475623,-0.0085737670779228,-0.0097644804045557,0.0015516774728894,-0.0009411633946001,0.0650443118237528,0.0683535758157236,2.1433376379940308,-6.838868141174316,-18.010419845581055,-36.2904052734375,0.0158538818359375,1015.8550262451172
1.50606103515625,-0.0076564330372959,-0.0799723121855408,0.0397445658892393,-0.0216976944357156,-0.0132764391601085,-0.0098504647612571,0.0648886576724238,0.0682992183811223,2.143287278031022,-6.638148307800293,-18.479738235473636,-36.186279296875,0.0158538818359375,1015.8550262451172
1.516130126953125,0.0116719522889703,-0.0938360023651272,0.0798339996933937,-0.031403049826622,-0.0242798216640949,-0.0118515640497207,0.0646340999407301,0.068111609744362,2.143195320181396,-6.669964790344238,-18.589305877685547,-36.06411743164063,0.0158538818359375,1015.8550262451172
1.52619921875,0.0699687315002083,-0.0911402604751288,0.0940022257775068,-0.0453982725739479,-0.0268087014555931,-0.0061129457317292,0.0642673493326112,0.0678557836392225,2.1431200104332664,-6.579051971435547,-18.438825607299805,-35.5443115234375,0.0158538818359375,1015.8550262451172
1.53626806640625,0.1203548106521368,-0.0752620156027376,0.0826367821544408,-0.0553515739738941,-0.0168226454406976,0.0034968047402799,0.0637797736665391,0.0676280795958412,2.14313741300455,-6.483358383178711,-18.42738151550293,-35.79473876953125,0.0158538818359375,1015.8550262451172
1.546337158203125,0.1160915271844714,-0.0440283806882798,0.0327712197452783,-0.0578883476555347,-0.0035266194026917,0.0093906447291374,0.0632404812696415,0.0675106743295194,2.1432339906807334,-6.676746368408203,-18.309255599975582,-35.69781494140625,0.0158538818359375,1015.8550262451172
1.5564052734375,0.0900276230581104,0.0012865326792001,-0.0159574475884437,-0.0452220849692821,-0.0061311908066272,0.0139811355620622,0.0627333593022541,0.0674499706475058,2.1433864469943718,-6.455229759216309,-17.988523483276367,-35.5751953125,0.0158538818359375,1015.8550262451172
1.56647412109375,0.1022633467096835,0.0166099201478064,-0.077906831023097,-0.0274458043277263,-0.0186753384768962,0.020352330058813,0.0623726023955264,0.067329405679816,2.143580402858675,-6.602338790893555,-18.06768226623535,-36.0643310546875,0.0158538818359375,1015.8550262451172
1.576543212890625,0.1116331595361232,0.0016426891731098,-0.1403027891814708,-0.0078097851946949,-0.045661948621273,0.0213835071772336,0.062234647335614,0.066997590102077,2.1437971334317845,-6.334159851074219,-18.15153694152832,-35.960205078125,0.0158538818359375,1015.8550262451172
1.586612060546875,0.0800352944191545,-0.0120950730718672,-0.1205219839125871,0.0101376147940754,-0.0594315826892852,0.0155502706766128,0.0622834701979979,0.0664486827929761,2.1439770808561818,-6.519227981567383,-18.16402816772461,-36.1351318359375,0.0158538818359375,1015.8550262451172
1.596680908203125,0.0427180287420749,-0.0235362853448838,-0.0509159482449293,0.0097810178995132,-0.0692730322480201,0.0130208004266023,0.0624446190125924,0.0657963880248991,2.1441163461071424,-6.3267822265625,-18.38410186767578,-35.8927001953125,0.0158538818359375,1015.8550262451172
1.606749267578125,0.0392300404958426,-0.0308124868929386,0.0027051673054695,0.0038265753537416,-0.0664555057883262,0.0089099071919918,0.0625726568614544,0.065127508826596,2.1442151268416447,-6.635087013244629,-17.794267654418945,-35.9317626953125,0.0158538818359375,1015.8550262451172
1.61681787109375,0.0468625812008976,-0.0324148075230419,0.0391156203359365,-0.0051054004579782,-0.0537261292338371,0.0057564582675695,0.0626076849322646,0.0645453521792875,2.144283642935384,-6.350728988647461,-17.974592208862305,-35.421966552734375,0.0158538818359375,1015.8550262451172
1.62688720703125,0.0296244461521506,-0.0378885262263938,0.085215692731738,-0.0152727514505386,-0.0324644707143306,0.0057741119526326,0.0625223809563837,0.0641344077911042,2.144346935118596,-6.556004524230957,-18.37123107910156,-35.737823486328125,0.0158538818359375,1015.8550262451172
1.636956298828125,0.0090633772257715,-0.0435656585473567,0.0915928265482187,-0.0238220300525426,-0.0126771852374076,0.0071680103428661,0.0623245624334832,0.0639406707498091,2.144418485875206,-6.487299919128418,-18.33348846435547,-35.48492431640625,0.0158538818359375,1015.8550262451172
1.647025146484375,0.0089833707921206,-0.0508238129820674,0.0538935027509927,-0.0198123473674058,-3.17678786814e-05,0.0084597188979387,0.0621028092982343,0.0639020273330791,2.144518187779801,-6.47163200378418,-18.24720764160156,-35.714080810546875,0.0158538818359375,1015.8550262451172
1.65709326171875,-0.0011369681406766,-0.0135721964197233,0.0315443082988262,-0.0187763776630163,-0.0001787743531167,0.0074197542853653,0.0619032282670362,0.0639415551733826,2.1446071151531507,-6.517386436462402,-18.169851303100582,-35.918243408203125,0.0158538818359375,1015.8550262451172
1.667162109375,0.0169445589296519,-0.0345655923487618,-0.0193780696868896,-0.0065807644277811,-0.0156019814312458,0.0061613339930772,0.0617917036278994,0.0638823624056753,2.1446795781782706,-6.489811897277832,-17.91832733154297,-36.17681884765625,0.0158538818359375,1015.8550262451172
1.677231201171875,0.0140776982564479,-0.0642627384109422,-0.0541162055909633,0.0024822391569614,-0.0256647355854511,0.0003148969262838,0.0617846624807915,0.0636856047958371,2.144713448130912,-6.7878522872924805,-17.92581558227539,-35.888275146484375,0.0158538818359375,1015.8550262451172
1.687300048828125,-0.0299723828069865,-0.0442853145914152,0.0200789114326238,-0.0079099023714661,-0.0197775214910507,-0.0064030019566416,0.0617923895592926,0.0634769781424551,2.144664833273384,-6.663177490234375,-17.898725509643555,-36.39691162109375,0.0158538818359375,1015.8550262451172
1.697369140625,-0.0575485181272029,-0.0515189921719953,0.0798328306496143,-0.0270830653607845,-0.0145763680338859,-0.0148353688418865,0.0616342913738844,0.0633122295583074,2.1445558020943056,-6.523347854614258,-17.925006866455078,-36.01287841796875,0.0158538818359375,1015.8550262451172
1.70743701171875,-0.041107524805516,-0.0567822464624419,0.0908574980109929,-0.0399645194411277,-0.0027715575415641,-0.0200345814228057,0.0612953129757508,0.0632362738857092,2.1443937350634488,-6.431230545043945,-17.86206817626953,-36.17938232421875,0.0158538818359375,1015.8550262451172
1.717506103515625,0.0076180737882852,-0.0637127398453652,0.0622334610730409,-0.0445153266191482,-0.007798540405929,-0.0232482179999351,0.0608777406624312,0.0632251059317525,2.144202178801476,-6.500648498535156,-17.96131706237793,-36.033966064453125,0.0158538818359375,1015.8550262451172
1.7275751953125,0.0447943235594779,-0.073477287610434,-0.03964987334311,-0.0335454531013965,-0.0266955886036157,-0.0235627777874469,0.0604763900555751,0.0630942568636867,2.1439978081687032,-6.5244550704956055,-18.106037139892575,-35.98907470703125,0.0158538818359375,1015.8550262451172
1.73764404296875,0.0527104304462671,-0.0773597185343503,-0.0840413882553577,-0.0202027522027492,-0.0356925465166568,-0.0240267012268304,0.060202059886326,0.0627883765393226,2.143771167022191,-6.785234451293945,-17.932432174682617,-35.7542724609375,0.0158538818359375,1015.8550262451172
1.74771337890625,0.0323753522954881,-0.0921523601271212,-0.0412941334187984,-0.0116967624053359,-0.023347558453679,-0.023035243153572,0.060066681094224,0.0625105656031846,2.143544077246696,-6.790935516357422,-17.88685417175293,-36.23971557617188,0.0158538818359375,1015.8550262451172
1.757781005859375,0.009011902766861,-0.0805958509113639,0.0317599968761205,-0.0172063112258911,-0.0149905607104301,-0.0246318075805902,0.0599326169912416,0.0623436330908695,2.1433182154193418,-6.514286994934082,-18.059770584106445,-35.87469482421875,0.0158538818359375,1015.8550262451172
1.76785009765625,0.0139925772562623,-0.1019911787047982,0.0406418069899082,-0.0261913649737834,-0.0148763675242662,-0.0264714807271957,0.0597189016398518,0.0622159418203252,2.1430712656034587,-6.57554817199707,-18.129789352416992,-35.7344970703125,0.0158538818359375,1015.8550262451172
1.777919189453125,0.0289111467836424,-0.1080364502184093,0.054204468396306,-0.0352069623768329,-0.0048873834311962,-0.0237723663449287,0.0594070765989802,0.0621121975573963,2.142842380578494,-6.567505836486816,-17.98548698425293,-36.20269775390625,0.0158538818359375,1015.8550262451172
1.787988037109375,0.0303217442339286,-0.1035964584769681,0.0604196896493434,-0.0394479446113109,-0.0006818305701017,-0.0228644199669361,0.0590352032622304,0.0620889765579327,2.142628094464333,-6.758877754211426,-17.905664443969727,-36.3736572265625,0.0158538818359375,1015.8550262451172
1.798057373046875,0.0010087386511266,-0.1205597951723262,0.0329161811739206,-0.030671764165163,0.0050871092826128,-0.0208792984485626,0.058693385665545,0.0621167208886759,2.1424214805109387,-6.680037498474121,-17.878767013549805,-36.51318359375,0.0158538818359375,1015.8550262451172
1.808125244140625,0.0004362359927967,-0.1152869328033178,0.0252285492807626,-0.0217102188616991,0.0067605590447783,-0.0244514737278223,0.0584371660774822,0.0622050060766551,2.142211841774763,-6.9495038986206055,-18.137449264526367,-36.14498901367188,0.0158538818359375,1015.8550262451172
1.818194091796875,0.0363160527452826,-0.1069833244362846,0.0213806416809558,-0.0155442021787166,0.005511269904673,-0.0216405075043439,0.0582612611616792,0.0622996512803547,2.141983143893368,-6.811576843261719,-17.832059860229492,-36.365570068359375,0.0158538818359375,1015.8550262451172
1.82826318359375,0.0611336831375956,-0.0776551578169688,0.0380301631867885,-0.0185630600899457,-0.0001124613918364,-0.0216214843094348,0.0581236213263242,0.0623626839265379,2.1417737941671757,-6.947687149047852,-17.925430297851562,-36.490264892578125,0.0158538818359375,1015.8550262451172
1.83833203125,0.0588640942377969,-0.0382497607542201,0.0130354226619005,-0.0294758956879377,-0.005180989857763,-0.0294687543064355,0.0578842450495724,0.0623490627880298,2.141528076477736,-6.685067176818848,-17.821352005004883,-36.026153564453125,0.0158538818359375,1015.8550262451172
1.848401123046875,0.0448921213781461,-0.0028005905039608,-0.0694610742390155,-0.0369652360677719,-0.0183884054422378,-0.0398015528917312,0.057546470526054,0.0622463446925575,2.14120820180766,-6.7811479568481445,-18.002561569213867,-36.0758056640625,0.0158538818359375,1015.8550262451172
1.85846923828125,0.0367989408913999,-0.0086694825373589,-0.1301753629207611,-0.0360352620482444,-0.0323412381112575,-0.0423603169620037,0.0571762820920658,0.0620319367440083,2.1408161210411656,-6.5333662033081055,-18.094186782836918,-35.9896240234375,0.0158538818359375,1015.8550262451172
1.868537841796875,0.0434220853582024,-0.0276540228620171,-0.1498871946066617,-0.0267509948462247,-0.0280162058770656,-0.0454692542552948,0.0568725962224939,0.0617512324875343,2.140395797679868,-6.778450965881348,-18.01120948791504,-36.436279296875,0.0158538818359375,1015.8550262451172
1.878607177734375,0.0096693802949041,-0.0396167747911065,-0.11031506267488,-0.0069890078157186,-0.0157523490488529,-0.0462591461837291,0.0567053198010483,0.0615448915764564,2.139949256534521,-6.875121116638184,-18.03474235534668,-36.342864990234375,0.0158538818359375,1015.8550262451172
1.88867626953125,-0.0236821966215968,-0.0665715998752042,-0.0462286672115325,0.0160683114081621,-0.0125853614881634,-0.0470541790127754,0.0567644033659067,0.0614207966806681,2.1394797538982155,-6.751142501831055,-17.882766723632812,-35.887237548828125,0.0158538818359375,1015.8550262451172
1.8987451171875,-0.0473030549773946,-0.0658054743409156,0.0552308888345956,0.0313647091388702,0.0038287648931145,-0.0401395447552204,0.0570260532393439,0.06141947378621,2.139037356870847,-6.592484474182129,-18.13503074645996,-36.05792236328125,0.0158538818359375,1015.8550262451172
1.908814208984375,-0.029588534588553,-0.0841365922581404,0.1204986030369996,0.0322446897625923,0.0152104552835226,-0.0341266244649887,0.0573546054111153,0.0615678979650202,2.1386457337959084,-6.490160942077637,-17.670873641967773,-36.137115478515625,0.0158538818359375,1015.8550262451172
1.918882080078125,-0.0239532686479389,-0.0504782874800264,0.1620049179017543,0.0116936080157756,0.0173764042556285,-0.0331553667783737,0.0575828291655485,0.0617576801812409,2.1383009374653272,-6.555647850036621,-17.883386611938477,-36.52798461914063,0.0158538818359375,1015.8550262451172
1.928950927734375,-0.0303708806052803,-0.0237359726354479,0.1917372083425521,-0.0250235497951507,0.0096109677106142,-0.0346251651644706,0.0575020296052267,0.0619088039241591,2.137974894929971,-6.546144485473633,-18.03394889831543,-36.251495361328125,0.0158538818359375,1015.8550262451172
1.93902001953125,-0.0238073208386078,-0.0058649830432608,0.1347831489771604,-0.0528077743947505,-0.0075728129595518,-0.0379253551363945,0.0570806346539945,0.0619553444143787,2.1376429593612327,-6.757142066955566,-17.916248321533203,-36.1668701171875,0.0158538818359375,1015.8550262451172
1.9490888671875,0.0008619140589609,0.0052648251930251,0.0419610728949308,-0.0581238493323326,-0.0184387806802988,-0.0403401181101799,0.0564903647532096,0.0618329140698566,2.137269004860773,-6.759383201599121,-17.857097625732422,-36.219329833984375,0.0158538818359375,1015.8550262451172
1.959157958984375,-0.0136906717002391,0.0091632208710536,0.0016723171263933,-0.0446652993559837,-0.025254076346755,-0.0393598079681396,0.0559562587261852,0.0616358581078232,2.136908704280976,-6.805649757385254,-17.87769317626953,-36.37985229492188,0.0158538818359375,1015.8550262451172
1.96922607421875,-0.0169858042554929,0.009922368675284,0.0030213936477899,-0.0271056741476058,-0.010341478511691,-0.0357935726642608,0.0555906001759212,0.0614664891763823,2.136553535388201,-6.878965377807617,-17.61744499206543,-36.40689086914063,0.0158538818359375,1015.8550262451172
1.979294677734375,-0.0029348478754982,-0.0056066609006375,-0.0016512743383646,-0.0094848675653338,0.0052875475957989,-0.0328289419412612,0.0554106108893923,0.061436782162513,2.136220873414006,-6.705144882202148,-17.844863891601562,-36.388427734375,0.0158538818359375,1015.8550262451172
1.989364013671875,0.0023709303824231,-0.0138468121100217,0.0205664026886224,0.0054865963757038,0.0152323935180902,-0.0322575010359287,0.0554095799866672,0.0615675746719011,2.1358863385757325,-6.559023857116699,-17.929019927978516,-36.13177490234375,0.0158538818359375,1015.8550262451172
1.99943310546875,0.0356208004901185,0.0171474245579913,0.0229863233119249,0.0083026234060525,0.0058194515295326,-0.0303900931030511,0.0554879584626783,0.061702543354127,2.135558410731878,-6.710245132446289,-17.79180908203125,-36.2601318359375,0.0158538818359375,1015.8550262451172
2.009501953125,0.0610806012434884,0.0355999038325622,0.019175825113058,0.010913916863501,-0.0024655982851982,-0.0307511426508426,0.0555844594143446,0.0617313076427916,2.1352386681562763,-6.852346420288086,-17.828338623046875,-36.522308349609375,0.0158538818359375,1015.8550262451172
2.019570068359375,0.0639111484942957,0.0313798384521156,0.0276648365169763,0.0099501181393861,-0.0053431438282132,-0.035312071442604,0.055673066672061,0.0617175877372929,2.134908742552478,-6.557188987731934,-17.71185874938965,-36.44183349609375,0.0158538818359375,1015.8550262451172
2.029638916015625,0.0472655725112184,0.0127159449165686,-0.0009182838886976,0.0012109195813536,-0.0059027886018157,-0.033327218145132,0.0557078002173836,0.0616907463637336,2.13456834914924,-6.499896049499512,-17.79639434814453,-36.369903564453125,0.0158538818359375,1015.8550262451172
2.0397080078125,0.0357696709088981,0.0051637394387274,-0.0373725760608911,-0.0087101543322205,-0.0057600429281592,-0.0348596014082431,0.0556394848104057,0.0616572065056521,2.134228820685471,-6.463591575622559,-17.8155517578125,-36.46954345703125,0.0158538818359375,1015.8550262451172
2.04977685546875,0.034854346162267,0.017088753173314,-0.0492290180712938,-0.013600131496787,-0.0130148585885763,-0.0349951945245265,0.0555125289610579,0.0615820033760977,2.133873000765405,-6.762432098388672,-17.805023193359375,-36.443359375,0.0158538818359375,1015.8550262451172
2.059845947265625,0.0747218808440491,0.0091747286457568,-0.0369312620341777,-0.0162963140755891,-0.0202101860195398,-0.0356892123818397,0.0553461358169982,0.0614370925993901,2.1335236653310075,-6.6278228759765625,-17.8673038482666,-35.918670654296875,0.0158538818359375,1015.8550262451172
2.069913818359375,0.0870570462821051,-0.0108505163708701,0.0153799399614334,-0.0251134280115365,-0.0177557617425918,-0.0408973284065723,0.0551195818263269,0.0612459556468091,2.133155599264029,-6.442680358886719,-17.824697494506836,-36.09869384765625,0.0158538818359375,1015.8550262451172
2.07998291015625,0.0707633524766191,-0.029039595468901,0.0470376455068588,-0.0349468812346458,-0.0102461818605661,-0.044912576675415,0.0547901937838744,0.0611512636061269,2.13274587656499,-6.370262145996094,-17.72698974609375,-36.251068115234375,0.0158538818359375,1015.8550262451172
2.090052001953125,0.0623269845753908,-0.0468514752849936,0.0273474411308765,-0.0279061235487461,-0.0085660563781857,-0.0522289276123046,0.0544229256616436,0.0611252096417831,2.132265254283577,-6.6384992599487305,-17.5062198638916,-36.2176513671875,0.0158538818359375,1015.8550262451172
2.100120849609375,0.0645643882386386,-0.0877953704940155,-0.0227162741988897,-0.020238347351551,-0.0190080441534519,-0.0621017999947071,0.0541231021398637,0.0610330848502967,2.1316959432966174,-6.661342620849609,-17.70531463623047,-36.084808349609375,0.0158538818359375,1015.8550262451172
2.110190185546875,0.068781969401054,-0.0918282792719081,-0.0202636203497648,-0.0081104105338454,-0.0289580412209033,-0.0665221884846687,0.0539404737253796,0.0608459335752548,2.131053986350987,-6.634790420532227,-17.606176376342773,-36.21725463867188,0.0158538818359375,1015.8550262451172
2.1202578125,0.0951842021036893,-0.1050468764809891,-0.0263444015681743,0.0044210935011506,-0.0408772826194763,-0.0671504288911819,0.0538894703317245,0.0605481369509107,2.1303763148750363,-6.577980995178223,-17.502126693725586,-35.919281005859375,0.0158538818359375,1015.8550262451172
2.1303271484375,0.1176227918723598,-0.1298445600638166,-0.0086468323141336,0.0101186884567141,-0.0405399315059185,-0.0652105063199997,0.0539396220086869,0.0601816108643685,2.129691938527676,-6.570414543151856,-17.591726303100586,-36.17645263671875,0.0158538818359375,1015.8550262451172
2.14039599609375,0.1194341886758804,-0.1383366402076557,0.0281517432510852,0.0118073988705873,-0.0276390481740236,-0.0599233321845531,0.0540045541451977,0.0598893465239906,2.1290503096420674,-6.653853416442871,-17.759124755859375,-36.047698974609375,0.0158538818359375,1015.8550262451172
2.15046484375,0.0875037671362981,-0.1419658635554835,0.0498971265912055,0.0108971167355775,-0.01339175645262,-0.0622144117951393,0.0540770831959676,0.0597423868355015,2.128441721295642,-6.626666069030762,-17.658735275268555,-36.17153930664063,0.0158538818359375,1015.8550262451172
2.1605341796875,0.0370048752596601,-0.1282429335534572,0.0474777904897928,0.0090968199074268,-0.002611014060676,-0.0625853911042213,0.0541490265935537,0.0597192745945655,2.12782225268548,-6.470405578613281,-17.856081008911133,-36.3043212890625,0.0158538818359375,1015.8550262451172
2.17060205078125,0.0039540713880211,-0.1358843516847118,0.0536854129582643,0.0029371529817581,0.0111010316759347,-0.0711825340986251,0.0541785764848009,0.059824573676444,2.127126902728381,-6.45467472076416,-17.761180877685547,-36.2587890625,0.0158538818359375,1015.8550262451172
2.180671142578125,-0.0209104303533211,-0.168917181508243,0.0341115284383296,7.82487913966e-05,0.0191443115472793,-0.0801536589860916,0.0541670817102907,0.0600413794489327,2.126362642710213,-6.411827087402344,-17.692440032958984,-36.1865234375,0.0158538818359375,1015.8550262451172
2.190739990234375,-0.0126738958731293,-0.1909772568207234,-0.0002893383353948,-0.0060382783412933,0.0204393770545721,-0.0838780105113983,0.0541147681787718,0.0603161086943008,2.125528960986848,-6.334606170654297,-17.764678955078125,-36.37081909179688,0.0158538818359375,1015.8550262451172
2.200808837890625,0.0060993763210251,-0.1361143245156854,-0.0195604405164718,-0.0094676315784454,0.0243425052613019,-0.0874666199088096,0.0540022814307586,0.060614908537342,2.124672275587495,-6.176057815551758,-17.741575241088867,-36.41064453125,0.0158538818359375,1015.8550262451172
2.2108779296875,0.025238741881214,-0.0503097625127062,-0.0395756390631198,-0.0138847036287188,0.0212407521903514,-0.0884805619716644,0.053871104395271,0.0609221166752966,2.1237922062871544,-6.093252182006836,-17.489456176757812,-36.092376708984375,0.0158538818359375,1015.8550262451172
2.220947021484375,0.053698820429109,-0.0408005777481943,-0.0466723193258047,-0.0234326720237731,0.0205179695039987,-0.0876153036952018,0.0536655491872923,0.0612093640414158,2.122920674536548,-6.430185317993164,-17.5665283203125,-36.188262939453125,0.0158538818359375,1015.8550262451172
2.231014892578125,0.0851043047791346,-0.0450409187316894,-0.0502653753817081,-0.0317456163465976,0.0194625444710254,-0.080858290195465,0.0533700577889633,0.0614705323683613,2.122101329391496,-6.538731575012207,-17.511266708374023,-35.969940185546875,0.0158538818359375,1015.8550262451172
2.241083984375,0.0818825297210365,-0.0872310146095231,-0.0927028336167335,-0.0304760858416557,0.0077198673970997,-0.0790260359644889,0.053034679422387,0.061661265428919,2.121319044107881,-6.2941484451293945,-17.505340576171875,-36.316192626953125,0.0158538818359375,1015.8550262451172
2.2511533203125,0.0625942206768319,-0.0823626048555597,-0.1202910977661609,-0.0182797443121671,-0.0035686525516211,-0.0902266055345535,0.0527830816337022,0.0617201543364712,2.120506686131952,-6.382088661193848,-17.39557456970215,-36.346527099609375,0.0158538818359375,1015.8550262451172
2.261221923828125,0.0435984283057972,-0.0771122831119224,-0.0625993717759847,-0.0040568672120571,-0.010651595890522,-0.0904268771409988,0.0526621724653315,0.0616883033991982,2.1196224712934035,-6.459076881408691,-17.72984504699707,-36.81027221679688,0.0158538818359375,1015.8550262451172
2.271291015625,0.0186232692642137,-0.1193080415455624,0.0353133054435253,0.0103194909170269,-0.0182953476905822,-0.0904362350702285,0.0526929419416276,0.0615797767656011,2.118712708213372,-6.21920108795166,-17.709577560424805,-36.68038940429688,0.0158538818359375,1015.8550262451172
2.281359130859375,0.0091531013358384,-0.166208726267144,0.1291156247347593,0.0264529213309288,-0.0140012670308351,-0.0893967971205711,0.0528697537734635,0.0614622768071704,2.1177948021536657,-6.18696403503418,-17.696277618408203,-36.742523193359375,0.0158538818359375,1015.8550262451172
2.291427978515625,0.0174943382995203,-0.1937142440365627,0.2112175693601369,0.0251866597682237,-0.0152176590636372,-0.082714095711708,0.0531017931689429,0.0613444923464433,2.116904376694883,-5.981050491333008,-17.978721618652344,-36.296905517578125,0.0158538818359375,1015.8550262451172
2.3014970703125,0.0336095337329432,-0.1908382502088323,0.2481505849599838,0.0194832347333431,-0.0198283903300762,-0.0759211704134941,0.0532885189257295,0.0612273076587674,2.1160969768804123,-5.9979400634765625,-17.93545150756836,-36.248077392578125,0.0158538818359375,1015.8550262451172
2.31156591796875,0.0621632453810423,-0.1794143178641796,0.2241518697351217,0.0051352893933653,-0.0351528637111187,-0.070504754781723,0.053370180006584,0.0610007081037508,2.1153527691373597,-6.223468780517578,-17.74873161315918,-36.26849365234375,0.0158538818359375,1015.8550262451172
2.321634765625,0.0707569227358326,-0.1447008780099451,0.1932651485621929,-0.0099547132849693,-0.0460989885032177,-0.0606465339660644,0.0533240840279351,0.0606418681499766,2.114670189476301,-6.306736946105957,-17.897567749023438,-36.56756591796875,0.0158538818359375,1015.8550262451172
2.331703125,0.0589106367932632,-0.1066991006674245,0.134340081384778,-0.0187364257872104,-0.0415260307490825,-0.0556764639914035,0.0531553620869431,0.0602305463192874,2.114092174806002,-6.213329315185547,-17.883787155151367,-36.332794189453125,0.0158538818359375,1015.8550262451172
2.341772216796875,0.0222066076437011,-0.0836014624681323,0.0619207418620586,-0.0155941592529416,-0.0340689122676849,-0.0527709573507308,0.0529621830964837,0.0598822313593016,2.1135606486452287,-6.190412521362305,-17.90833282470703,-36.17404174804688,0.0158538818359375,1015.8550262451172
2.351841064453125,-0.0121572515878826,-0.0925022330107167,-0.0119254155933856,-0.0068277884274721,-0.0304752066731452,-0.0519755482673645,0.0528631357258022,0.059585676742536,2.113036365865261,-6.11744499206543,-18.055665969848636,-36.03082275390625,0.0158538818359375,1015.8550262451172
2.36191015625,-0.0175836240181699,-0.0981149948585778,-0.0319739318877458,-0.002747293561697,-0.0268993806093931,-0.0495406202971935,0.0528400751790968,0.0593447197479025,2.1125302652229787,-6.008716583251953,-17.83739471435547,-35.921539306640625,0.0158538818359375,1015.8550262451172
2.371978759765625,-0.0326652751527726,-0.0732770888632163,-0.0240337865382432,-0.0102305896580219,-0.0264758225530385,-0.0549856424331665,0.0527940383469598,0.0591117221075945,2.1120087832253174,-6.278190612792969,-17.857206344604492,-36.18658447265625,0.0158538818359375,1015.8550262451172
2.382047119140625,-0.0417869949696585,-0.0092558310579508,-0.0228963069409132,-0.0243852902203798,-0.0371052958071231,-0.057963591068983,0.0526388243177522,0.058835087861901,2.1114551323666544,-6.042043685913086,-17.852584838867188,-36.081146240234375,0.0158538818359375,1015.8550262451172
2.392115966796875,-0.0918662366621196,0.039571182083711,-0.0636409897834062,-0.0301163233816623,-0.0706358551979065,-0.0705522000789642,0.0523683992150869,0.0583700259559052,2.1108194508897458,-6.322126388549805,-17.776626586914062,-36.12554931640625,0.0158538818359375,1015.8550262451172
2.40218505859375,-0.1596562724163755,0.0238058230012655,-0.1073112046837806,-0.0188644677400589,-0.1163327693939209,-0.0789882913231849,0.0521184698417103,0.0574972912739217,2.110076277501144,-6.3383636474609375,-17.800472259521484,-36.0611572265625,0.0158538818359375,1015.8550262451172
2.41225390625,-0.2312007288007065,-0.0351988122183829,-0.0764887809187173,-0.0028801932930946,-0.1361972987651825,-0.0799370631575584,0.0519761115284731,0.0562896450271696,2.109273259432207,-6.192813873291016,-17.89794921875,-35.830596923828125,0.0158538818359375,1015.8550262451172
2.422322998046875,-0.3136392119040712,-0.0745753485128283,0.0079179335176944,0.0071972091682255,-0.1501679718494415,-0.077356994152069,0.0519738812546767,0.0548958446410013,2.108487406167097,-6.270371437072754,-18.002307891845703,-35.816070556640625,0.0158538818359375,1015.8550262451172
2.432390869140625,-0.3286082695096731,-0.0756608787272125,0.0723731622934341,0.0107069108635187,-0.1417053788900375,-0.0735881254076957,0.0520616696212316,0.0534735574782571,2.1077167013786138,-6.217574119567871,-17.900781631469727,-36.06591796875,0.0158538818359375,1015.8550262451172
2.4424599609375,-0.3014617577783763,-0.034130379269272,0.0661380672961473,0.001794908195734,-0.1294633597135543,-0.0734091624617576,0.0521310473384768,0.0521515248535131,2.106971149304691,-6.4100494384765625,-17.884723663330078,-35.71514892578125,0.0158538818359375,1015.8550262451172
2.452529052734375,-0.2576885208949446,0.015954086587578,-0.051593409115076,-0.004463855177164,-0.1231617555022239,-0.0754009336233139,0.05209598317411,0.0509346601576393,2.1062288961470235,-6.501497268676758,-17.893327713012695,-35.796875,0.0158538818359375,1015.8550262451172
2.462597900390625,-0.2006442624954506,0.0630615093950182,-0.191157362627983,-0.016860069707036,-0.1162681654095649,-0.0747151747345924,0.0519555640184424,0.049768271423506,2.1054819535470157,-6.379481315612793,-17.93927764892578,-35.57122802734375,0.0158538818359375,1015.8550262451172
2.472667236328125,-0.1713732328908518,0.1222889205198734,-0.3205237472534179,-0.0208055432885885,-0.1176761761307716,-0.0743428617715835,0.0517081220569797,0.0486415203032034,2.104749690594442,-6.486607551574707,-18.00026512145996,-35.832183837890625,0.0158538818359375,1015.8550262451172
2.48273583984375,-0.1627839759828522,0.1773732770232483,-0.4260433923453092,-0.0234521944075822,-0.1351283937692642,-0.0796489417552948,0.0514349117914976,0.0473956875535373,2.103992723829503,-6.641604423522949,-17.97100067138672,-36.162384033203125,0.0158538818359375,1015.8550262451172
2.492803955078125,-0.1789865574387833,0.2033189250648021,-0.4748071309924125,-0.0093718506395816,-0.157140702009201,-0.0892239287495613,0.0512422400556251,0.0459311115093323,2.103146817998045,-6.620287895202637,-17.885942459106445,-35.852294921875,0.015885443079258283,1015.8550221447753
2.502873046875,-0.1823843466509133,0.2228775024177506,-0.4254062634855508,0.0113579295575618,-0.1830980032682418,-0.1004896312952041,0.0512071991581361,0.0442288758428592,2.1021910006427262,-6.706744194030762,-17.856353759765625,-36.15374755859375,0.015938551213011003,1015.855015245126
2.51294189453125,-0.2092856879821047,0.1912932274347171,-0.3174211050629615,0.0437571965157985,-0.2044546604156494,-0.1081811785697937,0.0514505622681791,0.0422990552475754,2.1011340989208978,-6.79228401184082,-17.91343879699707,-36.09112548828125,0.015991658059075292,1015.8550083456439
2.52301123046875,-0.2160721332518383,0.0874246740180999,-0.1614192269682884,0.0769135504961013,-0.1986321955919265,-0.1121223866939544,0.0520138419606749,0.0402870680886127,2.099983549205636,-6.640052795410156,-17.920320510864258,-35.612945556640625,0.016044767480516437,1015.8550014458274
2.533079833984375,-0.2243301489114761,-0.088400314117223,0.0136363111644983,0.104963481426239,-0.1802330017089843,-0.1096727773547172,0.0528999930996953,0.0383803035949087,2.098832697081707,-6.839323043823242,-17.92909049987793,-35.6995849609375,0.0160978730388923,1015.8549945465127
2.54314794921875,-0.2334010883891955,-0.2821072516301646,0.2029120978295803,0.1235619336366653,-0.1274334341287613,-0.0961098298430442,0.0540077293742642,0.0368475681144363,2.097756252654663,-6.873396873474121,-17.79258155822754,-36.11724853515625,0.016150976021891316,1015.8549876475325
2.553217041015625,-0.2375802737699821,-0.4711547459647059,0.3887345291703939,0.1287133246660232,-0.0550382174551487,-0.0812224969267845,0.0552093332084063,0.035961949287501,2.0968203473258176,-6.685766220092773,-17.760356903076172,-35.3275146484375,0.016204084155644033,1015.8549807478832
2.5632861328125,-0.2007887855326756,-0.6182302441515029,0.4845137014925479,0.1204042509198188,0.0042594610713422,-0.066118374466896,0.0564185241343535,0.0357522581705086,2.0960261241310323,-6.579531669616699,-17.68950843811035,-35.129486083984375,0.016257192289396746,1015.8549738482341
2.57335498046875,-0.1330538774991408,-0.7083342934466899,0.4779010053545236,0.0808624476194381,0.0347633995115757,-0.0555113106966018,0.0573944082756575,0.03598885999793,2.095383704846021,-6.464261054992676,-18.001049041748047,-35.159393310546875,0.01631029913546104,1015.854966948752
2.583424072265625,-0.0349981385471299,-0.7111380257558078,0.4353185856908559,0.0181849543005228,0.0223565306514501,-0.0516212359070777,0.0578569507424914,0.0363371852567716,2.0948182609484896,-6.877066612243652,-18.21091651916504,-35.608428955078125,0.016363407269213755,1015.8549600491027
2.593491943359375,0.0482032186875119,-0.6585448650136589,0.2556032390534877,-0.0657338798046112,-0.0327933430671691,-0.052835289388895,0.0576043075033804,0.0363210615141747,2.0942981055409597,-6.703850746154785,-18.19242286682129,-35.5911865234375,0.016416508964524342,1015.8549531502899
2.60356103515625,0.1405226790098473,-0.6241328923240304,0.0200695590823888,-0.1580811291933059,-0.1184299513697624,-0.0592319369316101,0.0564575580395369,0.0356006262394129,2.0937746572355747,-6.88170337677002,-18.158069610595703,-35.697784423828125,0.01646961709827706,1015.8549462506406
2.613630126953125,0.2078649709966033,-0.5801977794097736,-0.3014829466968775,-0.2335006892681121,-0.2223667651414871,-0.0762547105550766,0.0544496183315862,0.0339141374063589,2.093173112436846,-6.9969987869262695,-17.991756439208984,-35.711639404296875,0.01652272523202978,1015.8549393509913
2.623698974609375,0.2152141464493237,-0.4971764183845371,-0.5865589484721422,-0.2632420659065246,-0.338653415441513,-0.0956406593322753,0.0518949797236889,0.0310949006796118,2.0923884925331198,-7.057703018188477,-17.87237548828125,-35.44488525390625,0.016575832078094068,1015.8549324515094
2.63376806640625,0.1481706912786699,-0.4069258367581292,-0.7344219437748193,-0.2417120337486267,-0.4294156730175018,-0.1050836592912674,0.0493301670723884,0.0272399157648384,2.091437764486579,-7.141753196716309,-17.832679748535156,-35.8458251953125,0.016628940211846785,1015.8549255518601
2.6438359375,0.0482048078563995,-0.3530170999053865,-0.6849158623278141,-0.1678609848022461,-0.4632604420185089,-0.1049377173185348,0.0472718277623533,0.0227607904536102,2.0904216496519443,-7.022926330566406,-17.78362274169922,-35.770233154296875,0.01668204190715737,1015.8549186530473
2.653905029296875,-0.0506770979877561,-0.3740647833049297,-0.4720154544472694,-0.0782835632562637,-0.4350290596485138,-0.0909548625349998,0.0460550252931678,0.0182495117021887,2.0894471876659844,-7.061676979064941,-17.853309631347656,-35.622467041015625,0.016735150040910092,1015.854911753398
2.663973876953125,-0.1377211660572793,-0.4435400321997702,-0.1757102026492357,0.0045205131173133,-0.3484901785850525,-0.0754962787032127,0.0457298247400175,0.0143337834389418,2.0886182349715123,-7.294442176818848,-17.843168258666992,-35.75177001953125,0.01678825688697438,1015.8549048539161
2.67404296875,-0.2069762785285711,-0.5164954148279502,0.163422968006134,0.067974679172039,-0.2266830801963806,-0.0413354933261871,0.046088061103385,0.01144403582767,2.088023581377956,-7.61506462097168,-17.520280838012695,-36.159210205078125,0.016841365020727098,1015.8548979542668
2.68411181640625,-0.2436226592067629,-0.6407562564752995,0.4239800300747156,0.1151392608880996,-0.0823413431644439,-0.0067543489858508,0.0470135704632499,0.0099000858809098,2.0877680747075296,-7.667423248291016,-17.939054489135742,-35.9014892578125,0.01689447186679139,1015.8548910547847
2.694179931640625,-0.2581670616595074,-0.7541973422162235,0.6057809508144855,0.1406936049461364,0.0449138842523098,0.0217318106442689,0.0483409782860656,0.0097662316651591,2.08782473366612,-7.459780693054199,-17.876873016357422,-35.512542724609375,0.016947574849790405,1015.8548841558047
2.704249267578125,-0.2718532398477196,-0.8454973232977092,0.707795802655816,0.139864832162857,0.1304263919591903,0.0480947084724903,0.0497901653965942,0.0106601432996187,2.0881752097720456,-7.596396446228027,-17.861141204833984,-35.79840087890625,0.017000684271231546,1015.8548772559881
2.71431787109375,-0.2460432008845731,-0.945915261336416,0.7195382628977298,0.1195769235491752,0.1682545095682144,0.0631062239408493,0.0511182378886412,0.0121814442546971,2.0887335030843466,-7.492311477661133,-17.6866455078125,-35.657440185546875,0.01705378982960741,1015.8548703566734
2.72438720703125,-0.1547025955317542,-1.0018212729535996,0.6556506048768759,0.0826750919222831,0.1672108173370361,0.0637978464365005,0.0521631906264767,0.0138414175515069,2.0893696334843725,-7.777865409851074,-18.06683349609375,-36.05926513671875,0.017106899251048552,1015.8548634568568
2.734455810546875,-0.0950574613183271,-1.0347804895516484,0.5900128883183002,0.0423957593739032,0.138721153140068,0.060857567936182,0.0528009658552897,0.0153609263429226,2.0900052042848936,-7.549864768981934,-17.942703247070312,-35.653076171875,0.01716000480942442,1015.8548565575421
2.744525146484375,-0.088850505570136,-1.05698786438033,0.4963485161930322,0.0013987924903631,0.0925006493926048,0.0472288392484188,0.0530239343524762,0.0164846549642258,2.090547323433179,-7.451003074645996,-18.021041870117188,-35.81256103515625,0.01721311423086556,1015.8548496577256
2.754593017578125,-0.0992731153851374,-1.0443781928498297,0.376755337563157,-0.0329180881381034,0.0436292998492717,0.0323105715215206,0.0528752274427954,0.0171516334508382,2.09095727911048,-7.458474159240723,-17.99802589416504,-35.498504638671875,0.017266215926176148,1015.8548427589128
2.764661865234375,-0.1043422170766629,-1.0323674370605498,0.2235702704548835,-0.055543765425682,0.0102465767413377,0.0160509087145328,0.0524208879145916,0.0173938382155163,2.091223678968069,-7.613173484802246,-17.94698143005371,-35.990936279296875,0.01731932277224044,1015.8548358594308
2.77473095703125,-0.135505252706632,-1.0116861027553676,0.0760462978482246,-0.0641242787241935,-0.0201450195163488,-0.0022277364041656,0.051828189471982,0.0173055341446684,2.0912906374471056,-7.841878890991211,-17.958629608154297,-35.821380615234375,0.017372430905993157,1015.8548289597815
2.784800048828125,-0.171822127435822,-0.9743268245674668,-0.0110123924016952,-0.0534780360758304,-0.0367780588567256,-0.0166242532432079,0.0512730265710823,0.0170100956011548,2.091193497946772,-7.518263816833496,-17.79913330078125,-36.066314697265625,0.017425539039745874,1015.8548220601322
2.794869140625,-0.2130977936161681,-0.937518896652013,-0.0101712654024362,-0.0333640836179256,-0.0214239452034235,-0.021050427109003,0.0508907531625606,0.0167016660481525,2.091021820999009,-7.514470100402832,-17.790056228637695,-35.9246826171875,0.01747864717349859,1015.854815160483
2.80493701171875,-0.2308285162211395,-0.9258451177321374,0.041076691275835,-0.0071154339239001,-0.0017266739159822,-0.0163550078868865,0.0507840168885007,0.016586834688247,2.090829648471374,-7.775701522827148,-17.735294342041016,-36.28775024414063,0.01753174886880918,1015.8548082616701
2.815006103515625,-0.243101484876871,-0.925665084990114,0.0729804805368185,0.0213057659566402,0.0243452806025743,0.0016683167777955,0.050985746655431,0.0166942454459676,2.0907386333517306,-7.668713569641113,-17.85333251953125,-36.195831298828125,0.017584857002561894,1015.8548013620208
2.825074951171875,-0.2903639703818597,-0.9215896522447466,0.1014139633387327,0.0434880331158638,0.0651198700070381,0.0110319908708333,0.0514324199308235,0.017135433450528,2.090795541665886,-7.86280632019043,-17.91960906982422,-36.280120849609375,0.017637963848626186,1015.8547944625388
2.83514404296875,-0.3436761478472501,-0.8985548136159777,0.1040992568999528,0.0573264136910438,0.0906063616275787,0.0281026624143123,0.0520732018884613,0.0179043019925532,2.0909810936652877,-7.85935115814209,-17.939104080200195,-36.138092041015625,0.017691071982378903,1015.8547875628896
2.845212890625,-0.3824401782665401,-0.8430261839438229,0.0977203695178031,0.0614939928054809,0.1044119298458099,0.0463666208088398,0.0527926830489197,0.0188685938809689,2.09133789937086,-7.494526863098144,-17.84590721130371,-36.218658447265625,0.017744178828443195,1015.8547806634076
2.855281005859375,-0.4101765456497669,-0.8075947320133448,0.0908522373139858,0.0581300482153892,0.1035948917269706,0.056199237704277,0.0535533625502616,0.0198529577391659,2.091840131226652,-7.487334251403809,-17.687091827392578,-36.11077880859375,0.017797281811442207,1015.8547737644275
2.865349853515625,-0.4117995072090998,-0.8254666349209845,0.1527712256103754,0.0587633475661277,0.1291191577911377,0.0715225413441658,0.0543413420650801,0.0209213645557462,2.092460229466508,-7.390546798706055,-17.500768661499023,-36.295989990234375,0.0178503886575065,1015.8547668649455
2.8754189453125,-0.3760744791595265,-0.8663907659836113,0.3223012783199548,0.0642057284712791,0.1759656369686126,0.0838842391967773,0.0551896542787336,0.0223478210984437,2.0932440055397445,-7.413814544677734,-17.65821075439453,-35.990966796875,0.017903496791259216,1015.8547599652962
2.885488037109375,-0.3371220500286668,-0.8922013529360294,0.4416682469785213,0.0753071084618568,0.2169985622167587,0.1034824475646019,0.0561449957083685,0.0241939704063576,2.0941833951406803,-7.272753715515137,-17.856597900390625,-35.756622314453125,0.017956604925011933,1015.854753065647
2.895556884765625,-0.330912966255471,-0.865234873946756,0.4787205050438642,0.0703949704766273,0.2461778670549392,0.1162271574139595,0.0571569394774736,0.0263893710452076,2.095277066104971,-7.551222801208496,-17.825557708740234,-35.49810791015625,0.01800971177107622,1015.854746166165
2.905625,-0.3698994803190231,-0.8208852984800934,0.42234921400249,0.0645911395549774,0.2333475649356842,0.1236797422170639,0.058125644127897,0.0286467826709787,2.096477032277113,-7.584936141967773,-17.898529052734375,-35.752197265625,0.018062814754075236,1015.8547392671849
2.91569384765625,-0.3688478523742407,-0.7906371674716473,0.3319996655136347,0.0356430448591709,0.195459172129631,0.1279514133930206,0.0589073511825841,0.0306050483210034,2.097744306749896,-7.253177642822266,-17.915781021118164,-35.929534912109375,0.01811592160013953,1015.8547323677028
2.925763916015625,-0.3727974667828529,-0.8001889858014881,0.2363993568897247,0.0046526379883289,0.1539079993963241,0.1240158006548881,0.059353184441347,0.0321412097077095,2.099014995486655,-7.156496047973633,-17.827392578125,-35.795745849609375,0.018169034884645947,1015.8547254673844
2.935833251953125,-0.3950373921742662,-0.7725288254596292,0.1986912652641534,-0.0160531494766473,0.1116418689489364,0.1114838719367981,0.0595037153176702,0.0332675276541699,2.100217434437766,-7.151105880737305,-17.726959228515625,-35.877960205078125,0.018222144306087092,1015.8547185675678
2.94590185546875,-0.4013319257412105,-0.6263637201160193,0.2244663425117731,-0.028759092092514,0.0954636931419372,0.0700389593839645,0.0594852888000338,0.0340943907544222,2.1012135986057348,-7.206629753112793,-17.754953384399414,-36.16665649414063,0.018275249864462956,1015.8547116682531
2.955969970703125,-0.7058643962018192,-0.0021827508665621,0.4983095871329307,-0.0266575813293457,0.1345870494842529,0.0325335934758186,0.0593367723436157,0.0352126582416277,2.10167379659105,-7.60902214050293,-17.869525909423828,-35.844207763671875,0.01832835284746197,1015.854704769273
2.9660390625,-0.5106339023834094,-0.7709827650614083,0.3156722155690193,0.0034973910078406,0.1023606583476066,0.070747286081314,0.0593406521079419,0.0362881057944165,2.102203156254836,-7.684456825256348,-17.97011947631836,-35.725433349609375,0.018381460981214688,1015.8546978696238
2.97610791015625,-0.2205035763606428,-1.2172004920378328,0.0794470462024211,0.026785273104906,0.117990143597126,0.089136004447937,0.0596618225546349,0.0372848003862534,2.103037041125576,-7.081135749816895,-17.86180877685547,-36.175811767578125,0.01843456782727898,1015.8546909701417
2.986177001953125,-0.2181675711611285,-0.915852642962709,0.0673749156147241,0.0430087186396122,0.1153482869267463,0.0797366350889206,0.0601639880725282,0.0383779852961375,2.1038927253026083,-7.362430572509766,-17.91303825378418,-35.88189697265625,0.018487675961031694,1015.8546840704925
2.99624609375,-0.2035601864747702,-0.7037905125372111,0.0150397482216358,0.0616283379495143,0.067889504134655,0.0733742266893386,0.0608392235770236,0.0391962211668441,2.104644467726128,-7.326267242431641,-18.004751205444336,-36.010284423828125,0.01854078409478441,1015.8546771708432
3.00631396484375,-0.3817010868696495,-0.6136954502660781,0.0805237355232238,0.0660531818866729,0.0453565008938312,0.056609634310007,0.0616508092657966,0.0396339442527668,2.1052728369099185,-6.888406753540039,-17.90840721130371,-35.9798583984375,0.018593885790094997,1015.8546702720304
3.016383056640625,-0.561484822568111,-0.6439211502470076,0.2016793411642312,0.05680413544178,0.0768973678350448,0.033149354159832,0.0624000433800263,0.0401324632588903,2.105712746635091,-7.181171417236328,-17.818941116333008,-35.908416748046875,0.018646993923847714,1015.8546633723811
3.0264521484375,-0.5948928423795848,-0.7362320619367062,0.2131996830880641,0.0547638833522796,0.1108042076230049,0.011008096858859,0.0630437615759734,0.0410255593618593,2.1059016687641097,-6.898645401000977,-17.742958068847656,-35.452667236328125,0.018700102057600435,1015.8546564727318
3.03652099609375,-0.6348618646744638,-0.91893051603809,0.0967348656117916,0.0700249895453453,0.10952889919281,0.0070531903766095,0.0636715537288161,0.042023503661333,2.105957315988094,-6.942011833190918,-17.892484664916992,-35.8431396484375,0.018753208903664727,1015.8546495732498
3.046590087890625,-0.6519051347382366,-1.2342828520029785,0.0915653540194034,0.0793809443712234,0.1186978965997695,0.0169921070337295,0.0645516527047817,0.0430497032255838,2.106038198228858,-6.972681999206543,-17.776912689208984,-35.88543701171875,0.018806317037417444,1015.8546426736006
3.056658935546875,-0.5879127011686563,-1.4267194407865404,0.2632657365053892,0.0572907328605651,0.1653054654598236,0.0318920351564884,0.0654076818261045,0.0444197090698519,2.106264568429032,-7.022881507873535,-17.912311553955078,-36.291107177734375,0.018859423883481732,1015.8546357741186
3.06672705078125,-0.5116652181925252,-1.3600637793570756,0.3564648292064666,-0.0134082026779651,0.2251411080360412,0.0408743433654308,0.0657509253508647,0.0463410825424549,2.106633290576303,-6.791788101196289,-18.015743255615234,-35.7420654296875,0.018912526866480747,1015.8546288751385
3.0767958984375,-0.3550601865729317,-1.08418888277784,0.1898380967229604,-0.132972240447998,0.2410963028669357,0.0429064892232418,0.065118173998416,0.0486727574269637,2.1070881648383737,-6.759517669677734,-17.988330841064453,-35.95068359375,0.01896563371254504,1015.8546219756565
3.086864990234375,-0.2086313157266005,-0.8092859730359167,-0.3101367932736873,-0.2658077776432037,0.2200117856264114,0.0416446849703788,0.0631782167647327,0.0509391000037064,2.107627941734496,-6.840750694274902,-17.867647171020508,-36.545196533203125,0.019018741846297756,1015.8546150760072
3.096933837890625,-0.1152066706413403,-0.6552709579095244,-0.9352958137750624,-0.3677793443202972,0.1749253273010254,0.0308127701282501,0.0600328068535606,0.0528526877047213,2.1081701263989383,-6.776302337646484,-17.694480895996094,-36.45367431640625,0.019071848692362045,1015.8546081765252
3.107003173828125,-0.085423965187557,-0.5647698721207678,-1.4956576601952314,-0.4172464907169342,0.1085644140839576,0.0137677416205406,0.0560863602072908,0.0542174893420913,2.1086102910108178,-6.863986015319824,-17.47254753112793,-36.236846923828125,0.019124958113803187,1015.8546012767086
3.1170712890625,-0.0300022664885967,-0.4800059782771393,-1.8288427361011503,-0.4057953059673309,0.0891039818525314,0.009252238087356,0.0519369536343909,0.0551330455230298,2.1089550023685115,-6.834056854248047,-17.43622589111328,-36.3612060546875,0.0191780610968022,1015.8545943777285
3.127139892578125,0.0080691420240327,-0.3747012911101803,-1.853465136182308,-0.3570991456508636,0.1453091949224472,0.0232266429811716,0.0481286509167431,0.0562329459089144,2.109318615312578,-6.800082206726074,-17.395803451538086,-36.37887573242188,0.019231166655178066,1015.8545874784138
3.137209228515625,-0.06036788639687,-0.1779494694760069,-1.7867255958616732,-0.2993482053279876,0.2273597866296768,0.034427024424076,0.0448880738564501,0.0580657365847438,2.109805306047756,-6.652292251586914,-17.184307098388672,-36.61492919921875,0.01928427607661921,1015.8545805785973
3.14727783203125,-0.1220357129437848,0.0636188144842162,-1.7979840719789266,-0.2493862509727478,0.2838172018527984,0.0290612876415252,0.0421748629124263,0.0606309041419192,2.1103172219688098,-6.603702545166016,-17.020925521850586,-36.823028564453125,0.019337381634995075,1015.8545736792826
3.15734716796875,-0.1011261593732982,0.2859550496321171,-1.929178841075301,-0.1966695785522461,0.285672664642334,0.0104836076498031,0.0399426258709662,0.0635211837951035,2.1106505183483053,-6.537290573120117,-16.99695587158203,-36.7454833984375,0.01939049105643622,1015.854566779466
3.1674150390625,-0.0046750791389495,0.4683644576590507,-2.1176777981489896,-0.1431464403867721,0.2298269718885421,-0.0144204106181859,0.0382171832013616,0.0661402123326899,2.110732156506832,-6.3590593338012695,-16.627361297607422,-36.702423095703125,0.019443592751746806,1015.8545598806533
3.17748388671875,0.055531844542548,0.6038488137081265,-2.265875724494457,-0.0853398591279983,0.1414240449666977,-0.0403101406991481,0.0370325145026205,0.0680295324923645,2.1105354106332204,-6.369256019592285,-16.77743148803711,-36.491973876953125,0.019496699597811095,1015.8545529811712
3.187552978515625,0.018488573501259,0.7268998777069151,-2.273973106232285,-0.0120997345075011,0.0536073818802833,-0.0769682899117469,0.0364878222807132,0.069016152554194,2.1099859734976283,-6.348306655883789,-16.635990142822266,-36.239105224609375,0.019549807731563812,1015.8545460815219
3.197621826171875,-0.0691759006220847,0.8133515419743955,-2.0601795489043,0.0737707316875457,-0.0265752207487821,-0.1195684820413589,0.0367281519952575,0.0691674410393118,2.1089850558914494,-6.210020065307617,-16.600318908691406,-36.37808227539063,0.019602914577628104,1015.85453918204
3.207691162109375,-0.1792377922534942,0.8591938402168452,-1.6299018799901008,0.1681030988693237,-0.0757286548614502,-0.1580197215080261,0.0378329880695525,0.0686885101805385,2.1075072427061405,-6.266177177429199,-16.690080642700195,-36.7718505859375,0.019656023999069246,1015.8545322822234
3.217759033203125,-0.2630585234954953,0.8148422189235687,-1.0445108062535524,0.2678248584270477,-0.0778309851884841,-0.1894321590662002,0.0399037309189961,0.0679464377414102,2.10561078019821,-6.564513206481934,-16.729753494262695,-36.500762939453125,0.019709125694379836,1015.8545253834105
3.227828125,-0.2954246695712209,0.6549689062230288,-0.4181429944843053,0.3605454564094543,-0.0299345664680004,-0.1986725330352783,0.0429366906388661,0.0674696948695847,2.103428824256938,-6.406661987304688,-16.953611373901367,-36.23187255859375,0.01976223382813255,1015.8545184837612
3.23789697265625,-0.2806006829921156,0.446195040220581,0.134907067617774,0.4295699298381805,0.0495135709643363,-0.1996399462223053,0.0467827719991693,0.0676487647740861,2.10116379109115,-6.380762100219727,-16.97872543334961,-36.64569091796875,0.01981534067419684,1015.8545115842793
3.247966064453125,-0.2287859592765569,0.2981968376982957,0.599552870079875,0.4638616144657135,0.1400666385889053,-0.1794233620166778,0.051166632264478,0.0687312245335865,2.098941191763749,-6.681374549865723,-17.388988494873047,-36.78912353515625,0.01986844880794956,1015.85450468463
3.258034912109375,-0.1394257140859961,0.2011057059947401,0.912213628873229,0.4620168209075928,0.2107437252998352,-0.1447478234767913,0.0557379573551005,0.070614347537332,2.096987232064236,-6.777499198913574,-17.52945327758789,-36.41567993164063,0.01992155565401385,1015.854497785148
3.26810302734375,-0.0334789296232163,0.1582338018652051,1.1077683496773243,0.4289669990539551,0.2500469088554382,-0.1101797297596931,0.0601474470014089,0.0730536010547505,2.095363970718431,-6.79255485534668,-17.83479881286621,-36.44692993164063,0.019974658637012862,1015.8544908861679
3.278171875,0.0787717042241245,0.127721613093093,1.1257815607517958,0.3617684245109558,0.2509753108024597,-0.0714276954531669,0.0640626514437371,0.0756756447085741,2.0941413651817835,-6.623274803161621,-17.963533401489258,-36.46588134765625,0.020027765483077154,1015.854483986686
3.288240966796875,0.2187577556066215,0.1028514487959444,0.9905115050405264,0.2832464575767517,0.218387559056282,-0.0269435830414295,0.067255536133502,0.0781227522799224,2.0933890346528994,-6.348654747009277,-18.061628341674805,-35.93841552734375,0.02008087361682987,1015.8544770870367
3.29831005859375,0.3878141994550824,0.1514685455139726,0.7289215927928686,0.1968082040548324,0.1373838633298874,0.0193521995097398,0.0696552504592799,0.0799496841944347,2.0931623829291297,-6.366381645202637,-18.099470138549805,-35.999359130859375,0.02013398175058259,1015.8544701873874
3.30837890625,0.5452937488868832,0.3085010818306356,0.3923416137516498,0.1191941052675247,0.0168792773038148,0.070800743997097,0.0712525081863706,0.0807044849251709,2.093493970982065,-6.09330940246582,-18.205810546875,-35.782928466796875,0.02018708859664688,1015.8544632879054
3.318447021484375,0.6534774255562573,0.5210954925019293,0.0561380668073892,0.0633870437741279,-0.1071222722530365,0.1163967624306678,0.0722121498815319,0.0801886703057723,2.09436430396605,-6.177070617675781,-18.11913299560547,-36.08697509765625,0.02024019157964589,1015.8544563889253
3.328515869140625,0.6709525842312724,0.7622958929978311,-0.2399760463327169,0.0371975228190422,-0.2170154750347137,0.1501986533403396,0.0727919306388712,0.0784764507464621,2.095651061369273,-6.309000015258789,-17.96754264831543,-36.491973876953125,0.020293298425710184,1015.8544494894433
3.338585205078125,0.670610054403916,0.9745492351464926,-0.5656938550978898,0.0618311576545238,-0.3170941174030304,0.1783781051635742,0.0733954915980915,0.0756607870180228,2.097271802855694,-6.511466979980469,-18.17791175842285,-36.199737548828125,0.020346407847151325,1015.8544425896267
3.34865380859375,0.6762004217568784,1.1709133726373313,-0.820272427278757,0.1271164119243621,-0.3936871588230133,0.1940998136997223,0.0744705794539867,0.0719483056859766,2.0990849442413326,-6.78696346282959,-18.17404556274414,-35.854217529296875,0.02039951340552719,1015.854435690312
3.35872314453125,0.6761427002202719,1.3096528580248354,-0.9286334332764148,0.2168023437261581,-0.4466074705123901,0.2084464132785797,0.0763400543249674,0.0675462875962554,2.101001903714049,-6.952547073364258,-18.31346702575684,-36.310333251953125,0.020452622826968334,1015.8544287904955
3.368791015625,0.6920234293106943,1.3495942616604268,-0.843984142255783,0.314479649066925,-0.4446330070495605,0.2222956418991089,0.0791549639441589,0.0628499807250664,2.102996170883208,-7.163151741027832,-18.2204532623291,-36.11590576171875,0.02050572452227892,1015.8544218916827
3.37885986328125,0.7111818648975342,1.2939917630344628,-0.5358475828886031,0.3811171352863312,-0.3940162360668182,0.244082823395729,0.082804918510554,0.0584196966094387,2.105123511704597,-7.215276718139648,-18.44042015075684,-36.17388916015625,0.020558831368343213,1015.8544149922006
3.38892919921875,0.7276599753592163,1.165876547513902,-0.1495183612942695,0.4121357798576355,-0.3092371821403503,0.2563637197017669,0.0869677125142552,0.0546646386788116,2.107421725137302,-7.156624794006348,-18.607437133789062,-35.8983154296875,0.020611940789784358,1015.8544080923841
3.398997802734375,0.7475361307613552,1.0632493359278887,0.1963338884830474,0.4016720056533813,-0.2171692550182342,0.2803199887275696,0.0912137035026241,0.0517879684164261,2.1099102392608087,-7.576364517211914,-18.58024024963379,-35.8350830078125,0.020665046348160222,1015.8544011930694
3.409067138671875,0.8227432013064623,0.9823763485755772,0.4041097929567098,0.3723830878734588,-0.1071783080697059,0.2988939583301544,0.0952832141878614,0.0498800414315498,2.1126514117356434,-8.041055679321289,-18.83717918395996,-35.859649658203125,0.020718155769601364,1015.8543942932529
3.419135986328125,0.8677830240596085,1.0094573207899928,0.4979121122479438,0.3009964823722839,0.0209179334342479,0.304071694612503,0.0988243130490477,0.0491604537656322,2.115532435068452,-7.743363380432129,-19.041004180908203,-35.41693115234375,0.020771262615665656,1015.8543873937708
3.4292041015625,0.8762903017725795,1.0249316610366106,0.5033271230340004,0.2292780876159668,0.1154513657093048,0.2985850572586059,0.1016370848423014,0.049591273166767,2.1184430089995585,-7.865352630615234,-19.08157157897949,-35.244781494140625,0.02082436559866467,1015.8543804947907
3.43927294921875,0.9020369566433132,1.0382163092192265,0.379444722777605,0.1702193617820739,0.1478306502103805,0.2938260734081268,0.1037812330231607,0.0506611986170674,2.1213363130988028,-7.928312301635742,-19.10950088500977,-35.08819580078125,0.02087747244472896,1015.8543735953087
3.449342041015625,0.8984620938312262,1.0110985851909964,0.27971359795928,0.1359356790781021,0.1543756425380706,0.2845313549041748,0.1054501689061929,0.0518821743308783,2.124180559146317,-7.840465545654297,-19.23139190673828,-35.187164306640625,0.020930580578481676,1015.8543666956595
3.459410888671875,0.8919848606411367,0.9716117203898728,0.3338432475537061,0.1227798461914062,0.1656836420297622,0.2885754108428955,0.1068637225585194,0.0531852668801392,2.127009539026912,-8.162439346313477,-19.18936538696289,-35.484130859375,0.02098368742454597,1015.8543597961775
3.46947998046875,0.9019137686550616,0.8858019342225044,0.4366431122928857,0.1309293955564499,0.1879801452159881,0.268549233675003,0.1082687740296397,0.0546481636821075,2.129755905754549,-8.097464561462402,-19.17129135131836,-35.52459716796875,0.021036795558298686,1015.8543528965282
3.47954833984375,0.8976506313178688,0.7769015606511384,0.5391501315653324,0.1407344788312912,0.2069591581821441,0.2638457715511322,0.1097767386433423,0.0563713389037829,2.132337237500085,-7.965292930603027,-19.06658172607422,-35.528228759765625,0.021089899828986125,1015.8543459973808
3.489616943359375,0.8992464491419494,0.7650565168175846,0.6657914751410484,0.1494171768426895,0.2250385582447052,0.2681933641433716,0.111386325902645,0.0582628401636062,2.134938830522045,-8.165633201599121,-19.205455780029297,-35.77288818359375,0.02114300262758937,1015.8543389868291
3.49968603515625,0.9580690788581968,0.6709652245171368,0.7312853993147611,0.1612097918987274,0.229000374674797,0.274690568447113,0.1131092868426883,0.0602571454978237,2.1376042872941072,-8.070734024047852,-19.47270965576172,-35.3875732421875,0.021196072795597536,1015.8543305569108
3.5097548828125,0.9299775413617491,0.5508405693590641,0.7264373747617006,0.1645323634147644,0.2227078527212143,0.2807151675224304,0.1149251183292908,0.062235332417839,2.140314090939255,-7.974692344665527,-19.253374099731445,-35.641204833984375,0.021249141676837814,1015.8543221271967
3.519823974609375,0.86394074248299,0.5070937090259046,0.6624982788145541,0.1695299446582794,0.1868889778852462,0.2711181342601776,0.1167784862905258,0.0640085031342562,2.143013856603148,-7.897839546203613,-19.111406326293945,-35.4853515625,0.021302211844845983,1015.8543136972784
3.52989208984375,0.7203339433200657,0.5531628748267888,0.5829068557053804,0.1782083809375763,0.1134887933731079,0.2397884279489517,0.1186971548994757,0.0652349122600097,2.145492798346401,-7.963211059570312,-19.182058334350582,-35.099639892578125,0.021355276865782594,1015.8543052681775
3.5399609375,0.4868866411689668,0.5971820492953062,0.6286597220987081,0.1779752075672149,0.0367419011890888,0.1970648318529129,0.1206362549126386,0.0657289601767748,2.1475879135376266,-8.039103507995605,-19.255163192749023,-35.081695556640625,0.021408345747022873,1015.8542968384636
3.55002978515625,0.2866707236208021,0.5370256136920303,0.8074521086722611,0.1648607403039932,-0.0173703338950872,0.1552369594573974,0.1224807021793391,0.0656206206930219,2.1492591348394843,-8.013818740844727,-19.27185440063477,-34.90924072265625,0.02146141462826315,1015.8542884087497
3.56009912109375,0.1881763740558177,0.3672350834153592,1.0089134231716397,0.1378596276044845,-0.0607724860310554,0.1288483291864395,0.1241000821276114,0.0650670206842202,2.1505959571965496,-8.180164337158203,-19.30642890930176,-35.10479736328125,0.021514486083039207,1015.8542799786268
3.57016796875,0.1358005093261599,0.2180484382934868,1.1828244674444195,0.0935254544019699,-0.1076611652970314,0.1131346225738525,0.1253305501084412,0.064060188797295,2.1517313081994187,-8.575433731079102,-19.50120735168457,-34.998443603515625,0.021567554964279485,1015.8542715489128
3.580236083984375,0.1784829918308183,0.1179467265971005,1.3306319331675769,0.0385631173849105,-0.1480316668748855,0.105021633207798,0.1260693758755871,0.0626446072661531,2.1527791342790894,-8.438075065612793,-19.33678436279297,-34.710479736328125,0.0216206199852161,1015.854263119812
3.59030517578125,0.2447926163015887,0.0762222389370202,1.3423340613991022,-0.0264169443398714,-0.1826399862766266,0.1066275238990783,0.1261949543625837,0.0608405088341509,2.153843409674278,-8.323147773742676,-19.445049285888672,-34.79498291015625,0.021673690153224266,1015.8542546898937
3.6003740234375,0.2358435861704871,0.018913813176006,1.2617150488078597,-0.0895513892173767,-0.1856980621814727,0.1117585599422454,0.1256568960123587,0.0588303520994227,2.1549839934992234,-8.352463722229004,-19.32685852050781,-35.136688232421875,0.021726759034464544,1015.8542462601797
3.610443115234375,0.1274414079122245,-0.0622965894371271,1.1520236709892748,-0.1322629004716873,-0.157828614115715,0.1054207757115364,0.1245694019988821,0.0569496819974907,2.156153665948354,-8.458341598510742,-19.23746109008789,-35.451904296875,0.02177982920247271,1015.8542378302612
3.62051171875,-0.0290772605981677,-0.1061194376159459,1.014829953739047,-0.1606842130422592,-0.1133920401334762,0.1061852201819419,0.1231261615419595,0.0554454618158046,2.157306355785084,-8.673108100891113,-19.21813201904297,-35.222412109375,0.0218328967969451,1015.8542294007517
3.630580078125,-0.1209616539714857,-0.0810796158403158,0.9000134879916906,-0.1719890683889389,-0.0625538900494575,0.1024296283721923,0.1214863574535727,0.0544342843984067,2.1584446303706946,-8.910089492797852,-19.399349212646484,-35.101837158203125,0.021885963104649603,1015.8542209714465
3.64064892578125,-0.159326492472738,-0.0617464082084596,0.824429546958208,-0.1951145529747009,-0.0103854369372129,0.1037409231066703,0.119691098647566,0.053935840478363,2.159576572044844,-8.825989723205566,-18.948854446411133,-34.82928466796875,0.02193903198588988,1015.8542125417325
3.650718017578125,-0.15286157077495,-0.0748608874559402,0.7612257795482873,-0.2195242643356323,0.0408194288611412,0.1139991581439971,0.117668180435569,0.0539504596218277,2.1607968109374918,-9.185882568359377,-19.15558624267578,-34.8697509765625,0.02199210215389805,1015.854204111814
3.660787109375,-0.1163149972094222,-0.1009248646475374,0.6422627155154943,-0.2534796893596649,0.0722094103693962,0.1239777952432632,0.1153609618175918,0.0543937839376227,2.162145821025145,-8.963385581970215,-19.31612777709961,-34.897247314453125,0.022045172321906215,1015.8541956818957
3.67085595703125,-0.0798219073968008,-0.0657046443149447,0.4131505930244922,-0.2912523746490478,0.0704021900892257,0.1257344186305999,0.1126788991939727,0.0549787522089397,2.1635562232771366,-9.010946273803713,-18.99903678894043,-35.151580810546875,0.022098241203146494,1015.8541872521818
3.680924072265625,-0.0118942898027598,-0.0525956449601799,0.1648211443662643,-0.3220789432525635,0.0439214371144771,0.123161680996418,0.1096481869959778,0.0554067967605879,2.164983381047451,-8.921992301940918,-18.909040451049805,-35.3173828125,0.02215130622408311,1015.8541788230809
3.690992919921875,0.0703553196649998,-0.0582505289167165,-0.0578811110824346,-0.3237815201282501,0.0287118535488843,0.1248498633503913,0.1064589527012536,0.0556234009552172,2.1664300054340906,-8.80435848236084,-18.5726375579834,-35.053375244140625,0.022204375105323387,1015.854170393367
3.701062255859375,0.1231504692526534,-0.0564653260003775,-0.2259364150643348,-0.3019857406616211,0.0163328945636749,0.1148153766989708,0.1033739041800362,0.0556848996089959,2.167821964972056,-8.926584243774414,-18.699766159057617,-35.105560302734375,0.02225744656009944,1015.8541619632441
3.711130859375,0.141203939272277,-0.1047868007726967,-0.2623778477549552,-0.2624324560165405,0.01522315479815,0.1093500405550003,0.1005988120798404,0.0556898391449638,2.169105449279386,-8.934462547302246,-18.46043968200684,-35.056671142578125,0.02231051415457183,1015.8541535337346
3.7212001953125,0.1331516022525727,-0.2149544178009033,-0.2414203999221325,-0.2136011123657226,0.0144889485090971,0.0962372794747352,0.0982644455906913,0.0557200461753971,2.170296942435521,-8.827260971069336,-18.5651912689209,-35.403045654296875,0.022363585609347886,1015.8541451036118
3.73126806640625,0.0900655073830857,-0.3485916846785694,-0.1935147394090891,-0.1592329442501068,0.0316801890730857,0.0776627957820892,0.0964388983732113,0.0558473082087527,2.1712917829641945,-9.021390914916992,-18.469873428344727,-35.037017822265625,0.02241664934351661,1015.8541366747154
3.7413369140625,0.0933125630129128,-0.4487336553201079,-0.0532692333728075,-0.1103555411100387,0.0346369259059429,0.0555993430316448,0.095132401791835,0.0561058918677232,2.17206143851209,-8.89484691619873,-18.2357234954834,-35.736114501953125,0.02246971822475689,1015.8541282450014
3.75140625,0.1207091405151411,-0.5238089161790908,0.0841729056805372,-0.0730278715491294,0.0269747450947761,0.0420057699084281,0.0942631232938069,0.0563455490221208,2.172596891344869,-8.993021965026855,-18.408132553100582,-35.49468994140625,0.022522789679532945,1015.8541198148786
3.761474853515625,0.1503280702419579,-0.595123728526011,0.2670662978321313,-0.0555327907204628,0.0008260365575551,0.029461408033967,0.0936717753247235,0.056450814545829,2.172991002907512,-9.44090175628662,-18.29121208190918,-35.6676025390625,0.022575857274005337,1015.854111385369
3.771544189453125,0.1239040275663137,-0.7676306050892919,0.386311685937643,-0.0586146041750907,-0.0221141651272773,0.0158401373773813,0.0931226440674329,0.0563034234215685,2.1732439874641667,-9.176772117614746,-18.109357833862305,-35.457061767578125,0.022628928728781392,1015.8541029552463
3.781612060546875,0.0835320504937321,-0.8661512581393123,0.4818161329716444,-0.0766926258802414,-0.0407756082713604,0.002770559862256,0.0924576175382676,0.0559745185616702,2.173372968397667,-8.974263191223145,-18.092947006225582,-35.556732177734375,0.022681992462950117,1015.8540945263499
3.791680908203125,0.060948389698565,-0.9044124536029994,0.516688708910346,-0.0940175503492355,-0.0659414157271385,0.0010584136471152,0.0916042185247527,0.0554471249586995,2.173453033857333,-9.17051124572754,-18.21748924255371,-35.0345458984375,0.022735061344190396,1015.8540860966358
3.80175,-0.004322466308996,-0.9304327377833426,0.5124515097320079,-0.1107129827141761,-0.0843993127346038,0.0027708653360605,0.0906099616231113,0.0546777940133861,2.173516494427499,-9.439838409423828,-18.338298797607425,-35.366424560546875,0.02278813151219856,1015.8540776667174
3.811819091796875,-0.0717040308602154,-0.9514560173939912,0.543580222967267,-0.1454187631607055,-0.0722161456942558,0.0049213678576052,0.0893767301817532,0.0538938159486838,2.1736161050677367,-9.309688568115234,-18.141677856445312,-35.44873046875,0.022841201680206726,1015.8540692367991
3.82188818359375,-0.0932127924328669,-0.9389527288474142,0.5075637376904487,-0.1815313696861267,-0.0490408688783645,0.002600535750389,0.0877920929457651,0.0532839607274819,2.173744679346635,-9.174489974975586,-17.94720458984375,-35.6998291015625,0.022894271848214895,1015.8540608068807
3.8319560546875,-0.0715668143466115,-0.8433421910904347,0.3358142553657293,-0.2145436406135559,-0.0367927253246307,0.0061052558012306,0.0858920487873735,0.0528663257017159,2.1738982919245857,-9.383116722106934,-17.814208984375,-35.651458740234375,0.02294733558238362,1015.8540523779843
3.84202490234375,-0.0161839132880792,-0.7254732059046626,0.147587100970745,-0.228988230228424,-0.0366094149649143,0.0043977904133498,0.083743452443849,0.0525175742642246,2.174069205355121,-9.42049789428711,-17.67268943786621,-35.6466064453125,0.0230004044636239,1015.8540439482703
3.852093994140625,-0.0242034440167248,-0.6517624383319169,-0.0686304686337709,-0.2224674820899963,-0.045659102499485,0.0018744454719126,0.0815783994724214,0.0521186426380264,2.174219346836449,-9.738432884216309,-17.689327239990234,-35.7288818359375,0.023053474631632064,1015.8540355183519
3.8621630859375,-0.0457379610851407,-0.6299965967256576,-0.210799636209011,-0.1941003054380417,-0.0481267049908638,-0.0077751772478222,0.0796105970397218,0.0516644766819807,2.1742946534292646,-9.603549003601074,-17.824464797973633,-35.713836669921875,0.023106544799640232,1015.8540270884336
3.87223193359375,-0.0891684854781255,-0.649785658366233,-0.2978916442066431,-0.1568860858678817,-0.049815148115158,-0.0172653533518314,0.0779843595745915,0.0511863992012346,2.174258381675695,-9.262895584106444,-17.58736228942871,-35.82342529296875,0.02315961368088051,1015.8540186587195
3.882300048828125,-0.1380336752057075,-0.6704827016972005,-0.294124400627613,-0.1083240807056427,-0.0172313321381807,-0.0299046374857425,0.0767857942115923,0.0508530474591911,2.1740983812953742,-9.456547737121582,-17.47381591796875,-35.892333984375,0.023212678701817126,1015.8540102296188
3.892368896484375,-0.1556156187234446,-0.6878621449127793,-0.1925555389881134,-0.0727815330028534,0.0257195979356765,-0.0409234687685966,0.0759878199615149,0.0509188403595374,2.1737761004655347,-9.50261402130127,-17.319053649902344,-35.4681396484375,0.023265747583057404,1015.8540017999047
3.90243798828125,-0.1778412963937967,-0.6835651053059846,-0.111068511390686,-0.0438449271023273,0.0695386454463005,-0.0550405420362949,0.0755396967223211,0.0514155483550235,2.1733330120503997,-9.504098892211914,-17.29439353942871,-35.616790771484375,0.02331881775106557,1015.8539933699864
3.9125068359375,-0.1919305754901841,-0.6759622290868311,-0.0472737923502922,-0.0326878800988197,0.1023344099521637,-0.0714666470885276,0.0752460228103592,0.0523361633778074,2.172734571624985,-9.30928897857666,-17.193443298339844,-35.337371826171875,0.023371886632305848,1015.8539849402724
3.922576171875,-0.1773703178811818,-0.670650605610013,-0.083472063934803,-0.0180522128939628,0.1052519008517265,-0.0973520427942276,0.0750546994591035,0.0534493571342571,2.1719050697844966,-9.244653701782228,-17.402528762817383,-35.646087646484375,0.023424958087081903,1015.8539765101496
3.932642578125,-0.1577250851580873,-0.6957290788955987,-0.1760334432542324,0.0042219357565045,0.0915145203471183,-0.1247810050845146,0.0750149885264537,0.054517510639012,2.1707916454885763,-9.279189109802246,-17.387271881103516,-35.80731201171875,0.0234780141006433,1015.8539680824796
3.942711669921875,-0.1311255763176828,-0.7614860379196703,-0.2439665772736072,0.032910443842411,0.0584446340799331,-0.1515637636184692,0.0752071579276276,0.0553648640628805,2.169396374071692,-9.17311191558838,-17.43117904663086,-36.0936279296875,0.023531084268651466,1015.8539596525612
3.952780517578125,-0.1017683662669733,-0.7942277393095195,-0.2292453934818506,0.0656193867325782,0.0397258065640926,-0.1726434826850891,0.075715099007807,0.0559465059789284,2.1677358123637664,-9.143674850463867,-17.471860885620117,-35.86920166015625,0.023584153149891745,1015.8539512228472
3.962849853515625,-0.0954189241750165,-0.8099302622888237,-0.097228202086687,0.0921128168702125,0.0353253148496151,-0.1896525621414184,0.0765118269237473,0.0564337780416953,2.165856793298935,-9.057433128356934,-17.594640731811523,-35.756744384765625,0.0236372246046678,1015.8539427927244
3.972918701171875,-0.1093635341037064,-0.8501212567713111,0.0156014737576246,0.1079833954572677,0.0381541214883327,-0.2019414603710174,0.0775434950174878,0.0569163853991768,2.163818169674186,-9.12319564819336,-17.619224548339844,-35.89874267578125,0.02369029348590808,1015.8539343630105
3.982986572265625,-0.0798002435542643,-0.8991372896790504,0.1135053831487894,0.1154076606035232,0.0412050671875476,-0.2041584253311157,0.0786674513296147,0.0574493169145823,2.161702185977009,-9.038800239562988,-17.750282287597656,-35.47833251953125,0.023743357220076804,1015.853925934114
3.993055908203125,-0.0335396468345075,-0.940160789462924,0.1395177762836217,0.1195677891373634,0.0450693145394325,-0.1979801505804062,0.0798284421856956,0.0580196271167004,2.1595974575506225,-9.117412567138672,-17.579153060913086,-35.4210205078125,0.02379642867485286,1015.8539175039913
4.00312451171875,-0.0417665001709014,-0.9639614248324184,0.0685392832189798,0.1246393248438835,0.0334119163453578,-0.1891526132822036,0.0810216436140426,0.0585616137685798,2.157570983420805,-9.02553939819336,-17.548381805419922,-35.309173583984375,0.023849496269325247,1015.8539090744816
4.01319384765625,-0.0919874518889933,-1.0207668695073575,-0.064935705769062,0.1376262307167053,0.004632999189198,-0.173007994890213,0.0822981687520676,0.0588686083933027,2.155656544744916,-8.817367553710938,-17.814739227294922,-35.42999267578125,0.023902567724101306,1015.8539006443589
4.023262451171875,-0.1764057471653446,-1.1540177674159406,-0.0889098710745572,0.1470373123884201,-0.0016997312195599,-0.1413328945636749,0.0837299437090231,0.0589853269041903,2.153994283796958,-8.770051002502441,-17.90597152709961,-35.42950439453125,0.023955635318573695,1015.8538922148493
4.03333056640625,-0.2253517835767939,-1.28570704203099,-0.007396539992094,0.1401554346084594,0.0399608947336673,-0.1146855726838111,0.0852298099267359,0.059239774176984,2.1526263371329533,-8.734370231628418,-17.818674087524414,-35.537078857421875,0.02400870033951031,1015.8538837857485
4.043399658203125,-0.1126285637816414,-1.1824863945964723,0.002036474263668,0.0943004786968231,0.0938491746783256,-0.0950447991490364,0.0864826692923886,0.0599932684112999,2.151505983544527,-8.673805236816406,-17.838409423828125,-35.659515380859375,0.024061770507518475,1015.85387535583
4.053468505859375,0.0538501385333016,-0.9524785653747616,-0.2682797652751207,0.0280807167291641,0.1121927574276924,-0.0870361402630806,0.0871887452098439,0.0611241228967385,2.150547881865952,-8.472458839416504,-18.037010192871094,-35.8223876953125,0.024114839388758757,1015.8538669261161
4.063537841796875,0.1708340114476159,-0.7273012981146574,-0.7234767713904381,-0.0448250621557235,0.0847850069403648,-0.084266223013401,0.0871399961745857,0.06218609438766,2.1497083407415736,-8.657574653625488,-17.816362380981445,-35.472991943359375,0.02416791084353481,1015.8538584959933
4.073606689453125,0.1994836577508598,-0.516758340080455,-1.2031214055418968,-0.0982645824551582,0.0147723648697137,-0.0949401706457138,0.0864204048603578,0.0627889640677116,2.1488662598282,-8.626906394958496,-17.807218551635742,-35.432861328125,0.024220979724775084,1015.8538500662794
4.08367431640625,0.1709798496590927,-0.2893215303905308,-1.576664795321226,-0.1281807571649551,-0.0860998034477233,-0.1098375543951988,0.0852398843169599,0.0625291796064204,2.1479109905404474,-8.560596466064453,-17.678394317626953,-35.3367919921875,0.024274042172175925,1015.8538416375874
4.09374365234375,0.1433725520156323,-0.0427688821464777,-1.811525690597296,-0.1259346455335617,-0.1771298348903656,-0.1323838680982589,0.0839024746459728,0.061271617150102,2.1467701819208425,-8.845658302307129,-17.775909423828125,-35.306671142578125,0.024327113626951977,1015.8538332074645
4.103812744140625,0.1919181909326464,0.1243172114770859,-1.8484575371533631,-0.1042009964585304,-0.2280079424381256,-0.1468294709920883,0.0827021035601599,0.0593262962700135,2.1454266329780856,-8.907926559448242,-17.934425354003906,-35.356353759765625,0.024380183794960146,1015.8538247775462
4.113881591796875,0.2265898740043863,0.2452740066103637,-1.8095955993175503,-0.0864944383502006,-0.2194485515356063,-0.1522905528545379,0.0816813646392842,0.0571634776193105,2.1439777266475737,-8.70156478881836,-17.947851181030273,-35.70855712890625,0.024433252676200425,1015.8538163478322
4.12395068359375,0.2060652280982583,0.4003502212274819,-1.80536249179244,-0.0639289394021034,-0.1761805117130279,-0.1645547449588775,0.080859955603018,0.0552761782176688,2.142415686686651,-8.788626670837402,-17.89166831970215,-35.61920166015625,0.024486322844208593,1015.8538079179137
4.1340185546875,0.2050160113062709,0.5928336448274553,-1.8371195660591124,-0.0357369780540466,-0.1149762794375419,-0.1712595224380493,0.080298602731068,0.0539247278533437,2.1407498437649437,-9.087647438049316,-17.968006134033203,-35.432769775390625,0.024539386578377315,1015.8537994890174
4.144087646484375,0.1708041277660056,0.7886499391771853,-1.82757549264431,-0.0071240775287151,-0.0444282330572605,-0.1765265315771103,0.0800016810304153,0.0532892684356926,2.1390201516593685,-8.937108039855957,-17.6478214263916,-35.447998046875,0.024592456746385487,1015.853791059099
4.154156494140625,0.1339169606018811,0.9829247762385755,-1.8153665839344264,0.0104471929371356,0.00894071534276,-0.1900798827409744,0.0799144674656365,0.0532507268490884,2.137181070746009,-8.979418754577637,-17.537372589111328,-35.578216552734375,0.024645525627625762,1015.853782629385
4.1642255859375,0.1218868425250053,1.1358792494613676,-1.7617454683840277,0.0419716723263263,0.0641238018870353,-0.2050950229167938,0.0800700829300585,0.0537786586381048,2.1351747245863173,-8.920387268066406,-17.89206886291504,-35.3587646484375,0.02469859579563393,1015.8537741994667
4.174294677734375,0.1266769994109869,1.183534661540389,-1.6304507460445166,0.0893359929323196,0.1133273020386695,-0.2154973298311233,0.0805977802852645,0.0548539371081027,2.133011064013832,-9.031030654907228,-17.849014282226562,-36.03521728515625,0.024751665963642096,1015.8537657695482
4.184362548828125,0.1214968933593481,1.193714548640698,-1.4247323586225509,0.1554557681083679,0.1447675079107284,-0.2225109487771988,0.0816851993177127,0.0563556199723265,2.130741602388881,-8.762680053710938,-18.004026412963867,-35.808837890625,0.024804729697810824,1015.8537573406519
4.194431640625,0.0715490960268303,1.1867568384572862,-1.128932718259096,0.2331225872039795,0.1552651673555374,-0.227981612086296,0.0834996001014277,0.0580786714173047,2.1283564442533343,-8.576020240783691,-17.960926055908203,-36.07122802734375,0.02485779986581899,1015.8537489107334
4.20450048828125,0.0224067333256825,1.1591721545044331,-0.7627864529937505,0.3072221875190735,0.1504303514957428,-0.2290922403335571,0.0860823756759104,0.0598467271533166,2.1258857813842686,-8.632720947265625,-18.19113540649414,-35.751495361328125,0.024910868747059264,1015.8537404810195
4.21456982421875,-0.0133479957424104,1.11626415614821,-0.3816425250828266,0.3663158714771271,0.1162100583314895,-0.2313740253448486,0.0893336056314003,0.0614284727438166,2.1233552276015457,-8.84171199798584,-18.29166412353516,-35.9285888671875,0.024963940201835323,1015.8537320508967
4.224638427734375,-0.057617491710186,1.0845864307280628,-0.0277174434870481,0.4006223976612091,0.0651971474289894,-0.233072280883789,0.0930463054015171,0.0625832149060186,2.120760184832108,-8.537187576293945,-18.233142852783203,-35.261505126953125,0.02501700779630771,1015.8537236213871
