Timestamp,Acc x (m/s^2),Acc y (m/s^2),Acc z (m/s^2),Gyro x (rad/s),Gyro y (rad/s),Gyro z (rad/s),Beccheggio/Pitch (rad/s),Rollio/Roll (rad/s),Imbardata/Yaw (rad/s),Mag x (microTesla),Mag y (microTesla),Mag z (microTesla),Altitudine (m),Pressione (milliBar)
0.031134521484375,0.0636010961644351,-0.0100219200596213,0.0034071780949831,0.0017506210133433,0.0078306701034307,0.0247449576854705,0.2039566509996476,0.0963815333818702,2.3553347984444577,-16.30941390991211,-21.53385162353516,-30.7056884765625,-0.0060776446954694885,1009.2931520617504
0.041203857421875,0.0133533295046538,-0.0168044198065996,0.0112836105585098,-0.008837841451168,0.0331400223076343,0.0091923642903566,0.2039515671165361,0.0966130683668614,2.355503455865991,-16.417200088500977,-21.215591430664062,-30.779754638671875,-0.006183725133517289,1009.2931643165302
0.051273681640625,-0.0516533956740051,-0.020865677896142,0.0278700037002563,-0.0121654728427529,0.079921655356884,-0.0097424127161502,0.203840315802974,0.0971967645379067,2.355511148061461,-16.583486557006836,-21.87882232666016,-31.0247802734375,-0.006289810715607279,1009.2931765719044
0.061343505859375,-0.060020972655341,-0.0109087858967483,0.0789881965190172,-0.0129369897767901,0.1212717592716217,-0.0250446703284978,0.2036773416480442,0.0982411227631478,2.355346727124211,-16.82823944091797,-22.408599853515625,-30.95687866210937,-0.0063958962976972695,1009.2931888272784
0.071413818359375,-0.0262052853584289,0.0029752164185047,0.1479781461149454,-0.0327410846948623,0.1212752982974052,-0.029820641502738,0.2033779482018343,0.0994877987715592,2.355099207609519,-16.89885902404785,-22.433631896972656,-31.13824462890625,-0.006501987023829451,1009.2932010832468
0.081483642578125,0.0451779891148209,0.0060847267411649,0.1705026971340179,-0.0457913726568222,0.1083645522594451,-0.0220026653259992,0.2029227133822081,0.1006520435878531,2.354870600459561,-16.89999771118164,-22.59019470214844,-31.574249267578125,-0.006608072605919442,1009.293213338621
0.0915537109375,0.1099179531160742,0.0086615914918482,0.2165390566438436,-0.0603199750185012,0.0940540358424186,-0.0137455826625227,0.2023497982364842,0.1017103748290673,2.3547392370100124,-16.594552993774414,-22.67682647705078,-31.11532592773437,-0.0067141607600305275,1009.2932255942922
0.10162255859375,0.126398401665315,0.0538077241636812,0.2535895611435175,-0.0733092725276947,0.0482026562094688,-0.0037504727952182,0.2016909922155253,0.1024772754581674,2.354724703789975,-16.630828857421875,-22.546127319335938,-31.34286499023437,-0.006820236054036138,1009.2932378484777
0.111692626953125,0.1652780943535268,0.1037204867154359,0.1667792926967144,-0.0721175596117973,0.0053490297868847,-0.008820129558444,0.2009677260479178,0.1027152900864996,2.354742679985229,-16.655912399291992,-22.489295959472656,-31.105133056640625,-0.006926324208147224,1009.2932501041489
0.1217626953125,0.182253925204277,0.1146034075185656,0.1160930615544319,-0.0673576965928077,0.0182347353547811,-0.0056938445195555,0.2002939540590275,0.1027881085088729,2.3547672627855647,-16.72977066040039,-22.238243103027344,-31.5311279296875,-0.00703241236225831,1009.2932623598202
0.131832763671875,0.1457937878131866,0.1280963646896183,0.1315846451967954,-0.0702740848064422,0.0127514656633138,0.000256816856563,0.1996582742947719,0.1028946478964784,2.354827315787217,-16.698699951171875,-22.31183624267578,-31.45947265625,-0.007138500516369395,1009.2932746154914
0.14190283203125,0.1061724829774349,0.1416039349079132,0.0280061973005533,-0.0726506859064102,0.00230921106413,0.0024573868140578,0.1989930792944075,0.10286170429538,2.3549284873163865,-16.29483985900879,-22.06200408935547,-31.64569091796875,-0.007244588670480481,1009.2932868711626
0.1519716796875,0.1002237306408584,0.1138897062912583,-0.0189852709770202,-0.0558083206415176,0.0010229041799902,0.0081882439553737,0.1983983515723002,0.1028142074022552,2.3550579470167627,-16.558475494384766,-22.44940948486328,-31.527069091796875,-0.007350663964486091,1009.2932991253482
0.162041748046875,0.1254871320392936,0.1040655007608234,-0.0381610960900783,-0.0361384823918342,0.0054077985696494,0.0086167454719543,0.1979991004579503,0.102855521687791,2.355181525085131,-16.682531356811523,-22.25617218017578,-31.180084228515625,-0.007456752118597177,1009.2933113810194
0.17211181640625,0.1254867667131126,0.136988257806003,-0.0307990428894758,-0.0229104422032833,0.0027209655381739,0.0074415556155145,0.1977814791707767,0.1029449325784171,2.355261777809195,-16.703834533691406,-22.370704650878903,-31.05828857421875,-0.007562840272708262,1009.2933236366907
0.182181396484375,0.1538211730547249,0.1403666481979191,0.0386766443967819,-0.0268812179565429,0.0237434264272451,0.0198502875864505,0.1975726030327975,0.1031541056143566,2.3553922359751023,-16.731618881225586,-22.38568878173828,-31.170135498046875,-0.007668923282777159,1009.2933358917677
0.192251708984375,0.1792114887684583,0.1516373992748558,0.1034919386565685,-0.0425364300608634,0.0281199738383293,0.0369824804365634,0.1972352432745357,0.1034806649559386,2.355692801288994,-16.713024139404297,-22.5072021484375,-31.149688720703125,-0.00777501400890934,1009.2933481477361
0.20232177734375,0.1636806690942496,0.1273399933643639,0.1282037705868482,-0.0639277398586273,0.0226317308843135,0.0555308647453784,0.1966848158655867,0.1037631707284163,2.356208133924805,-16.799175262451172,-22.24134063720703,-31.12924194335937,-0.007881102163020424,1009.2933604034073
0.212390869140625,0.1446600345429033,0.0970842635713517,0.1469943957746028,-0.0751566886901855,0.0208918899297714,0.0618247091770172,0.1959972688355568,0.1039383640025031,2.3568720351980423,-16.76700782775879,-22.20063018798828,-31.1796875,-0.00798718002904713,1009.29337265789
0.222460693359375,0.0887595758836716,0.0778131613902747,0.1174894843488931,-0.0766637697815895,0.0165759697556495,0.057713858783245,0.1952383949126677,0.1040567455194211,2.3575573984341363,-16.744905471801758,-22.255027770996094,-31.31747436523437,-0.00809326561113712,1009.293384913264
0.232530517578125,0.0189387284215539,0.0691148911498487,0.0842354495227336,-0.0826684311032295,0.0046980665065348,0.0518025644123554,0.1944431801408506,0.1040966345484716,2.35818865650724,-16.946794509887695,-22.23162078857422,-31.400604248046875,-0.008199351193227112,1009.2933971686382
0.242600830078125,-0.0193842071667313,0.0292896612398326,0.0416027609765529,-0.0879271104931831,-0.0098941922187805,0.045631755143404,0.1935856406562251,0.1040494047866003,2.358763612111837,-16.713735580444336,-21.97834014892578,-31.29452514648437,-0.008305441919359292,1009.2934094246066
0.2526708984375,-0.0435155357953161,-0.0258504805713892,-0.0256873989641666,-0.0954672843217849,-0.0240012854337692,0.0336404778063297,0.1926296096339846,0.1038464663569055,2.359265061968941,-16.779050827026367,-22.03577423095703,-31.19683837890625,-0.008411530073470378,1009.2934216802778
0.26274072265625,-0.0607004062868654,-0.0341300870083272,-0.0996329251408576,-0.1003184989094734,-0.0176150240004062,0.0167424567043781,0.1916140356211371,0.1036671551793455,2.359613509864092,-16.624895095825195,-21.959190368652344,-31.17877197265625,-0.008517615655560369,1009.2934339356518
0.272809814453125,-0.0399701913386583,0.0214298876501619,-0.1419780289173126,-0.1000445857644081,0.006042611785233,0.0168263148516416,0.1905618203313683,0.103668844835188,2.359851111248825,-16.758874893188477,-21.81682586669922,-31.39779663085937,-0.008623693521587074,1009.2934461901345
0.282879638671875,-0.0164545103903859,0.0681904697813093,-0.1788075841426849,-0.0809100419282913,0.0226966887712478,0.0307400003075599,0.1896526965663955,0.1038669958964462,2.360166641216733,-16.61145782470703,-21.71109771728516,-31.606658935546875,-0.008729779103677063,1009.2934584455087
0.29294970703125,0.029362580345571,0.0925347835734486,-0.2283066513270139,-0.0537073239684104,0.0241760984063148,0.0385950244963169,0.1890108418670577,0.1041167797351874,2.3605735871059705,-16.8560791015625,-21.755104064941406,-31.75741577148437,-0.008835867257788151,1009.2934707011799
0.30302001953125,0.0872169495515525,0.0831638747684657,-0.2274216851860284,-0.0320297256112098,0.0328295081853866,0.0464968904852867,0.1886283050457475,0.1043804518829179,2.3610453577033663,-16.668561935424805,-21.692855834960938,-31.94622802734375,-0.008941957983920331,1009.2934829571483
0.313089599609375,0.0831196703005582,0.0372452964194119,-0.1494850435465574,-0.0242000818252563,0.0351436398923397,0.0595585852861404,0.1884129276927273,0.1046476245000816,2.3616005775996607,-16.632604598999023,-21.65338134765625,-31.694976806640625,-0.009048040993989226,1009.2934952122253
0.32315869140625,0.0447237425412982,-0.0224622994378209,-0.0594359393090009,-0.040634449571371,0.0172586515545845,0.0691369101405143,0.1881952462426538,0.1047774810882568,2.3622888469242502,-16.710615158081055,-21.47201538085937,-31.532867431640625,-0.009154118860015933,1009.293507466708
0.333228759765625,-0.0027965719159692,-0.0383121949985623,0.0328910467326641,-0.0643234923481941,0.0141139039769768,0.065580353140831,0.1877926193397817,0.1047626989933435,2.363040080421906,-16.92035484313965,-21.43403625488281,-31.803955078125,-0.009260207014127018,1009.2935197223792
0.343298583984375,-0.0409076183192431,-0.054381578528881,0.1353460435569286,-0.0990678891539573,0.0138337397947907,0.0607709512114524,0.1870876925993035,0.1047437869746941,2.3637743564823723,-16.82444190979004,-21.37345123291016,-31.66119384765625,-0.00936629259621701,1009.2935319777533
0.35336865234375,-0.0410753761015832,-0.0901652779631316,0.164782565921545,-0.1285253763198852,-0.0006706612184643,0.0591636821627616,0.1859986114431116,0.1046616245664848,2.3645133821859816,-16.859844207763672,-21.49712371826172,-32.252716064453125,-0.009472380750328094,1009.2935442334245
0.363438720703125,-0.0240204156000167,-0.07587766328305,0.0903045403033494,-0.1459829211235046,-0.0242753215134143,0.0605320110917091,0.1846399253697276,0.1043699273205225,2.3652744909029706,-16.81324577331543,-21.36901092529297,-32.21136474609375,-0.009578468904439181,1009.2935564890957
0.3735087890625,-0.0351848567582666,-0.049013183363527,0.0209556942671537,-0.1441971510648727,-0.0427475124597549,0.0615557990968227,0.1831892089244277,0.103883080312886,2.3660496005298897,-16.811935424804688,-21.36492156982422,-31.826324462890625,-0.009684557058550267,1009.293568744767
0.38357763671875,-0.0370649714164435,-9.26467195153e-05,4.90998387336e-05,-0.1189652979373931,-0.054086185991764,0.0589850507676601,0.1818846910272017,0.1033052467625425,2.366799294965731,-17.012428283691406,-21.52256774902344,-31.5419921875,-0.009790632352555877,1009.2935809989526
0.39364794921875,-0.0408899365320801,0.0345839682556688,-0.0135755208879709,-0.0886000916361808,-0.066832311451435,0.0574809536337852,0.1809032579923503,0.1026403753944697,2.367471533507109,-16.782608032226562,-21.355926513671875,-31.54046630859375,-0.009896723078688057,1009.2935932549209
0.4037177734375,-0.0667126523137092,0.0533984127104282,-0.0110024555295705,-0.0544192194938659,-0.0787233188748359,0.0505775101482868,0.1803097146521934,0.1018429085706962,2.368090724205704,-16.672605514526367,-21.077903747558597,-31.266387939453125,-0.010002808660778049,1009.293605510295
0.413787841796875,-0.0759641725227236,0.0815698835752904,0.0256798001796007,-0.0305293202400207,-0.1045970097184181,0.0379186794161796,0.1800036310113531,0.1008367789387328,2.3685851338070387,-16.618757247924805,-21.22749328613281,-31.217193603515625,-0.010108896814889134,1009.2936177659662
0.42385791015625,-0.0163011464595794,0.0907369403712451,0.0521755929172039,-0.0164521187543869,-0.1279792934656143,0.032779574394226,0.1799146192159791,0.0995925610447751,2.3689673064202603,-16.708574295043945,-21.482215881347656,-31.454498291015625,-0.01021498496900022,1009.2936300216375
0.4339267578125,0.0391280414260923,0.066744801017642,0.0364431862562894,-0.0070857806131243,-0.1445521563291549,0.0408553443849086,0.179940436850661,0.0981525934522587,2.369349742153857,-16.973709106445312,-21.397056579589844,-31.52401733398437,-0.01032106026300583,1009.2936422758231
0.4439970703125,0.0394971669994294,0.0461921345934271,0.0114046065896749,-0.0051352819427847,-0.1458626985549926,0.0403197854757308,0.1800125783367801,0.0966350438323328,2.369756702666908,-16.99877166748047,-21.40418243408203,-31.59527587890625,-0.01042715098913801,1009.2936545317915
0.45406689453125,-0.00410064025186,0.0646200639486312,0.0167167415231466,-0.0131913227960467,-0.1146899089217186,0.0370453298091888,0.1800149132373821,0.095253914535259,2.3701652733303424,-17.250661849975586,-21.32899475097656,-31.557830810546875,-0.010533236571228,1009.2936667871655
0.46413671875,-0.0571301465846598,0.0469391535684466,0.0394061277151107,-0.0262882150709629,-0.0713371038436889,0.0347134657204151,0.1798728595082051,0.0942759874996549,2.370538311185097,-17.259531021118164,-21.271018981933597,-31.306304931640625,-0.010603073759614947,1009.2936732778418
0.474206787109375,-0.0930249051779508,0.0670450991384685,0.0167921448469162,-0.0494024083018302,-0.0098804971203207,0.0283560492098331,0.1795218313844647,0.0938163319863229,2.3708949704744624,-17.29017448425293,-21.277359008789062,-31.49005126953125,-0.010656201072981123,1009.2936771109813
0.48427685546875,-0.1037928212992846,0.0711652478083968,0.0479389782607555,-0.0743719413876533,0.047842189669609,0.025565855205059,0.1789098272122267,0.0939766047879215,2.371217025853793,-17.52492332458496,-21.41905212402344,-31.734100341796875,-0.010709328386347299,1009.2936809441208
0.494345947265625,-0.0800616709694266,0.0620015520133078,0.0855015239357948,-0.0970098376274108,0.0692992135882377,0.0189187470823526,0.1780223357870654,0.0945129342257076,2.371523470260466,-17.068302154541016,-21.25096893310547,-31.328643798828125,-0.010762450547599299,1009.2936847768885
0.504415771484375,-0.0301036810364574,0.0360182388424873,0.0679413173258304,-0.1113608106970787,0.048940148204565,0.0191155541688203,0.1769582189862585,0.0951042877194739,2.371821924063761,-17.080970764160156,-21.313491821289062,-31.452850341796875,-0.010815576572936931,1009.2936886099351
0.51448583984375,0.0217461870577186,0.0132673317216336,0.0188841486901044,-0.1021049171686172,-0.0027061770670115,0.0209658406674861,0.1758726359067688,0.0953115148618169,2.3721360574942687,-16.97953224182129,-21.207008361816406,-31.284576416015625,-0.010868703886303108,1009.2936924430746
0.5245556640625,0.0594436111588031,-0.0110289051450788,-0.0641372488677501,-0.0818811431527137,-0.0446565560996532,0.0221903622150421,0.174952661284859,0.0950324859680748,2.3724517314337974,-17.127304077148438,-21.142990112304688,-31.617828369140625,-0.01092182991164074,1009.2936962761212
0.5346259765625,0.0566468200471252,-0.000120265378803,-0.1093652146041393,-0.0539576783776283,-0.0803483948111534,0.0236523896455764,0.1742848580710592,0.0943472266171295,2.3727535628027647,-17.011320114135742,-21.11212158203125,-31.54339599609375,-0.010974958513035461,1009.2937001093536
0.544696044921875,0.0453835946895182,0.0336347047068178,-0.1492903977572917,-0.0362971946597099,-0.0766745656728744,0.0169172547757625,0.1738600154188612,0.0934573842347856,2.373002309030994,-17.126384735107422,-21.06280517578125,-31.677276611328125,-0.011028085826401638,1009.293703942493
0.5547646484375,0.0151957425009459,0.0245678934149444,-0.1449590905547142,-0.0339539870619773,-0.0469489470124244,0.0146289579570293,0.1735410000113526,0.0927323872126409,2.373199082750271,-16.977787017822266,-20.943679809570312,-31.563232421875,-0.011081205411596549,1009.293707775075
0.5648349609375,-0.0222827781524509,0.0036054771460592,-0.104846860396862,-0.0381724350154399,-0.0099880015477538,0.0079596024006605,0.1731833550430701,0.0923914938641207,2.3733585252046017,-17.30914878845215,-21.150421142578125,-31.89071655273437,-0.011134334012991269,1009.2937116083074
0.57490478515625,-0.0379111399170011,0.004654109416157,-0.1220621990919113,-0.0501300357282161,0.0235888920724391,-0.0012988296803086,0.1727342673347564,0.092406635306648,2.373426749450616,-17.05963706970215,-20.736671447753903,-31.4368896484375,-0.011187460038328902,1009.2937154413539
0.584974609375,-0.0104473789300769,0.0141182494625449,-0.0920709654539823,-0.0608367435634136,0.0712139382958412,-0.0043931566178798,0.1721804935727887,0.0928715541206327,2.3734430874281145,-16.90340232849121,-21.10702514648437,-31.23150634765625,-0.011240586063666534,1009.2937192744005
0.595044921875,0.0037128099780529,0.0213711432002484,-0.0229155961632728,-0.071018137037754,0.0884802564978599,0.0048200176097452,0.171537328188171,0.0937068233845477,2.3734943403546755,-17.088367462158203,-21.179351806640625,-31.406402587890625,-0.011293714665061256,1009.2937231076329
0.60511474609375,0.0261433260381221,0.0091352003529667,-0.0261526783883571,-0.0718801990151405,0.0883652046322822,0.0044538327492773,0.1708285518690334,0.0946145086875741,2.3736167706803406,-16.69341278076172,-21.034278869628903,-31.587371826171875,-0.011346840690398888,1009.2937269406796
0.615183837890625,0.0286920606728643,0.0140527830109,-0.0214291569977998,-0.0690631419420242,0.0795664638280868,-0.0002297270111739,0.1701296824968702,0.095457969038755,2.373704886047964,-16.840662002563477,-21.17681121826172,-31.855010986328125,-0.011399962851650887,1009.2937307734472
0.625253662109375,0.0146973645247519,0.0047132922574877,-0.0035270050823688,-0.0612603425979614,0.0642213299870491,-0.0077275903895497,0.169473067901044,0.0962018359347666,2.3737239905275263,-16.995027542114258,-21.09406280517578,-31.7548828125,-0.01145308887698852,1009.2937346064938
0.63532373046875,-0.0075248425468802,0.009042407502979,-0.0224292739510536,-0.0522430203855037,0.0293685458600521,-0.0130533650517463,0.1688837729733471,0.0966509962502044,2.3736839839716657,-16.902555465698242,-21.00652313232422,-31.86044311523437,-0.011506216190354695,1009.2937384396333
0.645393798828125,0.0111832189239561,0.0146292677246034,-0.0375923562914133,-0.0451206602156162,0.0009795152582228,-0.0053951782174408,0.1684091205643203,0.096736106620785,2.3736405668764404,-16.805217742919922,-21.000755310058597,-31.8216552734375,-0.011559343503720872,1009.2937422727729
0.6554638671875,0.0366850321881473,0.0256355226464569,0.0318371537655591,-0.0437451526522636,-0.0328956022858619,0.0101614575833082,0.1679843142671008,0.0965203690347761,2.3737184129747426,-16.731809616088867,-21.060806274414062,-31.662750244140625,-0.011612470817087049,1009.2937461059123
0.665533935546875,0.0681129475656896,0.0500951333813369,0.0637555560737848,-0.0407781228423118,-0.0836027190089225,0.0215605851262807,0.1675890413627975,0.0958760253253801,2.3739379889384487,-16.769927978515625,-21.19507598876953,-31.846435546875,-0.011665598130453226,1009.2937499390518
0.675602783203125,0.0711255003198981,0.0384305606812238,0.0114835170447826,-0.0382753610610961,-0.1156481429934501,0.0202740281820297,0.1672183948548765,0.0947953368928644,2.3742009129503523,-16.881052017211914,-21.221893310546875,-32.05072021484375,-0.011718719003676681,1009.2937537717266
0.6856728515625,0.0283139480754733,0.012171937700361,-0.0023316578179597,-0.0426165759563446,-0.0971535518765449,0.011519419029355,0.1668550379115701,0.0936875605193039,2.3743962572109254,-17.107440948486328,-21.009841918945312,-31.92596435546875,-0.011771846317042858,1009.2937576048662
0.695742919921875,-0.0390126714181154,0.0310284677311778,0.0633586657106876,-0.0601297616958618,-0.0545446202158927,0.0098809329792857,0.1663601235994347,0.0929172114200908,2.3745534236090986,-16.90504264831543,-20.690895080566406,-31.6689453125,-0.011824973630409033,1009.2937614380056
0.7058125,-0.1141223460033536,0.0657080053158104,0.0840489870399236,-0.0767721161246299,-0.0257007181644439,0.0125398337841033,0.165722034171792,0.0925179384297431,2.37474384253333,-16.945585250854492,-20.719970703125,-31.945831298828125,-0.011878098367718122,1009.2937652709593
0.7158828125,-0.119641986207664,0.0978996716074645,0.0608276859283447,-0.0866950005292892,-0.0121855549514293,0.0122935362160205,0.1649196338038514,0.0923173405188609,2.374938192341062,-17.140993118286133,-20.815460205078125,-31.771270751953125,-0.011931226969112843,1009.2937691041917
0.725951904296875,-0.0603133066654205,0.0938895591832697,0.0274988323003053,-0.0880375057458877,-0.0242289006710052,0.0081746932119131,0.1640565531607093,0.0921412599444838,2.375123345378265,-17.20180320739746,-20.692123413085938,-31.75994873046875,-0.011984349130364842,1009.2937729369595
0.73602197265625,0.0094166476428508,0.0848744780786335,-0.0352566068202257,-0.0736791118979454,-0.0550642162561416,0.0098896883428096,0.1632640131706044,0.0917720942424906,2.375279323267152,-17.426197052001953,-20.51871490478516,-31.233917236328125,-0.012037476443731019,1009.2937767700989
0.746091796875,0.0451619878280907,0.0941894189126789,-0.0920966844171285,-0.0493167750537395,-0.0820028856396675,0.0134870875626802,0.1626648019504268,0.091128260446647,2.3754346400711874,-17.186553955078125,-20.71136474609375,-31.509979248046875,-0.012090602469068651,1009.2937806031455
0.75616162109375,0.050694049122557,0.1232899873211979,-0.1011053357809782,-0.0269389636814594,-0.1009969785809516,0.0178929753601551,0.1623164875108091,0.0902540640754448,2.3756304087131714,-17.105052947998047,-20.567123413085938,-31.333953857421875,-0.012143728494406283,1009.293784436192
0.76623193359375,0.0417003761321306,0.1048227488689124,-0.1277367375969886,-0.025226816534996,-0.1304624676704406,0.0218685418367385,0.1621090913766372,0.0890727827741938,2.375855526713189,-16.978723526000977,-20.699447631835938,-31.53964233398437,-0.012196857095801004,1009.2937882694245
0.776302001953125,0.0396411785800009,0.0754646985679864,-0.1671364355713128,-0.0265876799821853,-0.105884164571762,0.0307512190192937,0.1618741705348396,0.0878083981774958,2.376142385628017,-17.28581428527832,-20.39348602294922,-31.706451416015625,-0.012249984409167181,1009.293792102564
0.78637060546875,-0.0055699090868234,0.0688625238239765,-0.0804541774183511,-0.0262119062244892,-0.0506840199232101,0.0336996018886566,0.1616403847854574,0.0869535900607988,2.37650716350353,-17.278377532958984,-20.280906677246094,-31.46664428710937,-0.012303103994362092,1009.2937959351459
0.79644091796875,-0.052090033525601,0.1379864750631153,-0.0793687202692031,-0.0179645270109176,-0.0407431945204734,0.0237930044531822,0.1614075989513698,0.0864519327850522,2.376827534577761,-17.409584045410156,-20.651268005371094,-31.80999755859375,-0.012356232595756814,1009.2937997683783
0.8065107421875,-0.0176619134187698,0.1679590040005743,-0.1719043806254863,0.0010174196213483,-0.0319664813578128,0.013300416059792,0.1612885552645425,0.0860300952977725,2.3770187247840844,-17.314085006713867,-20.38660430908203,-31.62411499023437,-0.012409358621094446,1009.2938036014249
0.816580810546875,0.0537635196957737,0.0975529039964079,-0.1294973175287246,0.0203041713684797,0.0141008738428354,0.0213434118777513,0.1613889004019913,0.0859489150043348,2.377181440736636,-17.146448135375977,-20.573143005371094,-31.837921142578125,-0.012462485934460622,1009.2938074345644
0.826651123046875,0.0827145235657692,0.0801898273937404,-0.0132850135087966,0.0222962163388729,0.0215212386101484,0.0282085090875625,0.1615893384545909,0.0861771353852192,2.377415495586337,-17.07539939880371,-20.39537811279297,-31.92950439453125,-0.012515614535855344,1009.2938112677969
0.836720703125,0.0611367518775165,0.0780843795470893,0.0122276134103536,0.0059165712445974,0.0016098548658192,0.033166266977787,0.1616810057859257,0.0862746347178877,2.377711754108355,-17.18255615234375,-20.61705780029297,-31.8106689453125,-0.012568739273164431,1009.2938151007504
0.846789794921875,0.0493248796612024,-0.0053811085164546,0.0657154579699039,-0.0134195769205689,0.0126798171550035,0.0361897535622119,0.1616225164804471,0.0863038701573719,2.3780765012475125,-17.384042739868164,-20.686012268066406,-31.985992431640625,-0.012621861434416431,1009.2938189335182
0.85685986328125,0.0240169084686785,-0.0439363184906542,0.1350882694035768,-0.0377526357769966,0.0041548199951648,0.0310946851968765,0.1613340759839488,0.0863793838865039,2.3784582494340056,-17.258893966674805,-20.734527587890625,-31.97222900390625,-0.012674988747782607,1009.2938227666577
0.8669296875,-0.0051768181160092,-0.0358674321949481,0.0956476548969745,-0.0618555694818496,-0.0329826958477497,0.0225613862276077,0.1608227436957844,0.0861874893559217,2.378774462158708,-17.242334365844727,-20.60780334472656,-31.757232666015625,-0.01272811477312024,1009.2938265997043
0.876999755859375,0.0130924866113811,-0.075509268362075,-0.0090519059836864,-0.0616719312965869,-0.0512682572007179,0.0159502923488616,0.1601129371666107,0.085664197736753,2.3790077047919844,-17.227087020874023,-20.582176208496094,-31.5098876953125,-0.012781242086486417,1009.2938304328437
0.88706982421875,0.0515958933331072,-0.089467066565901,-0.0772206023246049,-0.0440636426210403,-0.0401897728443145,0.0163811910897493,0.1594749810027305,0.085154192234905,2.3792183067365267,-17.08742332458496,-20.497901916503903,-31.71026611328125,-0.012834369399852594,1009.2938342659833
0.897139892578125,0.0574392125338315,-0.0452092610359191,-0.1115408050775527,-0.0115299429744482,-0.0452790521085262,0.0244540777057409,0.1591468146566014,0.0847456441484838,2.3794594681253125,-17.227130889892578,-20.583480834960938,-31.811798095703125,-0.012887496713218769,1009.2938380991227
0.9072099609375,0.0489887795746326,0.0003518821775913,-0.1786117693096399,0.020611748099327,-0.0779754817485809,0.0205179266631603,0.1591850913178552,0.0841641408052026,2.37967068201134,-17.274436950683594,-20.72943115234375,-32.033660888671875,-0.012940624026584946,1009.2938419322622
0.91727880859375,0.1010100587129592,-0.0412432800143957,-0.2346352698266506,0.0429558306932449,-0.0974512323737144,0.0265743769705295,0.159494622708629,0.0832742638312552,2.3798615720641694,-17.368864059448242,-20.67573547363281,-32.039093017578125,-0.012993744899808401,1009.293845764937
0.927348876953125,0.1446340963840484,-0.1160939383372664,-0.1967301943242549,0.0537714585661888,-0.0750143676996231,0.0313981622457504,0.1600168215819335,0.0823890093341775,2.380091775559115,-17.562938690185547,-20.624420166015625,-31.571929931640625,-0.013046872213174578,1009.2938495980766
0.937418701171875,0.049377778892219,-0.134245827230066,-0.129722358456254,0.0433825179934501,-0.0282887779176235,0.0244518853724002,0.1605839999732323,0.0818782374602492,2.3803418423732285,-17.74626350402832,-20.735641479492188,-31.7330322265625,-0.01309999823851221,1009.2938534311231
0.947489013671875,-0.0736971043735742,-0.1003840357691049,-0.0400151995241642,0.0144358230754733,0.0193818043917417,0.0081062018871307,0.1609285866842172,0.0818593445245555,2.3804720560493213,-17.67566680908203,-20.793800354003903,-31.5831298828125,-0.013153126839906932,1009.2938572643556
0.957558837890625,-0.0980064929828047,-0.0876540257945656,0.0096375969171524,-0.013200044631958,0.0248987693339586,-2.79694795608e-05,0.1609915493969588,0.0821464416223042,2.380519212553252,-17.608253479003906,-20.539291381835938,-31.56109619140625,-0.013206252865244563,1009.2938610974021
0.967628662109375,-0.0341276758555322,-0.1182183831453323,-0.0447322911739349,-0.032407559454441,-0.0170580018311738,-0.0006162617355585,0.1607866194134277,0.0822384659554269,2.380530995624623,-17.420644760131836,-20.85216522216797,-31.5262451171875,-0.013259378890582197,1009.2938649304486
0.977697998046875,0.032125103861466,-0.1218998481370508,-0.1308627606630325,-0.0207356326282024,-0.0512243956327438,0.006067409645766,0.1605299834012266,0.0819131411941951,2.380573534079125,-17.464696884155273,-20.73863220214844,-31.876373291015625,-0.013312502339862739,1009.2938687633094
0.987767578125,0.069577321029827,-0.0806499922513961,-0.1929623662233352,0.0120390895754098,-0.0718686804175376,0.0039808223955333,0.1604475080090167,0.0813182593686241,2.3806206074321805,-17.409204483032227,-20.62908935546875,-32.040557861328125,-0.013365627077171828,1009.293872596263
0.997837646484375,0.0709465635564178,0.0128929454512894,-0.2313122628837823,0.0437616668641567,-0.0762108638882637,0.010763581842184,0.1607277708493175,0.0806217308189572,2.3806443132082795,-17.443439483642578,-20.58910369873047,-31.546905517578125,-0.013418754390538004,1009.2938764294025
1.007907958984375,0.0607991904862225,0.0718828945584595,-0.2308504905909299,0.0653857365250587,-0.0611075386404991,0.0215350035578012,0.1613340370697429,0.0799598694470806,2.380748218127957,-17.366270065307617,-20.66129302978516,-31.501617431640625,-0.013471882991932724,1009.293880262635
1.017977783203125,0.0370458283245563,0.0862720699168741,-0.1910042178928852,0.0755691677331924,-0.0339809097349643,0.0331523865461349,0.1621095527313057,0.079485140260434,2.380966621601942,-17.398744583129883,-20.70159912109375,-31.584716796875,-0.013525009017270356,1009.2938840956815
1.0280478515625,0.0026276450898498,0.0911086962930858,-0.1534603769183158,0.0795013234019279,-0.0123493839055299,0.0402443818747997,0.1629340502978634,0.0791703107081369,2.38130368895716,-17.52303123474121,-20.87792205810547,-31.85409545898437,-0.013578136330636533,1009.2938879288209
1.03811669921875,0.0135517016209661,0.0856431243635714,-0.088071082162857,0.0789631903171539,0.0310450382530689,0.0469594337046146,0.1637919452235076,0.0791504467299053,2.381683819470431,-17.205642700195312,-20.575401306152344,-31.6719970703125,-0.013631257203859989,1009.2938917614958
1.048186767578125,0.0134238374575972,0.0792702283307909,0.0466010076552629,0.073508508503437,0.0625808611512184,0.0485432147979736,0.1646180478274831,0.0795779995383047,2.382106623536976,-17.568477630615234,-20.53504943847656,-31.87640380859375,-0.013684384517226166,1009.2938955946353
1.058257080078125,-0.0189035840429365,0.0578176904574036,0.1413707106739282,0.0589528679847717,0.0565938167273998,0.0544874221086502,0.1653394403011787,0.0801468501871955,2.3825882479149207,-17.52288246154785,-20.71595001220703,-31.70907592773437,-0.013737513118620887,1009.2938994278677
1.068326904296875,-0.0277667625214904,0.0031995266936719,0.1825239743173122,0.039464920759201,0.0357063822448253,0.0510167889297008,0.1658808682596936,0.0805612626447069,2.383084395745632,-17.51336669921875,-20.74037170410156,-31.685943603515625,-0.013790639143958519,1009.2939032609142
1.078396728515625,-0.0533422986090183,-0.0633669951476156,0.261070856809616,0.0170195251703262,0.0237306989729404,0.0371460281312465,0.1661307261055341,0.080827226166642,2.383517908723808,-17.607515335083008,-20.629074096679688,-31.9022216796875,-0.013843765169296151,1009.2939070939609
1.088466796875,-0.0714464759025722,-0.0580078062020242,0.3125175509303808,-0.0109788198024034,0.0101440493017435,0.0176452975720167,0.1660814326143626,0.0809660591176961,2.3838090697785983,-17.710756301879883,-20.583160400390625,-31.96044921875,-0.013896892482662328,1009.2939109271003
1.098535888671875,-0.0662622781977057,-0.0444756860643625,0.2636228793799877,-0.0278695933520793,-0.0158922057598829,0.0017033503390848,0.1658096423269509,0.0809057830883103,2.383914364509256,-17.7484130859375,-20.539772033691406,-31.997833251953125,-0.013950014643914328,1009.2939147598681
1.108605712890625,0.0091111618902534,-0.0123116384319961,0.1759188769638538,-0.0215262100100517,-0.0274226274341344,-0.0020634247921407,0.1654684534528003,0.0806729066220453,2.383927217333063,-17.581222534179688,-20.69207763671875,-31.428466796875,-0.01400314066925196,1009.2939185929147
1.11867578125,0.0434429089505225,0.0619508447393774,0.0885737709879875,0.004529608413577,-0.023853950202465,0.0055972505360841,0.1652871821817323,0.0804154268294285,2.383956864621265,-17.656312942504883,-20.58252716064453,-31.365234375,-0.014056267982618137,1009.2939224260542
1.128745849609375,0.0269205209556967,0.1442312146715819,0.0217155727237462,0.0347333177924156,-0.0071751046925783,0.0144195044413208,0.1654397798188751,0.0802532179316013,2.384030984380711,-17.591272354125977,-20.84412384033203,-31.473419189453125,-0.014109395295984314,1009.2939262591937
1.13881591796875,0.0142106769863516,0.1861653995595872,0.0119762689977884,0.0552591495215892,-0.0139404386281967,0.0125537412241101,0.1658766384187843,0.0801339418477648,2.3841447327086818,-17.55976104736328,-21.03081512451172,-31.451690673828125,-0.01416252260935049,1009.2939300923332
1.148885986328125,0.0287353152927011,0.1490992590993642,-0.0249310276389122,0.0565891303122043,-0.0088878888636827,0.0164315700531005,0.1664846084807351,0.0799548587746323,2.3842502840093664,-17.719585418701172,-21.30091857910156,-31.251220703125,-0.014215649922716667,1009.2939339254726
1.158955810546875,0.0198593503978103,0.0689738752439618,0.0392225878417491,0.0503202490508556,0.0378232821822166,0.0180265232920646,0.1671118597679021,0.0800458503507022,2.3843858429342046,-17.506933212280273,-20.986289978027344,-31.456451416015625,-0.0142687759480543,1009.2939377585192
1.169024658203125,-0.0174379684697836,0.0639845425240695,0.2041436854511499,0.0252721551805734,0.0751706585288047,0.0178856421262025,0.1675708027087966,0.0805993641656408,2.3845400299492594,-17.61457061767578,-20.81968688964844,-31.746795654296875,-0.014321896821277755,1009.2939415911941
1.179094970703125,-0.0505393700174987,0.0857128285989165,0.270735341733694,-0.0092696938663721,0.0660988390445709,0.0144069585949182,0.1676977995283223,0.0812875427895148,2.384697777155818,-17.85326385498047,-20.78687286376953,-31.780303955078125,-0.014375025422672475,1009.2939454244265
1.1891650390625,-0.0037406478330492,0.0561046029292046,0.2751063964247703,-0.026888633146882,0.0367989987134933,0.0173478871583938,0.1675296202610096,0.081786007493296,2.384871007382962,-17.702964782714844,-20.787673950195312,-31.90087890625,-0.014428152736038652,1009.2939492575659
1.199234619140625,0.0454926810871809,-0.0118774847984313,0.2587286775976419,-0.0375930778682231,0.0119506530463695,0.0190952159464359,0.1671843590335752,0.0820138734923013,2.385073472373872,-17.633325576782227,-20.92109680175781,-31.8919677734375,-0.01448127747334774,1009.2939530905196
1.209304931640625,0.0267629192411899,-0.0284152164928615,0.2708820567280054,-0.0440680235624313,-0.0247517023235559,0.0144096510484814,0.1667430693582018,0.0819327270262534,2.3852633032278514,-17.73458480834961,-21.000083923339844,-31.886962890625,-0.014534406074742462,1009.293956923752
1.219375,0.0007649930231273,-0.0091324238739907,0.2151648456811905,-0.042536936700344,-0.0543679818511009,0.0060258940793573,0.166245827030736,0.0815026731636271,2.3854061816070247,-17.796327590942383,-20.811866760253903,-31.64129638671875,-0.014587533388108639,1009.2939607568916
1.22944482421875,0.0003662760291248,-0.0155402450896799,0.1713017385572195,-0.0298155490309,-0.0678089559078216,0.0039108111523091,0.1658308375768441,0.0808553794891755,2.385491298875684,-17.45374870300293,-20.539695739746094,-32.233306884765625,-0.014640659413446269,1009.2939645899381
1.239513916015625,-0.0085251786958426,-0.0135578391008079,0.1124818853199482,-0.0173315480351448,-0.0543230473995208,-0.003501187544316,0.165587152166224,0.0802222484931067,2.3855173139165315,-17.504213333129883,-20.45892333984375,-31.96142578125,-0.014693781574698268,1009.2939684227059
1.249583740234375,-0.042970030741766,-0.0062866790540516,0.108888244742155,-0.0163317993283271,-0.0308150574564933,-0.0150017831474542,0.1654106437086835,0.0798192854279221,2.385440642180684,-17.580305099487305,-20.491111755371094,-31.8818359375,-0.014746907600035901,1009.2939722557525
1.25965380859375,-0.0626475948318839,0.0010028934322297,0.09056465254426,-0.0206060148775577,-0.0159663911908864,-0.0201380643993616,0.165189666818196,0.0795913421901292,2.3852763685269824,-17.40540885925293,-20.744468688964844,-31.98638916015625,-0.014800034913402078,1009.2939760888919
1.26972412109375,-0.0382249551065266,-0.0254044903695583,0.0616612141430377,-0.0239863656461238,-0.0030476625543087,-0.0137648535892367,0.1649502793056295,0.0795383224606444,2.385133540604696,-17.659740447998047,-20.858154296875,-32.08123779296875,-0.014853163514796798,1009.2939799221243
1.279793701171875,-0.0142951403994113,-0.0463644224204123,0.0821007755815982,-0.0307558290660381,-0.0047686398029327,-0.0062926351092755,0.1647016851657958,0.0795518020654511,2.385066224692915,-17.610074996948242,-20.826705932617188,-31.9805908203125,-0.014906288252105887,1009.293983755078
1.28986376953125,-0.0401038276556879,-0.0519958524361252,0.0768599523186683,-0.0492075383663177,-0.0021784491837024,-0.0091736428439617,0.1643361172068752,0.0795388146123642,2.385017684657864,-17.737016677856445,-20.770301818847656,-32.034423828125,-0.014959415565472063,1009.2939875882174
1.299933837890625,-0.0702741441875696,-0.0738188310571014,0.0876075563043355,-0.067120686173439,-0.0026928547304123,-0.0213973186910152,0.1637818214726351,0.0795566775280886,2.384908223722477,-17.556779861450195,-20.61254119873047,-31.720947265625,-0.015012542878838242,1009.293991421357
1.3100029296875,-0.0741670599728822,-0.0991758290231227,0.0471352606624364,-0.0809579417109489,0.000751944258809,-0.0373270139098167,0.1630479116022496,0.079609319085387,2.3846712364667098,-17.712963104248047,-20.499305725097656,-31.680389404296875,-0.015065665040090239,1009.2939952541248
1.32007275390625,-0.0724104986291378,-0.0907015767969191,-0.0111550157427787,-0.089395634829998,0.0182238779962062,-0.043774526566267,0.1621763210826758,0.0797570772128134,2.3843191511209225,-17.574920654296875,-20.479293823242188,-31.435943603515625,-0.015118791065427871,1009.2939990871713
1.330142822265625,-0.0118916594542562,-0.0634571576490998,-0.0760340228885412,-0.0770462900400161,0.0336118899285793,-0.0371115654706954,0.1613270602190057,0.0800494193469251,2.3839750838004408,-17.63457489013672,-20.762474060058597,-31.5355224609375,-0.015171918378794048,1009.2940029203107
1.340212890625,0.0299869958542287,-0.0111734281823039,-0.116909638634324,-0.0523698963224887,0.0334149301052093,-0.0209406167268753,0.1606840052847287,0.0804152876461825,2.383737349536034,-17.756488800048828,-20.724571228027344,-31.60137939453125,-0.015225045692160225,1009.2940067534503
1.350282958984375,0.0968853069331496,0.0466094832226634,-0.1576847166150808,-0.0278517678380012,0.0196069739758968,-0.0057744476944208,0.1603153895156044,0.080673036890246,2.383632647285772,-17.695398330688477,-20.472244262695312,-31.53863525390625,-0.015278173005526401,1009.2940105865898
1.360352783203125,0.1462892431799322,0.0599824672758579,-0.1552607043385505,-0.0069921249523758,0.0161011144518852,0.0052061430178582,0.1602128813028768,0.0808398318520342,2.383636239381903,-17.476150512695312,-20.85760498046875,-31.605224609375,-0.015331299030864033,1009.2940144196364
1.3704228515625,0.1745765224441886,0.0403084833823144,-0.1108025539308786,0.0071023879572749,0.0010140417143702,0.0170095395296812,0.1602827972782485,0.0808711720709412,2.3837471715858847,-17.438140869140625,-20.65318298339844,-31.619110107421875,-0.015384426344230212,1009.2940182527758
1.38049169921875,0.155802921456471,0.0231046889945864,-0.0870370629400014,0.01199890114367,-0.0117316227406263,0.0304163470864295,0.160468745039395,0.0807256683235217,2.383999230558598,-17.469762802124023,-20.53905487060547,-31.746246337890625,-0.015437547217453666,1009.2940220854507
1.39056201171875,0.1113000551242381,0.0127039987504482,-0.0745183576285839,0.0147584695369005,-0.019134946167469,0.0309519059956073,0.1607237055770057,0.0804716358660823,2.3843185118257906,-17.51261329650879,-20.406951904296875,-31.56524658203125,-0.015490675818848387,1009.2940259186831
1.400631591796875,0.0554556375011801,-0.0025476386561989,-0.0418155269443988,0.0046089887619018,-0.0176136568188667,0.0153222810477018,0.1609103785686809,0.0801824862856683,2.384549631928917,-17.569456100463867,-20.73487091064453,-31.60235595703125,-0.015543800556157474,1009.2940297516367
1.41070166015625,-0.0034378654941916,-0.0422527493178844,-0.0251566530883312,-0.0074905501678586,0.0039566163904964,0.0047135795466601,0.1609360160408268,0.0800676583098165,2.3846527465347247,-17.779720306396484,-20.56897735595703,-31.547332763671875,-0.015596927869523651,1009.2940335847762
1.420771728515625,-0.0070236150264739,-0.0674340984560549,-0.0145277070462703,-0.0202519614249467,0.0124253518879413,0.0002815788611769,0.1607925358374129,0.0801582659736101,2.3846817645536778,-17.712947845458984,-20.47936248779297,-31.652008056640625,-0.015650055182889828,1009.2940374179157
1.430841796875,0.0054010553259402,-0.0263214590840041,-0.0385293448805809,-0.0233926270157098,0.0258364975452423,0.004165799356997,0.1605258454590964,0.0803869110372576,2.384718092815778,-17.592077255249023,-20.36339569091797,-31.95565795898437,-0.015703182496256005,1009.2940412510552
1.440911865234375,0.0252673469211906,0.0023959552258253,0.0150134447365999,-0.0238086804747581,0.0437740832567215,0.0125123988837003,0.1602308159522304,0.0808209513425053,2.384806680532435,-17.90808868408203,-20.51283264160156,-32.052734375,-0.01575630980962218,1009.2940450841947
1.450980712890625,0.0313187559146434,0.0245012579195201,0.0264981308251619,-0.0172815397381782,0.0391095578670501,0.0195412784814834,0.1600101769692719,0.0813074550468018,2.384971378308838,-17.902416229248047,-20.426124572753903,-31.6495361328125,-0.015809430682845637,1009.2940489168695
1.46105078125,0.0382532313529402,0.0241296481281518,0.0025853403180837,-0.0060737496241927,0.0288766119629144,0.0314690247178077,0.1598945249318766,0.0816883238199262,2.385215499879937,-17.5952091217041,-20.34457397460937,-31.72412109375,-0.015866878415193415,1009.294053625072
1.47112060546875,0.0372703577954322,-0.020583938345313,0.0552238745719194,0.0005556577816605,0.0230594705790281,0.0393051132559776,0.1598819632016345,0.0819450982653704,2.3855569310763385,-17.759258270263672,-20.36167907714844,-31.546417236328125,-0.01594645931008496,1009.2940628163208
1.481190673828125,0.0387844156201928,-0.0692829411931336,0.1145961009949445,-0.000912856310606,0.0125387562438845,0.0381359383463859,0.1599214320932191,0.0820988705908471,2.385948182332564,-17.84511375427246,-20.426246643066406,-31.49884033203125,-0.016026042134397414,1009.2940720077922
1.4912607421875,0.0132700351353734,-0.1123939147755503,0.1437970610380172,-0.006227727048099,-0.0086576100438833,0.0320231840014457,0.1599352989053978,0.0820448864627726,2.386314126971998,-17.744277954101562,-20.54315185546875,-31.848297119140625,-0.01610562495870987,1009.2940811992638
1.50133056640625,-0.0167293087437748,-0.1079609007641673,0.1576987451404333,-0.0189733691513538,-0.0285681709647178,0.0187279190868139,0.1598831375905577,0.0817880093682135,2.3865785751469644,-17.56424903869629,-20.502426147460938,-31.5849609375,-0.016185205853601416,1009.2940903905125
1.51140087890625,-0.0581244183190166,-0.1175825694598257,0.1445633692353963,-0.03672306984663,-0.0218181237578392,-0.001524090534076,0.1596312190711752,0.0814844080389295,2.3866789563384847,-17.632171630859375,-20.522300720214844,-31.81805419921875,-0.016264790607334784,1009.2940995822069
1.521470703125,-0.1002571945190429,-0.1433944715864956,0.112271457439661,-0.0527365915477275,-0.0010575833730399,-0.0230019390583038,0.1591753635697304,0.0813941564386416,2.386587160239765,-17.66324806213379,-20.617965698242188,-31.950653076171875,-0.01634437150222633,1009.2941087734555
1.531539794921875,-0.1180536210376769,-0.1301965518392622,0.029562194570899,-0.0585731752216815,0.0181376822292804,-0.0375979244709014,0.1585912079481277,0.0815404769533589,2.386321871555891,-17.55380630493164,-20.490234375,-31.688690185546875,-0.016423946608855138,1009.2941179640358
1.54160986328125,-0.0956679670326411,-0.076314008873701,-0.0779559308618307,-0.0502409003674984,0.0299623012542724,-0.0519237741827964,0.1579899389429597,0.0818644125469282,2.385903339816952,-17.399734497070312,-20.501617431640625,-31.583251953125,-0.016503529433167595,1009.2941271555072
1.5516796875,-0.0613136428143829,-0.0392991602092981,-0.1583142466902732,-0.0340001471340656,0.050761055201292,-0.0579241439700126,0.157532032766074,0.0823764740070759,2.3853811538223524,-17.500160217285156,-20.35601043701172,-31.8555908203125,-0.01658311032805914,1009.294136346756
1.56174951171875,0.0112527039635926,0.0144805069036781,-0.1899848117172718,-0.014315522275865,0.0678340494632721,-0.0531551912426948,0.1573218816504438,0.0830876472973275,2.384820958986281,-17.596235275268555,-20.518875122070312,-32.185333251953125,-0.016662691222950686,1009.2941455380046
1.57181982421875,0.0689455989975482,0.0247702841192483,-0.1729541819393634,0.0003518378362059,0.0699808225035667,-0.0366529114544391,0.157318262450663,0.0838697445515908,2.3843641109591127,-17.59577751159668,-20.511886596679688,-32.014495849609375,-0.01674227597668405,1009.294154729699
1.5818896484375,0.1152335221156477,0.0562735297553241,-0.1409539465665817,0.0045676557347178,0.073593869805336,-0.0105532612651586,0.1574191507616858,0.084625658636627,2.3841257132315024,-17.658761978149414,-20.408187866210938,-32.201416015625,-0.016821856871575596,1009.2941639209477
1.591959716796875,0.1678855734381824,0.0919701354280114,-0.0781973384022712,0.0004027383401989,0.0537490583956241,0.014701229520142,0.1575513089954032,0.0852187816732427,2.3841576898229992,-17.575977325439453,-20.619125366210938,-32.189727783203125,-0.016901439695888053,1009.2941731124192
1.602028564453125,0.1979410314187407,0.1046263495139777,-0.0093652097165584,-0.0010908301919698,0.0261330101639032,0.0334794297814369,0.1576838568650765,0.0855174634580778,2.3844092555929004,-17.6779842376709,-20.575950622558597,-32.044464111328125,-0.016981012873095953,1009.2941823027766
1.6120986328125,0.1729143613856285,0.0855953396990895,-0.0069885437130928,-0.0115959364920854,-0.0148069653660058,0.0367519222199916,0.1577428631330579,0.0854290722368687,2.384793953503345,-17.58013916015625,-20.55004119873047,-31.403594970703125,-0.01706059569740841,1009.294191494248
1.622168701171875,0.0990592169061303,0.0568413927711546,-0.0393126042127609,-0.0204050652682781,-0.0266374088823795,0.0309067834168672,0.1576477364925737,0.0850643009453524,2.3851696665335926,-17.921981811523438,-20.5880126953125,-31.46371459960937,-0.017140178521720867,1009.2942006857196
1.63223876953125,0.0018551263473927,0.0499180232487618,-0.0551309355914592,-0.0204194448888301,-0.0101947858929634,0.0152181033045053,0.1574891005923594,0.0847612858175404,2.3854359193826644,-17.725797653198242,-20.87561798095703,-31.435699462890625,-0.01721976134603332,1009.2942098771911
1.642308837890625,-0.0765563662622123,0.0621077888667583,-0.0787614020258188,-0.0120436260476708,0.0185827165842056,0.0025471709668636,0.1572953858651132,0.0847433134857595,2.3855396525600017,-17.780607223510742,-20.764366149902344,-31.1331787109375,-0.017299344170345777,1009.2942190686626
1.65237841796875,-0.118506990828365,0.0963883902616798,-0.0733592507213354,-0.0058496454730629,0.054034985601902,0.0003189044073224,0.1571731972931614,0.0851347015176522,2.3855430304398397,-17.806215286254883,-20.437576293945312,-31.617889404296875,-0.01737892313581641,1009.2942282596885
1.66244873046875,-0.0967420260049402,0.1101800381183624,-0.0304354702740907,-0.0001336159184575,0.0766002982854843,0.0045449519529938,0.157083083494723,0.0858707537959835,2.385546745087419,-17.588199615478516,-20.543426513671875,-31.94873046875,-0.01745850788954978,1009.2942374513829
1.672518798828125,-0.0164741649389266,0.1243565936394035,0.004785480710864,0.0055967085063457,0.0837676674127578,0.0199398882687091,0.157048157248097,0.0867632289548776,2.3856430142484384,-17.531858444213867,-20.761886596679688,-32.04693603515625,-0.017538090713862232,1009.2942466428544
1.682588623046875,0.0372968074109405,0.1071269341580569,0.0766658910512924,0.0157533902674913,0.0690671801567077,0.0399877093732357,0.1571231998500054,0.0876274151090005,2.3859082634429,-17.784835815429688,-20.59415435791016,-32.029571533203125,-0.017617671608753778,1009.2942558341031
1.69265771484375,0.0712202659312635,0.0936890681751072,0.110589203441143,0.0256278589367866,0.040942333638668,0.0511535443365573,0.1573270823581169,0.0881931786164561,2.386336599931816,-17.89225959777832,-20.50537109375,-31.999298095703125,-0.017697246715382593,1009.2942650246832
1.7027275390625,0.0585391365997493,0.0575200226850807,0.1829565205156803,0.0283783841878175,0.0140153430402278,0.0560824312269687,0.1576251032976504,0.0884260866968699,2.386857096368345,-17.82175064086914,-20.4356689453125,-31.958892822265625,-0.017776827610274135,1009.294274215932
1.712797607421875,0.0103789898689836,0.0336263752698898,0.2666583015531301,0.0141781438142061,-0.0229456033557653,0.0455128774046897,0.157861852109802,0.0882874199992395,2.3873619847381757,-17.765201568603516,-20.628990173339844,-32.030029296875,-0.017856410434586592,1009.2942834074034
1.722867919921875,-0.0422902317840605,0.0010907178461551,0.3022352263689041,-0.0082226432859897,-0.0536693930625915,0.0322499200701713,0.1578861276383952,0.0877600590436619,2.38776288165054,-17.57918930053711,-20.508071899414062,-32.131683349609375,-0.01793599518831996,1009.2942925990978
1.7329375,-0.0615122341264039,-0.0262196061447262,0.2940729627013206,-0.0395619198679924,-0.0740897133946418,0.0132253635674715,0.1575846908603701,0.0869874599671461,2.388040924533892,-17.780546188354492,-20.42938995361328,-31.99813842773437,-0.018015574153790594,1009.2943017901237
1.743007568359375,-0.1070578144446015,-0.0249944482639431,0.2027455090910196,-0.0615111589431762,-0.0722585394978523,-0.0074962051585316,0.1570004867260177,0.086147774583968,2.3881265087926518,-17.57206153869629,-20.343276977539062,-32.132354736328125,-0.01809515697810305,1009.2943109815952
1.753077880859375,-0.1296825379025191,0.0037248657420277,0.1105535476058721,-0.0573188140988349,-0.034599844366312,-0.0229145754128694,0.1563196244131362,0.085614392527108,2.3880273534186838,-17.627954483032227,-20.424102783203125,-32.0640869140625,-0.018174741731836416,1009.2943201732895
1.763147705078125,-0.0991844507209956,0.0412136155284941,0.023224808242917,-0.0435488149523735,0.0032069403678178,-0.034878809005022,0.1557254193432677,0.0855472715052441,2.387771501299352,-17.73469352722168,-20.438934326171875,-31.7225341796875,-0.01825432262672796,1009.2943293645383
1.773216552734375,-0.0617294570736587,0.0915248758785426,-0.0622024814128875,-0.0239780433475971,0.0441932529211044,-0.0295415688306093,0.1553272623067077,0.0858937246237309,2.3874497832601347,-17.616113662719727,-20.403076171875,-31.84393310546875,-0.01833389580393586,1009.2943385548956
1.78328662109375,0.0120144090510904,0.0860172183729708,-0.053531099179387,-0.0087918993085622,0.0776297748088836,-0.0199749618768692,0.155144906726074,0.086591709604267,2.3872001770867577,-17.92637062072754,-20.606658935546875,-31.705535888671875,-0.01841347862824832,1009.2943477463671
1.793356689453125,0.0562559940986335,0.0651699529163539,0.010507365489006,0.0040344167500734,0.0862895771861076,-0.0071001751348376,0.1551399851291804,0.0874961086461835,2.387053525174172,-17.63852882385254,-20.677780151367188,-31.6015625,-0.01849306145256077,1009.2943569378386
1.8034267578125,0.0717075379915535,0.0660858987174928,0.0730021078467369,0.0034156432375311,0.0723660215735435,0.0027742753736674,0.1552190697038472,0.0882993822298904,2.3870150828927774,-17.537809371948242,-20.57282257080078,-32.00244140625,-0.01857264427687323,1009.2943661293102
1.81349658203125,0.0972726988155394,0.0398182156473398,0.1151759467095136,0.0019130874425172,0.045408971607685,0.005242493469268,0.155303374124687,0.0888766263983286,2.387051761634884,-17.662994384765625,-20.346023559570312,-31.896240234375,-0.018652225171764774,1009.2943753205589
1.823566650390625,0.1154510373238474,-0.0024184593185782,0.1399608438760042,-0.00486945733428,-0.0006541111506521,0.0042153568938374,0.1553456925245589,0.0890403041685703,2.38711743511795,-17.931045532226562,-20.51129913330078,-31.892578125,-0.01873180799607723,1009.2943845120304
1.83363671875,0.1276444562036544,-0.0286021173670887,0.1210878011018037,-0.0167412962764501,-0.0574838370084762,0.0044816732406616,0.1552687656073828,0.0886750536204804,2.3871717045956258,-17.701732635498047,-20.479476928710938,-31.968780517578125,-0.018811390820389684,1009.2943937035019
1.843706787109375,0.1190004734337329,-0.0484296843871474,0.0594587356626987,-0.0280492696911096,-0.0880424305796623,-0.0008963458240032,0.1550293393299712,0.0878463782508043,2.387219687893092,-17.493467330932617,-20.50990295410156,-31.98617553710937,-0.01889097364470214,1009.2944028949735
1.853775634765625,0.0833512140341103,-0.0587036795116961,-0.0172112470418214,-0.0262593571096658,-0.0844623446464538,-0.0100397765636444,0.1546948375354906,0.0869153097458637,2.387191246896436,-17.65030860900879,-20.66161346435547,-32.19708251953125,-0.01897054682191004,1009.2944120853308
1.863845458984375,0.0687167586777359,-0.0009266133256256,-0.098645667669177,-0.0174428503960371,-0.0559531711041927,-0.0226790755987167,0.154403168564529,0.0862262224130652,2.3870428648659745,-17.73526954650879,-20.317047119140625,-31.819091796875,-0.019050127716801587,1009.2944212765794
1.873915771484375,0.0497035767804831,0.0532294858843088,-0.2033008048862218,-0.0071579869836568,-0.0194681286811828,-0.0334659442305564,0.1542165328413894,0.0859146633488126,2.3867611629896706,-17.76153564453125,-20.519065856933597,-31.801025390625,-0.019129712470534955,1009.2944304682738
1.88398583984375,0.0462293978638947,0.0764462569512426,-0.2886030068576335,-0.0032151658087968,0.0368627533316612,-0.0288851298391819,0.1541262736898187,0.0860873217405559,2.3864403782369994,-17.857376098632812,-20.66118621826172,-31.76156616210937,-0.019209295294847408,1009.2944396597453
1.8940556640625,0.0832752992536872,0.1066423655115067,-0.2682224821299314,-0.0031328741461038,0.0965433940291404,-0.0126699414104223,0.1540613364946314,0.0868835879236631,2.3862115543047557,-17.834692001342773,-20.647293090820312,-31.96493530273437,-0.019288876189738954,1009.2944488509941
1.904125732421875,0.1351255326740443,0.1158393790543079,-0.2212561482936143,-0.0018209479749202,0.130956694483757,0.0111647434532642,0.1540684592992075,0.0881314281917997,2.3861867134515897,-17.64320945739746,-20.5126953125,-32.15228271484375,-0.01936845901405141,1009.2944580424655
1.91419580078125,0.1621713605098426,0.1074710714206099,-0.1635860496133565,-0.0055807996541261,0.1176177114248275,0.0341821759939193,0.1540696291223515,0.0894531687227222,2.386408130697653,-17.412822723388672,-20.360145568847656,-31.978179931640625,-0.019448041838363867,1009.2944672339371
1.924265625,0.188005985924974,0.0630026918798685,-0.1152940201312303,-0.0016836738213896,0.0818501338362693,0.0508985444903373,0.1540978354320427,0.0904823243062998,2.386831339477928,-17.511459350585938,-20.463546752929688,-31.74041748046875,-0.019527622733255413,1009.2944764251857
1.934335693359375,0.1568026730835437,0.0010519932709634,-0.0881318724393844,0.0087098460644483,0.037132728844881,0.0543968752026557,0.1542212986942191,0.0910349272049473,2.3873746106198275,-17.776704788208008,-20.50434112548828,-32.097503662109375,-0.019607205557567866,1009.2944856166573
1.944404541015625,0.0784233291778713,-0.0433355761185288,-0.0933352863013744,0.0277624875307083,0.0009979144670069,0.0485821478068828,0.1544431534188329,0.0911279314127835,2.3878826195081064,-17.478673934936523,-20.37279510498047,-32.365142822265625,-0.01968677873477577,1009.2944948070146
1.954474609375,0.014313772034645,-0.0620623422898352,-0.0579664512783288,0.0409118458628654,-0.0125437267124652,0.0286891348659992,0.1547806196284888,0.0909998706154185,2.388260193186282,-17.41107749938965,-20.485389709472656,-32.608367919921875,-0.019766361559088223,1009.2945039984862
1.964544921875,-0.0450829312425106,-0.0197933724895119,-0.0214133749067783,0.0378160215914249,-0.0328305438160896,-0.0052401386201381,0.1551122835219847,0.0907244715328491,2.388341756284301,-17.446964263916016,-20.65400695800781,-32.120880126953125,-0.01984594631282159,1009.2945131901805
1.97461474609375,-0.0704717125862836,-0.0342573666498065,0.0022504092752933,0.0277894865721464,-0.0122269978746771,-0.0267041511833667,0.1553337403953067,0.0904898494572332,2.3881346768448912,-17.401636123657227,-20.690216064453125,-32.0089111328125,-0.019925527207713137,1009.2945223814293
1.9846845703125,-0.0383729852750897,-0.0718789490357041,0.0771516287416219,0.0039966627955436,0.0273126922547817,-0.027395000681281,0.1553736218656348,0.0906686175044055,2.387816119509917,-17.50697898864746,-20.46031188964844,-31.846435546875,-0.020005108102604682,1009.2945315726779
1.994754638671875,-0.0136263742923736,-0.0464455248326063,0.1145394023716449,-0.0047395713627338,0.0511567704379558,-0.0214806534349918,0.1552650052874664,0.0912195408396449,2.387563055438389,-17.485065460205078,-20.60913848876953,-31.865509033203125,-0.02008469092691714,1009.2945407641495
2.00482470703125,0.0321755188744515,0.0027355624437332,0.110755207657814,-0.0080971028655767,0.0478234738111496,-0.0153414132073521,0.1551208827481945,0.0918520325249519,2.387372878034416,-17.512950897216797,-20.52423858642578,-32.185546875,-0.020164273751229596,1009.2945499556209
2.014894775390625,0.0625751141175627,0.0071519175812602,0.1343956109642982,0.0051667718216776,0.0422414913773536,-0.0142015805467963,0.1550824878678438,0.0924229411280379,2.3872151414336487,-17.72829246520996,-20.62732696533203,-32.1251220703125,-0.02024385657554205,1009.2945591470925
2.024964599609375,0.1324224111951887,-0.0241788940973579,0.1831803923994302,0.0152576407417654,0.0015076058916747,-0.0100843962281942,0.1552001971059107,0.0927228234468122,2.387071256360418,-17.5524959564209,-20.53926086425781,-32.24676513671875,-0.020323437470433595,1009.2945683383412
2.03503369140625,0.1885044369664043,-0.0265200503960251,0.1810042174041271,0.0200502648949623,-0.0534778796136379,-0.0066425269469618,0.1554064626525548,0.0924654610209098,2.386970470384796,-17.662229537963867,-20.50188446044922,-32.254669189453125,-0.020403012577062406,1009.2945775289213
2.045103515625,0.1766303862340748,-0.0248757903203368,0.1983130796015262,0.0129841398447752,-0.0830012336373329,-0.0085228905081748,0.1555761725184208,0.0917288521581905,2.386896887136689,-17.610313415527344,-20.4996337890625,-32.17279052734375,-0.020482593471953952,1009.2945867201701
2.055173828125,0.1331273445941507,-0.033890871424973,0.2321300090074539,-0.0079682804644107,-0.0929199084639549,-0.015805572271347,0.1556187014436718,0.0908100745832751,2.386788881197825,-17.65472412109375,-20.373764038085938,-32.049407958984375,-0.020562178225687316,1009.2945959118645
2.065243896484375,0.082094126645103,-0.0218584883257746,0.1893213793724775,-0.0287425778806209,-0.0877918973565101,-0.0330277532339096,0.1554551503298712,0.0899089651384868,2.38656246071961,-17.663400650024414,-20.386276245117188,-32.182159423828125,-0.020641761049999773,1009.2946051033359
2.0753134765625,0.075815630897507,0.0072451488226652,0.1121317567080259,-0.0359805151820182,-0.0498581007122993,-0.0427869036793708,0.1551229916072522,0.0892523525508439,2.3862018208214884,-17.47310447692871,-20.488319396972656,-31.976959228515625,-0.020721340015470407,1009.2946142943617
2.0853837890625,0.0970122212484478,0.0269189865857362,0.0951186625868082,-0.0265429858118295,0.001015274785459,-0.0421412512660026,0.154775141941806,0.0891133275065241,2.385789552801509,-17.540374755859375,-20.5662841796875,-31.911651611328125,-0.020800924769203775,1009.2946234860561
2.095453857421875,0.1628975558925419,0.0760889679461717,0.0641951165348291,-0.0151108335703611,0.0130791272968053,-0.0283809676766395,0.1545217799930333,0.0893222257985626,2.3854202123130337,-17.49854278564453,-20.38740539550781,-32.35797119140625,-0.02088050759351623,1009.2946326775277
2.105523681640625,0.2680141000762581,0.0767442169845104,0.0581833088994026,-0.0079942988231778,0.0019584982655942,-0.0004269573837518,0.1544195187857189,0.0895305025902472,2.385268643124183,-17.524362564086914,-20.625457763671875,-32.115997314453125,-0.020960088488407774,1009.2946418687764
2.115593505859375,0.3329490021277219,0.0337460561268031,0.1449170049786567,0.0003650970757007,-0.0173321086913347,0.0282683353871107,0.154429583089815,0.0895779690054862,2.385398725316822,-17.47405433654785,-20.52635955810547,-31.7161865234375,-0.02103966938329932,1009.2946510600251
2.12566259765625,0.2956274986669421,-0.0124910866521298,0.2161211234927177,-0.0127662429586052,-0.0596167631447315,0.0367936342954635,0.1544296696640366,0.0892587697134213,2.3857254197663624,-17.64394187927246,-20.47130584716797,-31.96240234375,-0.02111924448992813,1009.2946602506053
2.135732666015625,0.1991348443131893,-0.0461135163992643,0.2448959670782089,-0.0370840989053249,-0.0962975472211837,0.0304129682481288,0.1542491121245301,0.0884786481553447,2.3860834557515798,-17.56584358215332,-20.256629943847656,-32.250396728515625,-0.02119882731424059,1009.2946694420767
2.145802978515625,0.1373237003054469,-0.1034405007302761,0.2743570393621921,-0.0723722204566001,-0.1046968400478363,0.0058322697877883,0.1537379336709289,0.0874651843440837,2.386321197301495,-17.710533142089844,-20.35602569580078,-32.12799072265625,-0.021278412067973956,1009.2946786337711
2.15587255859375,0.0996453462310135,-0.1143269286647439,0.2743675607562065,-0.0963795557618141,-0.0986045897006988,-0.0212033428251743,0.1528771302313331,0.0864895394612425,2.386325939952032,-17.723854064941406,-20.16297912597656,-32.621185302734375,-0.021357991033444587,1009.2946878247969
2.165942626953125,0.1065966266736388,-0.1161652500078082,0.189883689430356,-0.1046550348401069,-0.0993412509560585,-0.0313052386045455,0.1518383975736157,0.0855700398661499,2.3861205278780355,-17.601991653442383,-20.51556396484375,-32.25018310546875,-0.021437573857757044,1009.2946970162685
2.1760126953125,0.1409697286576032,-0.1051953815735876,0.0581967529028654,-0.0881751254200935,-0.0929121151566505,-0.0395383983850479,0.1508090207963834,0.0846936395372033,2.3858224402489605,-17.55699348449707,-20.443626403808597,-32.031341552734375,-0.0215171566820695,1009.29470620774
2.186082763671875,0.1836719753086566,-0.0901814984455704,-0.0012929624199867,-0.0606203451752662,-0.0750095397233963,-0.0370536968111991,0.150011672756684,0.0840271713133191,2.3854668839523803,-17.99289894104004,-20.105987548828125,-32.148834228515625,-0.021596739506381954,1009.2947153992116
2.196152587890625,0.197284394140914,-0.0597578647397458,-0.0491425088316202,-0.0325932390987873,-0.0677028894424438,-0.0375152230262756,0.1495227399100602,0.0835723663295187,2.385086910562383,-17.887496948242188,-19.853744506835938,-32.20672607421875,-0.021676320401273503,1009.2947245904602
2.20622265625,0.2169849737804383,-0.0282135564409196,-0.0658913990586996,-0.0097717763856053,-0.0676432996988296,-0.0343493819236755,0.1493345518885184,0.0831572509082341,2.38469732714434,-17.96795654296875,-20.006851196289062,-32.167694091796875,-0.021755903225585956,1009.2947337819318
2.216291748046875,0.2624580003190785,-0.0445699402190744,-0.0451174910992383,0.0067933509126305,-0.0600053593516349,-0.0321935564279556,0.1493761163054733,0.0827414518382215,2.384332299723017,-17.94684410095215,-19.91929626464844,-32.414825439453125,-0.02183547833221477,1009.2947429725119
2.22636181640625,0.2716890622619539,-0.063599342598766,0.0257715701162815,0.0053551625460386,-0.064702995121479,-0.0267938748002052,0.1495432221836229,0.0822993186757091,2.3840132896666253,-17.989913940429688,-19.931968688964844,-31.7391357421875,-0.021915061156527225,1009.2947521639835
2.236431640625,0.244074275431782,-0.0483422983646392,0.0721592272818088,-0.0090927518904209,-0.065516322851181,-0.0218364000320434,0.149619765050062,0.0817822653026176,2.3837535261847185,-17.841672897338867,-20.236160278320312,-32.003143310546875,-0.021994642051418774,1009.2947613552321
2.246501708984375,0.2045435714889317,-0.051516106095165,0.0926519802123308,-0.0254399552941322,-0.0719277933239936,-0.0217971056699752,0.1495239261594261,0.0812109571320473,2.383532008571508,-17.796655654907227,-19.965232849121094,-32.020965576171875,-0.022074224875731227,1009.2947705467037
2.25657177734375,0.1971552148032933,-0.0660071343928575,0.0814408503681421,-0.034076053649187,-0.0888692289590835,-0.0252259261906147,0.1492640655410499,0.0805324134101876,2.383307495999003,-17.853662490844727,-20.012863159179688,-32.159027099609375,-0.02215380770004368,1009.2947797381752
2.2666416015625,0.215485967394337,-0.0888956964187324,0.0158773680895566,-0.0241922922432422,-0.1144291311502456,-0.0299047511070966,0.1490023765626005,0.079701086956503,2.3830357438499945,-17.951974868774414,-19.772689819335938,-32.02996826171875,-0.02223338859493523,1009.2947889294239
2.2767119140625,0.2081328281525522,-0.0719049602597951,-0.0467675963938236,0.0005013355985283,-0.1296094208955764,-0.0385206118226051,0.1489028036258753,0.0786495522490329,2.382675015618324,-18.100587844848636,-19.90271759033203,-31.94598388671875,-0.022312973348668594,1009.2947981211182
2.286781494140625,0.1969877492818981,-0.0649871436953544,-0.0614595540910959,0.036170907318592,-0.1139025837182998,-0.0427583642303943,0.1490452245277316,0.077621705109273,2.3822253629009595,-18.121248245239254,-19.957008361816406,-31.939971923828125,-0.022392552314139225,1009.2948073121441
2.2968515625,0.1626361284773796,-0.0681324559837579,-0.0352151057660579,0.0574711337685585,-0.10721006244421,-0.0293621309101581,0.1495386886196076,0.0767849930258837,2.381784277698694,-18.243221282958984,-20.06456756591797,-31.806854248046875,-0.022472135138451685,1009.2948165036156
2.306921875,0.1321938631363213,-0.0631445845685899,-0.0210918878674507,0.0651224330067634,-0.0769267901778221,-0.0394252799451351,0.1501610956738261,0.0760870597330754,2.381385513671963,-18.179832458496094,-20.0946044921875,-31.705780029296875,-0.02255171989218505,1009.29482569531
2.316990478515625,0.1450988643515855,-0.0896285407379269,0.1066980412214994,0.0764075741171836,-0.0554992593824863,-0.0427619516849517,0.1508712312277584,0.0756890833216969,2.380880126392757,-18.18998908996582,-19.99079132080078,-31.446075439453125,-0.02263129113997204,1009.2948348854445
2.327060546875,0.0957605406869202,-0.157922178632766,0.1566015975534916,0.0805860757827758,-0.0386598408222198,-0.0443961136043071,0.1516523338026192,0.0754460732738942,2.3803641968049303,-18.11831283569336,-20.178268432617188,-31.2666015625,-0.022710873964284495,1009.294844076916
2.337130859375,0.0554321104951202,-0.1750232432983815,0.2205442006319761,0.0829251259565353,-0.0277342237532138,-0.054348349571228,0.1524661064914551,0.0753704576362593,2.379767193893464,-17.910320281982422,-20.029754638671875,-31.953826904296875,-0.022790458718017867,1009.2948532686104
2.34720068359375,-0.0065940645027905,-0.2094403305545449,0.2349433128625154,0.0786380991339683,-0.0352957136929035,-0.08106729388237,0.1532688926653644,0.0753257553692813,2.3790167377061517,-18.13051986694336,-20.083961486816406,-31.790252685546875,-0.02287003961290941,1009.2948624598591
2.357270751953125,-0.0223356043182313,-0.2479660221733152,0.2663765620023012,0.0676893070340156,-0.0487372241914272,-0.1163824051618576,0.1539257178851868,0.0751971165316321,2.377950456134634,-18.081541061401367,-20.252708435058597,-31.64129638671875,-0.022949622437221862,1009.2948716513306
2.367340576171875,-0.0108016722604632,-0.2687069046460092,0.2888794857114553,0.0481708049774169,-0.0767847076058387,-0.1420882940292358,0.154425940886082,0.0749075191949888,2.376576598641692,-18.084455490112305,-20.340621948242188,-31.5281982421875,-0.02302920333211341,1009.2948808425793
2.37741064453125,0.0557983134590089,-0.2073785757191479,0.2631295429050922,0.0255515128374099,-0.0992743000388145,-0.1705899685621261,0.1546860969994589,0.0743828647521468,2.374931283187844,-18.048673629760746,-20.051109313964844,-31.6571044921875,-0.023108786156425865,1009.2948900340508
2.387480712890625,0.1159103984639048,-0.1707100562743842,0.2661094354987144,0.0079122213646769,-0.109842300415039,-0.1819961220026016,0.1547331712720064,0.0736754360669087,2.3730957064903277,-17.9501895904541,-20.49604797363281,-31.28814697265625,-0.023188368980738318,1009.2948992255224
2.397551025390625,0.1575269687701016,-0.1679534510426223,0.2377531095862388,-0.011901962570846,-0.1084428131580352,-0.1810496300458908,0.1546161418284755,0.0729754921238453,2.3712143699727166,-18.11714172363281,-20.542274475097656,-31.50909423828125,-0.02326795373447169,1009.2949084172167
2.407619873046875,0.1950118460990488,-0.1367716924458742,0.2032289086937904,-0.0177233666181564,-0.0998554453253746,-0.1656112968921661,0.1544212759319897,0.0722687077419126,2.3694505310228178,-18.179176330566406,-20.4266357421875,-31.50106811523437,-0.02334752691167959,1009.294917607574
2.417689697265625,0.2053252233859151,-0.1104179385274648,0.146324533689022,-0.0141677809879183,-0.0930020734667778,-0.1526430249214172,0.1542532199023176,0.0716177636072275,2.3678393586457926,-18.222156524658203,-20.552505493164062,-31.076904296875,-0.023427107806571132,1009.2949267988228
2.427760009765625,0.1934828099008649,-0.0741965783283114,0.0961100117117166,-0.0104056885465979,-0.1027132421731948,-0.1462135165929794,0.1541460507156173,0.0708911369710305,2.366318934592837,-18.12746810913086,-20.72211456298828,-31.553985595703125,-0.0235066925603045,1009.2949359905172
2.437830078125,0.1654602459874004,-0.0819219118833541,0.0929763898611068,-0.0062013557180762,-0.1043324396014213,-0.145227625966072,0.1541055117523209,0.0700898972362152,2.3648507816799764,-18.27671241760254,-20.57581329345703,-31.557403564453125,-0.023586275384616957,1009.2949451819886
2.447899658203125,0.1607676311917603,-0.0919616598606109,0.1028963108509778,0.0059752184897661,-0.1117563918232917,-0.1437143087387085,0.1541503742455454,0.0692600572533706,2.3633761076961304,-18.233247756958008,-20.665023803710938,-31.537506103515625,-0.02366585435008759,1009.2949543730144
2.457969970703125,0.1414347158208489,-0.0929193989768624,0.1046668276548385,0.002687812782824,-0.1450922340154647,-0.1513280272483825,0.1542059726307224,0.0682731007856357,2.361871524644492,-18.22811508178711,-20.57929229736328,-31.109405517578125,-0.023745439103820955,1009.2949635647088
2.4680400390625,0.1326646224532276,-0.1138248243615031,0.0878746828079223,-0.0041181975975632,-0.1658107787370681,-0.1559586375951767,0.1541796043560289,0.0670131022621725,2.3602959825265537,-18.002296447753906,-20.64501190185547,-31.2095947265625,-0.023956925106756403,1009.294988837887
2.47810986328125,0.1269115388192236,-0.1359869718089699,0.082250413185358,-0.0057789450511336,-0.1578471213579177,-0.1613504737615585,0.1541007715481332,0.0657037504926076,2.3586814916501875,-18.29969787597656,-20.709373474121094,-31.71270751953125,-0.024273998515419705,1009.295026984351
2.488179931640625,0.1014816217474639,-0.1457145850971341,0.1058989997982978,-0.0149038778617978,-0.1357844322919845,-0.1680387705564499,0.1539616523518111,0.0646027659715332,2.3569868472226227,-18.28400039672852,-20.594215393066406,-31.28924560546875,-0.02459107961145654,1009.2950651317399
2.49825,0.0653555386163294,-0.1127881747901439,0.1258645139843225,-0.0285816080868244,-0.1151073724031448,-0.1794741153717041,0.1536843458719448,0.063724601115174,2.3552151182161025,-18.33913230895996,-20.73114013671875,-31.4217529296875,-0.02490816070749339,1009.2951032791287
2.50831884765625,0.0500811048559844,-0.1153697157159447,0.1854208648025989,-0.0458040907979011,-0.085828386247158,-0.1830460131168365,0.1532327146009,0.0631179679427561,2.3533794537814066,-18.071542739868164,-20.778533935546875,-31.567626953125,-0.025225203366662573,1009.2951414218933
2.51838916015625,0.0397443832261487,-0.1205089783005416,0.2468962009847164,-0.0667474567890167,-0.0662991553544998,-0.188146486878395,0.1525943851837302,0.0627571842702769,2.3514893751639936,-18.393360137939453,-20.886741638183597,-31.38299560546875,-0.02554229215007294,1009.295179570207
2.528458984375,0.0432532315973192,-0.1226212942793965,0.2423994740873575,-0.0778601020574569,-0.0674758702516555,-0.1829373687505722,0.1518053012031046,0.062479701191165,2.3496206636724746,-18.100631713867188,-20.75599670410156,-30.880645751953125,-0.02585936555873624,1009.2952177166709
2.53852880859375,0.0680937314085662,-0.1369289288341999,0.2194955683618784,-0.0809443071484565,-0.0777657926082611,-0.1782350242137909,0.1509468582933005,0.0621157629285472,2.3478320879937358,-18.04157447814941,-20.68061828613281,-31.148590087890625,-0.026176438967399556,1009.2952558631349
2.548598876953125,0.0991604853235185,-0.1325881231509149,0.2033539963781833,-0.0769699141383171,-0.082494281232357,-0.1708536446094513,0.1500981668311589,0.0616653433649233,2.346107006973328,-18.030147552490234,-20.657508850097656,-30.914093017578125,-0.02649352006343639,1009.2952940105238
2.5586689453125,0.1236261604730039,-0.1289013974621891,0.1987076318770647,-0.0712688863277435,-0.1117887869477272,-0.1703492403030395,0.1493364241434047,0.0610321380359473,2.344399692546147,-18.040115356445312,-20.6319580078125,-31.24032592773437,-0.02681060115947324,1009.2953321579126
2.568739013671875,0.1103198484478518,-0.1313596042692661,0.1296411099135875,-0.066422089934349,-0.1419873684644699,-0.1717773377895355,0.1486509221478291,0.0600663197675137,2.34270842402096,-18.19025230407715,-20.86128234863281,-31.106689453125,-0.027127682255510075,1009.2953703053015
2.57880908203125,0.0735305156350135,-0.1340353993497788,0.0720142658531665,-0.0590232983231544,-0.1602824926376342,-0.1766663789749145,0.1480201918281229,0.0588220473553039,2.340965418817547,-18.027019500732425,-20.59214782714844,-31.58123779296875,-0.027444763351546907,1009.2954084526903
2.58887890625,0.0438525491973385,-0.1109234038315713,0.0329454072684049,-0.0490087866783142,-0.1525568664073944,-0.1715791076421737,0.1474872319605178,0.0575554108668627,2.3391934645533845,-18.19316291809082,-20.216026306152344,-31.44256591796875,-0.027761836760210223,1009.2954465991543
2.598948974609375,0.0078254694612696,-0.0973528513796627,0.0257014274895191,-0.0409756228327751,-0.1339882463216781,-0.1554070711135864,0.1470350839453746,0.0564045462639728,2.3375618859367884,-18.10965347290039,-20.4853515625,-31.27352905273437,-0.028078917856247058,1009.2954847465431
2.609018798828125,-0.0328563042128458,-0.0834586199313402,0.0198404265016317,-0.0331288501620292,-0.1268070936203003,-0.1392085254192352,0.146708910723847,0.0553801926645505,2.3360724513662587,-18.20918083190918,-20.630447387695312,-30.88665771484375,-0.02839599126491036,1009.2955228930072
2.619087890625,-0.0881968274343758,-0.0921095438987016,0.0068120181024074,-0.0263103581964969,-0.1421554237604141,-0.1309881508350372,0.1464804302541055,0.0543252869614833,2.334706025251223,-18.185274124145508,-20.841217041015625,-31.614654541015625,-0.028713041611453077,1009.2955610366965
2.629157958984375,-0.1156148861160501,-0.1363014445856213,-0.0421031117141246,-0.0241032838821411,-0.1595215946435928,-0.1193889454007148,0.1462903097209919,0.0530916429385874,2.333420992192234,-18.093839645385746,-20.9993896484375,-31.506134033203125,-0.029030122707489926,1009.2955991840854
2.639227783203125,-0.1831880642492324,-0.1604363534107804,-0.0735667559921741,-0.0332304686307907,-0.1595287919044494,-0.1269187778234481,0.1460545188314935,0.051770541614423,2.332179949452136,-18.07954978942871,-20.656394958496094,-31.17755126953125,-0.02934719611615323,1009.2956373305493
2.649298095703125,-0.2971533565273508,-0.1424899239622056,-0.064915247502923,-0.0381962358951568,-0.1304014325141906,-0.1397493630647659,0.1457450195170537,0.050603948802531,2.33084141139008,-18.055147171020508,-20.74256896972656,-31.43807983398437,-0.029664284899563596,1009.295675478863
2.659367919921875,-0.4272320906732231,-0.1561377794340253,-0.0636883360564708,-0.0428205505013465,-0.0914604216814041,-0.1542814224958419,0.1453717237212509,0.0497873184246708,2.329354013578989,-18.154523849487305,-20.612228393554688,-31.392730712890625,-0.02998135830822691,1009.295713625327
2.669437744140625,-0.522316339533776,-0.1735446951784193,-0.0548743304818868,-0.0505509041249752,-0.0355870723724365,-0.1739961355924606,0.1448732026457768,0.0494197825844239,2.327698143608322,-18.293407440185547,-20.765365600585938,-31.641143798828125,-0.03029843171689021,1009.2957517717911
2.679508056640625,-0.567003585989587,-0.1702593898974359,-0.0245101718783378,-0.054469745606184,0.0172673538327217,-0.1939789056777954,0.1442865620309653,0.0496106425277265,2.3258440837574037,-18.35153579711914,-20.804168701171875,-31.544219970703125,-0.03061552050030058,1009.2957899201048
2.689577880859375,-0.5989089461531489,-0.1803299714043736,0.01316694008708,-0.0520545989274978,0.0480435006320476,-0.209124356508255,0.1436652036642662,0.0502424372004695,2.323820070742157,-18.032228469848636,-20.82984161376953,-31.16961669921875,-0.030932593908963895,1009.2958280665687
2.69964794921875,-0.5631377043416723,-0.1823850042380392,0.0515378795355558,-0.0429569706320762,0.0667154565453529,-0.2163412570953369,0.1430988818418873,0.0511173776490072,2.3216809638961786,-17.878681182861328,-20.8546142578125,-31.42059326171875,-0.031249675005000727,1009.2958662139575
2.70971826171875,-0.5415989129569381,-0.1930861387334763,0.0872843156993389,-0.0365379191935062,0.0734364166855812,-0.2181211411952972,0.1426439192345265,0.0521182955695278,2.319497212688557,-17.724096298217773,-20.94084930419922,-31.5877685546875,-0.0315667637884111,1009.2959043622712
2.719786865234375,-0.4825380905706435,-0.2048307909324765,0.1344295132339,-0.0433502830564975,0.0566124320030212,-0.2190103679895401,0.1421893649839179,0.0530457864183051,2.3173128843126034,-17.547317504882812,-21.13047790527344,-31.20819091796875,-0.03188379876020675,1009.2959425041109
2.72985693359375,-0.4049235570250079,-0.2249381978072226,0.184191615268588,-0.0683538764715194,0.0157011598348617,-0.2201582640409469,0.1415978838051061,0.0536018482815141,2.3151263084142144,-17.716262817382812,-21.17657470703125,-30.97006225585937,-0.03220087985624359,1009.2959806514998
2.739927001953125,-0.3465966018712147,-0.2921449172481894,0.2283750403881073,-0.1323855817317962,-0.0173270981758832,-0.2034157663583755,0.1405632706506343,0.0536743914899139,2.313047568556576,-17.5734920501709,-20.690887451171875,-31.1876220703125,-0.032517960952280434,1009.2960187988887
2.749996826171875,-0.256257319048047,-0.4091827123068273,0.2832142995566129,-0.203455239534378,-0.0369676351547241,-0.1746330857276916,0.13888153067015,0.0533419903438147,2.3112557527643403,-17.887802124023438,-20.832443237304688,-31.732940673828125,-0.03283503436094373,1009.2960569453527
2.76006689453125,-0.2015744925502687,-0.5262549941569566,0.3026987522274255,-0.2624439895153045,-0.0199918448925018,-0.1252876371145248,0.1365958947414657,0.0528556480600154,2.309922591214774,-18.00518035888672,-20.9205322265625,-31.9351806640625,-0.03315211545698058,1009.2960950927414
2.770136962890625,-0.2161700772009789,-0.6103428519025444,0.3065221099078655,-0.2920627295970917,0.0265593864023685,-0.0787827372550964,0.1339018688112313,0.0526287252469855,2.3090966807674755,-18.03570556640625,-20.99842834472656,-32.14825439453125,-0.033469196553017416,1009.2961332401303
2.78020703125,-0.2198535149540752,-0.6815342570655047,0.2642594237178564,-0.2877366840839386,0.056142047047615,-0.0409219115972518,0.1311193248665532,0.0527728054975677,2.308689741295657,-17.999954223632812,-20.685836791992188,-32.165618896484375,-0.033786277649054244,1009.2961713875192
2.790277099609375,-0.2131986601747572,-0.7879886987894773,0.1713350563049316,-0.2389832884073257,0.0566470399498939,-0.0152372345328331,0.1286507823770025,0.0530412266938419,2.30860847897409,-17.594566345214844,-20.74834442138672,-31.67831420898437,-0.0341033587450911,1009.296209534908
2.800346923828125,-0.1854636810310184,-0.9158233438029884,0.1400590435534715,-0.1711312681436538,0.0165305156260728,0.0002895267680287,0.1268155402359288,0.0531311858090464,2.308686857087871,-17.537992477416992,-20.71923828125,-31.55047607421875,-0.0344204321537544,1009.2962476813719
2.8104169921875,-0.1787007262347266,-1.0251454499177637,0.1505705006957054,-0.1068552359938621,-0.0644151344895362,-0.0137304905802011,0.1256222826050957,0.05271968331774,2.3087247470489243,-17.789365768432617,-20.428611755371094,-31.763702392578125,-0.03473751324979125,1009.2962858287608
2.820487060546875,-0.1945245009735226,-1.093922706611082,0.1557645622074604,-0.061299730092287,-0.1559474468231201,-0.0376616567373275,0.124935969977782,0.0515100591452906,2.308538807435977,-17.85202407836914,-20.341636657714844,-31.57855224609375,-0.03505459434582808,1009.2963239761497
2.83055615234375,-0.2172870619995519,-1.143532686823979,0.1909586251854896,-0.0422475524246692,-0.2241726964712143,-0.0741970390081405,0.1245894393809392,0.0495695338972853,2.308006415989906,-17.608375549316406,-20.48504638671875,-31.47576904296875,-0.0353716446923708,1009.296362119839
2.8406259765625,-0.2048508473398163,-1.1569022368110715,0.2493447631806135,-0.056359376758337,-0.2619083821773529,-0.1085411608219146,0.1242611812644662,0.0471795360846448,2.3070969644365307,-17.907182693481445,-20.475906372070312,-31.233306884765625,-0.0356887181010341,1009.2964002663031
2.85069580078125,-0.2128572993911802,-1.148837296038121,0.2488297993957996,-0.0952372699975967,-0.2573844492435455,-0.1313558965921402,0.123644517254451,0.0446439489745985,2.3059015185032807,-17.904888153076172,-20.51820373535156,-31.29965209960937,-0.03600579150969742,1009.2964384127671
2.86076611328125,-0.1975911220025271,-1.11255514556244,0.1738140136390924,-0.1387554556131363,-0.2216839641332626,-0.1385610699653625,0.1226215580422381,0.0423604299803384,2.3045722243791045,-17.901897430419922,-20.40416717529297,-31.826141357421875,-0.03632288029310778,1009.2964765610808
2.870836181640625,-0.1631986211983487,-1.0513171983327716,0.0282657250195741,-0.1609035432338714,-0.169529303908348,-0.133163183927536,0.1213185702923617,0.0405253304101921,2.303256233930563,-18.131200790405277,-20.355880737304688,-31.87066650390625,-0.03663996138914462,1009.2965147084695
2.88090576171875,-0.155528780690208,-0.9568424596726892,-0.1512105521649122,-0.1598303020000457,-0.1140908226370811,-0.1283359378576278,0.1200175584811211,0.0392383255296456,2.301999066279265,-17.724695205688477,-20.67686462402344,-31.42034912109375,-0.0369570271104344,1009.2965528540087
2.890975830078125,-0.1870548957452178,-0.8580031691275537,-0.3255108880162239,-0.1469405591487884,-0.061549674719572,-0.1145593598484993,0.1189652017119573,0.0384595424528601,2.3008296103115047,-17.86386489868164,-20.49668884277344,-31.58721923828125,-0.037274108206471236,1009.2965910013976
2.9010458984375,-0.2273375140339136,-0.7709256280466914,-0.4081441630393266,-0.1234520226716995,-0.0086262729018926,-0.1133430898189544,0.1181649402727237,0.0382283024053343,2.299729568809098,-17.93816566467285,-20.21504211425781,-32.3560791015625,-0.03759118930250807,1009.2966291487865
2.911115966796875,-0.2462061728939414,-0.734341425884515,-0.4423813636839389,-0.1020362079143524,0.0159043706953525,-0.103716567158699,0.117450231527641,0.0383495493771351,2.2986831403825496,-18.0989933013916,-20.27647399902344,-31.87493896484375,-0.03790827039854491,1009.2966672961752
2.92118603515625,-0.1868546969980001,-0.7194914280813187,-0.4815694647341966,-0.0683245807886123,0.0339946895837783,-0.08839912712574,0.1169315399983133,0.0386910792230163,2.2977389822976573,-17.993133544921875,-20.385536193847656,-32.083099365234375,-0.038225351494581755,1009.2967054435641
2.931255859375,-0.127268316367641,-0.6913681072071194,-0.4778425531655549,-0.021464318037033,0.0414202511310577,-0.058528259396553,0.1167923781475039,0.0391485462178281,2.2970190341580032,-17.929447174072266,-20.314491271972656,-32.1514892578125,-0.03854242490324507,1009.2967435900281
2.941324951171875,-0.0920562428088858,-0.6117075643844903,-0.4668658165991306,0.0300063267350196,0.065652884542942,-0.0195933766663074,0.1170897766479184,0.0396832239398765,2.296628024573577,-17.83036994934082,-20.369773864746094,-32.114898681640625,-0.03885947524978777,1009.2967817337175
2.95139501953125,-0.08283540999908,-0.5641730752713978,-0.2991179711312055,0.0707133933901786,0.1128339990973472,0.021935936063528,0.1178374801576929,0.0405383283029547,2.2966167709812457,-17.952735900878906,-20.43932342529297,-31.877227783203125,-0.03917655634582462,1009.2968198811063
2.96146484375,-0.0653780792417004,-0.5858149251718073,-0.029377485653758,0.0900343582034111,0.1625869125127792,0.0718939006328582,0.11885736731208,0.0418403521262545,2.2970490585411474,-18.015113830566406,-20.56134796142578,-31.644989013671875,-0.03949362975448792,1009.2968580275704
2.971534912109375,-0.0567734421014785,-0.6509090363729745,0.2348772618889808,0.0804860889911651,0.1998699307441711,0.1135017573833465,0.1199329586875839,0.0435147859435416,2.2979414778241405,-17.872074127197266,-20.64447021484375,-31.613037109375,-0.039810710850524754,1009.2968961749592
2.981604736328125,-0.0573257787546142,-0.7450093156974762,0.5156131886333227,0.0618484877049922,0.2087933719158172,0.1533706039190292,0.1208881380554098,0.0453767961897929,2.2992760697208348,-17.774776458740234,-20.51929473876953,-31.53265380859375,-0.04012778425918807,1009.2969343214231
2.991675048828125,-0.0726595780193805,-0.8593290109038353,0.7268196520775556,0.0339517630636692,0.1880587935447693,0.1849021911621093,0.1215494684345248,0.0471420354483401,2.300983744209983,-17.669296264648438,-20.57188415527344,-31.911773681640625,-0.04044487304259844,1009.2969724697368
3.0017451171875,-0.1286820921557024,-0.9549190903946756,0.8512240303814411,0.0155405336990952,0.1468402445316314,0.1984129399061203,0.1219520615745029,0.0485662617886319,2.302928668036117,-17.717424392700195,-20.44855499267578,-32.064849853515625,-0.04076195413863527,1009.2970106171257
3.011814697265625,-0.2027614007798954,-1.0297581313449888,0.9123819711774588,0.0087394639849662,0.0992559790611267,0.2060360312461853,0.1222267058636048,0.0495384894521718,2.3049712949492847,-17.83993148803711,-20.81605529785156,-32.102813720703125,-0.041079019859925056,1009.2970487626649
3.021885009765625,-0.2612271068172529,-1.1103530324082822,0.9441337847471236,-0.0047619631513953,0.04926498234272,0.1997874528169632,0.1223865885287993,0.0500122650359075,2.307024102307679,-17.956689834594727,-20.595199584960938,-32.051544189453125,-0.04139610864333542,1009.2970869109786
3.031955078125,-0.2891897572370246,-1.1921430615402755,0.9398521619051694,-0.0112189864739775,0.0132197383791208,0.1873730570077896,0.122439043060242,0.050072143308055,2.30899324453232,-17.854976654052734,-20.39057159423828,-32.1588134765625,-0.04171318973937227,1009.2971250583673
3.04202490234375,-0.342248928055726,-1.2758689541056751,0.9468927280664444,-0.032823346555233,0.0144868697971105,0.1720854490995407,0.1223541118703069,0.0499574755274546,2.3108230390468294,-17.689697265625,-20.22966766357422,-31.955810546875,-0.04203026314803557,1009.2971632048313
3.0520947265625,-0.3784555656097829,-1.3435852305039762,0.9412737191408872,-0.0603742785751819,0.0420854724943637,0.1609481126070022,0.1220230428160187,0.0500164301777866,2.312528435036107,-17.531381607055664,-20.364051818847656,-31.891326904296875,-0.042347336556698874,1009.2972013512954
3.062163818359375,-0.394759342417866,-1.3992398977085947,0.9433101934045552,-0.091358296573162,0.0811497867107391,0.1480669379234314,0.1213938479563984,0.0504428394276053,2.31412487316534,-17.804731369018555,-20.18694305419922,-32.3262939453125,-0.04266438690324159,1009.2972394949848
3.07223388671875,-0.3686246015449985,-1.4409379357531666,0.8800783689439297,-0.1082000136375427,0.0997503995895385,0.1380476057529449,0.1205229204902564,0.0511815560343589,2.315624577952736,-17.75227928161621,-20.33174133300781,-32.250213623046875,-0.04298146799927843,1009.2972776423736
3.08230419921875,-0.3019755890520289,-1.455139187324047,0.7661684966474771,-0.1107012629508972,0.093287706375122,0.1346044093370437,0.1195714895240909,0.0519850982142466,2.317058681450878,-17.680490493774414,-20.28706359863281,-31.841796875,-0.043298556782688805,1009.2973157906873
3.092373779296875,-0.2049119298772886,-1.4607856687784193,0.6259685833185911,-0.0908849313855171,0.0799274519085884,0.1416832655668258,0.1187457047084474,0.0526776699623157,2.3185190163037688,-17.740617752075195,-20.086151123046875,-31.93017578125,-0.043615622503978574,1009.2973539362264
3.10244384765625,-0.1338509826935827,-1.4536343357190489,0.5085948343038559,-0.0566995367407798,0.0576040409505367,0.1533979773521423,0.1181893191052467,0.0531683231353214,2.320065597091161,-17.675031661987305,-20.03954315185547,-31.5980224609375,-0.04393270360001542,1009.2973920836153
3.11251416015625,-0.0925785131173208,-1.4397303135290742,0.4045797485560178,-0.0328838787972927,0.0422435663640499,0.1649725288152694,0.1179422005340473,0.0534619525168006,2.321711824435529,-17.918655395507812,-20.097434997558597,-32.06011962890625,-0.04424979238342579,1009.297430231929
3.122583984375,-0.0937699148589745,-1.439091431103647,0.3130746002912521,-0.0103029338642954,0.0336745791137218,0.1749125123023986,0.1179463381579356,0.0535998779178755,2.323446953763822,-17.87276268005371,-20.147216796875,-32.111358642578125,-0.044566865792089086,1009.297468378393
3.132654052734375,-0.1037771853387355,-1.4926614009886978,0.260992530876398,0.0004954971373081,0.0563380941748619,0.1787133514881134,0.1181153950694734,0.0538144915296729,2.325242294986205,-17.773563385009766,-19.69149780273437,-32.08294677734375,-0.04488394688812594,1009.2975065257818
3.1427236328125,-0.1338134271621704,-1.5369310430869458,0.2132183877885341,0.0109103210270404,0.1039636731147766,0.1818593442440033,0.1184097296651601,0.0543815566316786,2.3270658484731,-17.618967056274414,-19.565338134765625,-31.88287353515625,-0.04520101260941571,1009.2975446713209
3.1527939453125,-0.2012352141259238,-1.5252278919421136,0.1681833142757415,0.0173716079443693,0.1550539135932922,0.1893309503793716,0.1188278540293598,0.0554241531171835,2.328938872218198,-17.678146362304688,-19.60752868652344,-32.1072998046875,-0.045518101392826076,1009.2975828196346
3.162864013671875,-0.2404949556402862,-1.5356033016145227,0.1472106688737869,0.0318895652890205,0.2116604745388031,0.2013953477144241,0.1193912730612584,0.0570035556211509,2.3309020531644085,-17.7850341796875,-19.664573669433597,-31.537384033203125,-0.045835182488862924,1009.2976209670235
3.172933837890625,-0.2060691736210137,-1.5540312309697268,0.1860240913927555,0.0450060106813907,0.2357472032308578,0.2188950031995773,0.1201727747591627,0.0589940052797197,2.332994569189092,-17.764522552490234,-19.445571899414062,-31.642608642578125,-0.04615225589752622,1009.2976591134875
3.1830029296875,-0.1631356389647349,-1.5855159180358052,0.1684177075535058,0.0604377016425132,0.2177695333957672,0.2368385791778564,0.1211810067363296,0.0609736107571765,2.335282180316482,-17.91363525390625,-19.548194885253903,-32.200653076171875,-0.04646930624406895,1009.2976972571769
3.193072998046875,-0.1734260372348129,-1.6067504292443393,0.1389677411854267,0.070875234901905,0.199085459113121,0.2556623518466949,0.1223968786101062,0.062750506561791,2.3377359699747773,-17.934385299682617,-19.66742706298828,-32.011444091796875,-0.046786387340105776,1009.2977354045657
3.20314306640625,-0.24754691997841,-1.6188434564895926,0.1788742196381092,0.0582920648157596,0.1799607574939727,0.2553928196430206,0.1236450867545142,0.0642752938683895,2.340282395243165,-17.94405746459961,-19.798912048339844,-31.81689453125,-0.047103468436142625,1009.2977735519546
3.213213134765625,-0.3484698849298059,-1.6207980976887046,0.1757376751780509,0.041377954185009,0.1911398768424987,0.2516982555389404,0.1248589268977184,0.0657251969262027,2.342823698401858,-17.60215950012207,-19.26319122314453,-31.87322998046875,-0.04742054953217946,1009.2978116993434
3.22328271484375,-0.3910368878286331,-1.6224501026794311,0.1402256322920322,0.0291425958275795,0.2600425183773041,0.2443729639053344,0.1261502134221007,0.0675158753767916,2.345328681134572,-17.65904998779297,-19.52521514892578,-31.377716064453125,-0.04773761525346924,1009.2978498448825
3.233352783203125,-0.2832317621480673,-1.6898852240487932,0.0896387698709964,0.034380417317152,0.3665997385978699,0.2395791709423065,0.127493752017734,0.0701883507291537,2.3477802600919686,-17.740400314331055,-19.57122039794922,-31.68710327148437,-0.04805469634950608,1009.2978879922714
3.243423095703125,-0.0783429574180394,-1.7969385084487497,0.0272007261365652,0.0386627800762653,0.4048933088779449,0.2410156726837158,0.1280104136589791,0.073814209689563,2.3501781135437736,-17.837717056274414,-19.321273803710938,-31.752197265625,-0.04837178513291644,1009.2979261405851
3.253492919921875,-0.0107690851651132,-1.8178201145663857,-0.1915232733309269,0.0310044419020414,0.3090555071830749,0.2484193444252014,0.1285250694370649,0.0771583391975534,2.352629794435752,-17.453094482421875,-19.24658966064453,-32.08099365234375,-0.048688858541579755,1009.297964287049
3.26356298828125,-0.0878078281167894,-1.797056435739994,-0.4877601360678672,0.0146220065653324,0.1435704082250595,0.2266120463609695,0.1289522028594774,0.0791510208144705,2.355048111691989,-17.280664443969727,-19.189537048339844,-32.166107177734375,-0.0490059396376166,1009.2980024344379
3.273633056640625,-0.2710537600331008,-1.6120440056078136,-0.7032979067146777,-0.0531484819948673,-0.0786318555474281,0.1310784220695495,0.1289276363193899,0.0792680481435856,2.3569083763921697,-17.29146385192871,-19.130203247070312,-31.803192138671875,-0.049323020733653425,1009.2980405818267
3.283702880859375,-0.498613976906985,-1.2726231040522455,-1.0590917047917845,-0.1624581813812255,-0.3079241514205932,-0.0025305033195763,0.1278858217249378,0.077185548738868,2.3576512380858112,-17.409984588623047,-18.98307037353516,-31.91278076171875,-0.049640094142316744,1009.2980787282908
3.29377294921875,-0.6223907978970558,-0.9588954466797412,-1.4797808766275644,-0.2797056138515472,-0.4318996071815491,-0.1162485182285308,0.1255720759270545,0.0734021256082246,2.357181088273265,-17.427200317382812,-18.882247924804688,-31.78961181640625,-0.04995717523835358,1009.2981168756795
3.303843017578125,-0.5994778320822864,-0.7154790506348013,-1.873182813087105,-0.3653931021690368,-0.4137501418590545,-0.1771110743284225,0.1221539609866544,0.069222983086386,2.355902556322067,-17.69011116027832,-18.856422424316406,-31.99169921875,-0.05027425633439041,1009.2981550230684
3.313911865234375,-0.5287019489176571,-0.4185671381805091,-2.268188677611947,-0.415000706911087,-0.3429340422153473,-0.2041653096675872,0.1180381135327361,0.0655696828540957,2.3542418185920235,-17.97507095336914,-18.81494903564453,-32.10137939453125,-0.050591298993559596,1009.298193165833
3.32398193359375,-0.424276857596822,-0.1037871222108602,-2.698417831209302,-0.4132709801197052,-0.2617124319076538,-0.2104564905166626,0.113684819192174,0.0627070001507094,2.3523874432415077,-18.006820678710938,-18.838302612304688,-31.9610595703125,-0.050908380089596444,1009.2982313132218
3.334052001953125,-0.2986453851833939,0.1264146221477538,-3.030228696152568,-0.3714599311351776,-0.153372511267662,-0.2089789360761642,0.1095759162977282,0.0608082949594856,2.3505190059445087,-18.22429847717285,-18.55575561523437,-32.0853271484375,-0.05122546118563328,1009.2982694606106
3.3441220703125,-0.2691085807820781,0.3741756963334977,-3.1579601730525493,-0.3144789338111877,-0.0441378988325595,-0.2183620631694793,0.1059958827248845,0.0599947175794842,2.348577372455316,-17.97742462158203,-18.47112274169922,-32.4774169921875,-0.051542542281670115,1009.2983076079995
3.35419189453125,-0.320218115370348,0.6551661092955618,-3.0988667635709044,-0.2741352915763855,0.0537559986114501,-0.231132760643959,0.1029244267354354,0.0602605323723619,2.346498713993821,-17.940074920654297,-18.40058135986328,-32.2938232421875,-0.05185961569033343,1009.2983457544635
3.364261962890625,-0.3922192294809967,0.9142973032794892,-2.900281881290674,-0.2614317536354065,0.1348748207092285,-0.2339716851711273,0.1000980551227233,0.0614287959795554,2.344301266013531,-17.721908569335938,-18.44617462158203,-32.110076904296875,-0.05217669678637026,1009.2983839018523
3.37433203125,-0.3901876505881547,1.1131210358168928,-2.674291690212488,-0.2412700057029724,0.2191206216812133,-0.2148983925580978,0.0974101176133436,0.0634159021163545,2.3421651133397456,-17.6838436126709,-18.33142852783203,-32.328125,-0.0524937778824071,1009.2984220492411
3.38440185546875,-0.2922116988740861,1.2526945608757436,-2.4610259561508894,-0.183726817369461,0.3187654614448547,-0.1626820564270019,0.0951220555282843,0.0662933915323943,2.3403873737129866,-17.803848266601562,-18.632301330566406,-32.184112548828125,-0.05281085129107041,1009.2984601957052
3.394471923828125,-0.1572534125257283,1.378431795218587,-2.1618243983894585,-0.0849881619215011,0.4402563571929931,-0.0765789896249771,0.0936549310572043,0.0702336490991612,2.339253259539201,-17.782669067382812,-18.37604522705078,-32.256103515625,-0.05312793238710725,1009.298498343094
3.404541748046875,-0.0415878556683659,1.4907624354995783,-1.7352438304275273,0.0294289607554674,0.5590804815292358,0.0337128937244415,0.0933589060286054,0.0753029983633558,2.339046136631675,-17.688528060913086,-18.346176147460938,-32.3990478515625,-0.053445005795770564,1009.2985364895579
3.41461181640625,0.0513842233438044,1.4982660891279578,-1.1870195810467004,0.1331678330898285,0.6522008776664734,0.1617631018161773,0.0942653800569773,0.0813311841595267,2.3399631029702883,-17.383562088012695,-18.201339721679688,-32.64312744140625,-0.05376208689180739,1009.2985746369468
3.424681884765625,0.0693558602988719,1.330605045160651,-0.5751034884780645,0.2078535258769989,0.7061190009117126,0.2832583785057068,0.0961745525279944,0.0880061176918632,2.3420586141541824,-17.035404205322266,-18.25439453125,-32.68365478515625,-0.054079167987844234,1009.2986127843357
3.434751953125,0.0173194566566497,1.0711092556480315,-0.0019411971956491,0.2576312124729156,0.7089637517929077,0.3880442678928375,0.0988244446992594,0.094861832219869,2.3452514050508144,-17.12188720703125,-18.25189208984375,-32.801513671875,-0.054396249083881076,1009.2986509317245
3.44482080078125,-0.0848957400623709,0.8141569400731473,0.4954413382202386,0.2911835610866546,0.649529755115509,0.4632532596588135,0.1019964867877371,0.1013360408504153,2.3492920035085354,-16.864791870117188,-18.186363220214844,-33.0469970703125,-0.054713291743050264,1009.2986890744891
3.454890869140625,-0.2327343315761536,0.6425177862551062,0.8843255049943923,0.3121876120567322,0.5289868712425232,0.4804317355155945,0.1055244875726508,0.1068498798103118,2.353749092695102,-16.52587127685547,-17.99498748779297,-33.164520263671875,-0.0550303728390871,1009.2987272218779
3.4649609375,-0.4159455575052648,0.5600977155912668,1.150454814237356,0.3109817206859588,0.3445762991905212,0.4502181708812713,0.1091648674271549,0.110819786273688,2.3581172478172223,-16.159196853637695,-18.238815307617188,-33.3582763671875,-0.055347453935123934,1009.2987653692668
3.475031005859375,-0.5389077011115849,0.5224956416234374,1.3077443940550089,0.2965593934059143,0.1346547454595565,0.3904845118522644,0.1126916735470632,0.1128064171094722,2.362016138191508,-16.313949584960938,-18.20391845703125,-33.239990234375,-0.05551794740302083,1009.2987861644999
3.4851005859375,-0.597851911380887,0.4864118632640689,1.3861223497211932,0.2624461650848388,-0.0780021250247955,0.3055086433887481,0.115899545857529,0.1127231283239377,2.3652105703552038,-16.38764190673828,-18.04511260986328,-33.188507080078125,-0.05557085694104286,1009.2987930408298
3.4951708984375,-0.6124672967106104,0.4867082889273762,1.3723603663504125,0.2054946422576904,-0.268239289522171,0.2245640009641647,0.1185265244812971,0.1106501063304092,2.3676037953769136,-16.61858558654785,-18.234153747558597,-33.538726806640625,-0.05562377032749777,1009.2987999176597
3.505240966796875,-0.5348250349078327,0.5292492806021124,1.2718757928162812,0.1607615202665329,-0.3896200358867645,0.1569980084896087,0.1205443035242097,0.1070919069033083,2.369313146441229,-16.65752601623535,-18.343833923339844,-33.1507568359375,-0.055676682431141725,1009.298806794323
3.515310791015625,-0.3987725966472178,0.6280099529530853,1.1079261705875396,0.1209938004612922,-0.4347961246967315,0.1059602499008178,0.1220814698385864,0.1027649996750139,2.3704932254791533,-16.849279403686523,-18.47411346435547,-32.911376953125,-0.05572959325197471,1009.2988136708196
3.525381103515625,-0.2424994273304939,0.7780551146004349,0.9153951815187932,0.0890071019530296,-0.4338722825050354,0.0625203624367713,0.1232149220206898,0.09826170015172,2.371242707811291,-17.023460388183594,-18.70152282714844,-33.392120361328125,-0.055782506638429624,1009.2988205476496
3.535450927734375,-0.0466729769129306,0.944993762577325,0.7355196758836507,0.0622705668210983,-0.4206558167934418,0.0182767324149608,0.1239932507998297,0.0939044995783442,2.371567118261656,-17.232898712158203,-18.90985107421875,-33.13641357421875,-0.05583541745926262,1009.2988274241462
3.545520751953125,0.148600442731753,1.0738972058661282,0.5537099873155356,0.0445719957351684,-0.3869119584560394,-0.0172833930701017,0.1245228136063155,0.0898341473932393,2.3715098059503648,-17.24306869506836,-18.88465881347656,-32.968994140625,-0.055888328280095614,1009.2988343006427
3.5555908203125,0.3791763541650026,1.1768491924270987,0.4023416142404079,0.0278950165957212,-0.355562299489975,-0.0352375842630863,0.1248458785594725,0.0861496656152254,2.371208307037671,-17.360231399536133,-18.774688720703125,-32.527008056640625,-0.055941240383739564,1009.298841177306
3.565660888671875,0.5907793426461517,1.2900631914138794,0.2380897941946983,0.0172655414789915,-0.3350362777709961,-0.043162353336811,0.1250240834975224,0.082723714447856,2.370813491779705,-17.658267974853516,-18.888107299804688,-32.59912109375,-0.05599415248738352,1009.2988480539693
3.575729736328125,0.7591298301823437,1.4017077491268517,0.0795364780515432,0.0151241272687911,-0.3305563926696777,-0.0389990210533142,0.1251332713084264,0.0794374635298512,2.3703844998480377,-17.842668533325195,-18.60826110839844,-32.514068603515625,-0.056047058176972676,1009.2988549297991
3.585800048828125,0.964280062327534,1.42238433419168,-0.0953536403864622,0.0227234568446874,-0.3278319835662842,-0.0118507575243711,0.1252898032341777,0.0761690175403173,2.370112792375211,-17.70530891418457,-18.61229705810547,-32.54339599609375,-0.05609997156342759,1009.298861806629
3.595869873046875,1.1505041332717985,1.3871763888187705,-0.2481815646201372,0.0287339501082897,-0.3217988014221191,0.0172954946756362,0.1255468216610282,0.0729095962000876,2.370134914422319,-17.881460189819336,-18.73272705078125,-32.111236572265625,-0.05615288238426058,1009.2988686831256
3.60593994140625,1.22030561844632,1.4001592045105993,-0.4074053273707628,0.0366334170103073,-0.3022245764732361,0.0492584891617298,0.1258968817246017,0.0697136874644674,2.3704548491013657,-18.098682403564453,-18.61695098876953,-31.97735595703125,-0.05620579448790453,1009.2988755597889
3.616010009765625,1.276308222305775,1.378282157614827,-0.5204699810147285,0.0473440438508987,-0.2669287621974945,0.06700050085783,0.1263398676266504,0.0667689961940151,2.3710123622309416,-18.42327690124512,-18.802879333496094,-31.916717529296875,-0.05625870659154848,1009.2988824364522
3.626079833984375,1.3270683954671023,1.3387905435733496,-0.6000999825686216,0.0658780485391616,-0.2169913053512573,0.0811666548252105,0.1269410724297485,0.0642271293076839,2.371727383359155,-18.320327758789062,-18.90673065185547,-32.01123046875,-0.05631161741238148,1009.2988893129487
3.63614990234375,1.2873548092380165,1.2908100642584264,-0.6902122151702642,0.0888050869107246,-0.1753986179828643,0.0841166153550148,0.1277618590714841,0.0621281833780871,2.372526194270866,-18.60757064819336,-18.982032775878903,-31.436431884765625,-0.05636452951602543,1009.298896189612
3.6462197265625,1.1896269870661198,1.2511422168672084,-0.7273533205628394,0.1202133446931839,-0.0969546735286712,0.0837677344679832,0.1288527815457614,0.0606431392582433,2.3733205883049866,-18.723859786987305,-18.75476837158203,-31.67779541015625,-0.05641744033685842,1009.2989030661087
3.6562900390625,1.0812291561894118,1.199041588882357,-0.7033703874289989,0.1555852591991424,-0.0045495484955608,0.0817579552531242,0.1302811061667361,0.0600439590454564,2.374071096785191,-18.49567222595215,-18.774513244628903,-31.96710205078125,-0.056470353723313334,1009.2989099429386
3.66635986328125,0.9740662739351392,1.1558473209306597,-0.6320511181026697,0.1854059994220733,0.0899886712431907,0.0729687288403511,0.1320409269873421,0.0603840551102113,2.3747589518868657,-18.5177059173584,-18.957504272460938,-31.7900390625,-0.05652326454414633,1009.2989168194352
3.6764296875,0.921812647345662,1.1115488911293447,-0.4894242698878049,0.215530127286911,0.1821672767400741,0.0696855410933494,0.1340878567440907,0.0616686350053651,2.3753613418967747,-18.503063201904297,-18.87981414794922,-31.720733642578125,-0.05657617536497932,1009.2989236959318
3.6865,0.8848355734083801,1.0379176915988326,-0.284519536936283,0.2479565143585205,0.2658166289329529,0.0824277028441429,0.1364429925375694,0.0638506607722404,2.375975516204137,-18.44424819946289,-18.75415802001953,-31.365234375,-0.05662908875143423,1009.2989305727618
3.696570068359375,0.8364475362058729,0.9799206990517676,-0.0464285736978054,0.2751402556896209,0.3101045787334442,0.1045167297124862,0.1391144446943961,0.066659325456994,2.376754476070053,-18.404651641845703,-19.17096710205078,-32.12652587890625,-0.056682000855078185,1009.298937449425
3.7066396484375,0.8125348187640309,0.9253155409000814,0.19588146854043,0.2985798120498657,0.3298979997634887,0.1251391768455505,0.1420592104508245,0.0697586839639668,2.3777406777034047,-18.44886779785156,-19.21063995361328,-31.9063720703125,-0.05673491039310022,1009.298944325755
3.716709716796875,0.765377930791676,0.8490925713106989,0.4543541255503893,0.3045266568660736,0.3223766684532165,0.1335628926753997,0.1451830569625691,0.0728844963701295,2.3788391768581363,-18.079753875732425,-18.89056396484375,-31.7509765625,-0.05678782249674417,1009.2989512024182
3.72677880859375,0.6655520403619856,0.7466868204556405,0.7122995438158511,0.2924276292324066,0.3084882795810699,0.1315612643957138,0.1482932714369415,0.0758903001216266,2.379970877497495,-18.15136337280273,-19.186080932617188,-31.58807373046875,-0.056840729469144285,1009.2989580784147
3.736848876953125,0.56182132451348,0.679320088147372,0.9467594570755958,0.2618130147457123,0.2782481014728546,0.1176164671778678,0.1511758951391577,0.078697789383234,2.381018679456955,-18.0891227722168,-19.186004638671875,-31.81591796875,-0.056893641572788235,1009.298964955078
3.7469189453125,0.4826392128575593,0.6254825533673167,1.13146194447577,0.2216314971446991,0.2427612245082855,0.1040441989898681,0.1536801134898776,0.0811780610518291,2.3819481033166574,-17.738971710205078,-19.647781372070312,-31.449371337890625,-0.056946553676432185,1009.2989718317413
3.75698876953125,0.4294079734075814,0.5810339014403522,1.2360405093252658,0.1592296361923217,0.1997961699962616,0.0832313299179077,0.1556561800134279,0.0832912245554039,2.382736634190093,-17.751575469970703,-19.34503936767578,-31.62921142578125,-0.05699946449726518,1009.2989787082378
3.767058837890625,0.3862018688876181,0.5276140075504779,1.3027134141504764,0.0932950973510742,0.1489337980747223,0.0732777640223503,0.1569847242971185,0.0849325308250269,2.383430783338599,-17.910890579223633,-19.283103942871094,-31.751953125,-0.05705237660090913,1009.2989855849011
3.777129150390625,0.3736807524234056,0.4824478550039232,1.2664368166327475,0.0363135002553463,0.1060128584504127,0.0668026730418205,0.1576669993134763,0.0860997537690277,2.3840806864033754,-17.940460205078125,-19.300987243652344,-31.698455810546875,-0.05710528998736404,1009.298992461731
3.78719873046875,0.3581911415424197,0.453076945221424,1.1806219889640808,0.0010447241365909,0.0689949169754982,0.0636952966451644,0.1578789864168095,0.0868705793606236,2.3847244180016363,-17.883159637451172,-19.397262573242188,-31.678009033203125,-0.05715819952538608,1009.2989993380609
3.797268798828125,0.3471318412590771,0.4280931644819676,1.0162906739413735,-0.0077719260007143,0.0354031547904014,0.0661479160189628,0.1578641276959326,0.0872876870754647,2.385382356608231,-17.92559242248535,-19.25763702392578,-31.892486572265625,-0.05721111162903003,1009.2990062147242
3.807338623046875,0.3182443310793489,0.4043650828920304,0.8305652732342481,0.0129240313544869,0.0097204251214861,0.0696742087602615,0.1579171268363159,0.087397784040959,2.3860748334033923,-17.88533592224121,-19.45664978027344,-31.72894287109375,-0.05726402244986303,1009.2990130912208
3.817408935546875,0.3024729806475341,0.3929806423075497,0.7047790851831436,0.0416939556598663,-0.007289623375982,0.070439413189888,0.1582249100216056,0.0872996497223332,2.38675769003801,-17.61315155029297,-19.531776428222656,-31.35662841796875,-0.05731693583631794,1009.2990199680507
3.82747900390625,0.2813092696528881,0.3714055009678006,0.6526636980205774,0.0757949352264404,-0.0147504694759845,0.073726549744606,0.1588556355951434,0.0870825124219095,2.387450641094859,-17.772899627685547,-19.356590270996094,-31.499267578125,-0.05736984793996189,1009.299026844714
3.837548583984375,0.266109289368242,0.3587552782312035,0.665719578948617,0.0921234339475631,-0.0161216724663972,0.0842161700129509,0.1597436849602091,0.0868247014110177,2.388156457976748,-17.772781372070312,-19.3582763671875,-31.983367919921875,-0.05742275747798392,1009.2990337210439
3.847618896484375,0.2455851183861493,0.308507438506186,0.7487982596516609,0.081711009144783,-0.0034692608751356,0.0903725996613502,0.1607051434002201,0.0866079547837389,2.3889576071457785,-17.623340606689453,-19.1619873046875,-31.66659545898437,-0.05747567086443883,1009.299040597874
3.85768896484375,0.2179699662297964,0.2394884089462459,0.858374486657977,0.058445356786251,0.0131986560299992,0.1015508696436882,0.1614898202228827,0.0865188843774273,2.389854715923521,-17.75324821472168,-19.396934509277344,-31.94500732421875,-0.05752858296808278,1009.2990474745372
3.8677587890625,0.1999284058436751,0.1582899890318513,0.9646756375163792,0.0374306216835975,0.0401828698813915,0.1180227845907211,0.1620520462541036,0.0866442919686581,2.390930646810593,-17.792316436767578,-19.57904815673828,-31.66778564453125,-0.05758149378891578,1009.2990543510338
3.877827880859375,0.1913135030377656,0.0644426615551114,1.0611340242743492,0.021273948252201,0.0689534172415733,0.1271764039993286,0.1624515374778013,0.0870313508058577,2.392180627549383,-17.696426391601562,-19.47327423095703,-31.75848388671875,-0.057634400761315895,1009.2990612270302
3.887897705078125,0.172054675816372,0.0102362934626638,1.1659750394523145,-0.0089963395148515,0.0560235083103179,0.1273050457239151,0.1626177425398718,0.087494781545288,2.3934837346029028,-17.83646583557129,-19.702613830566406,-31.75115966796875,-0.05768731158214889,1009.2990681035268
3.8979677734375,0.1665859620817005,-0.0680329411320388,1.2316700391560793,-0.0417980775237083,0.044017668813467,0.1185426041483879,0.1624621987968779,0.087780412751283,2.3947642309133914,-17.68891716003418,-19.713211059570312,-31.71405029296875,-0.05774022368579284,1009.2990749801901
3.9080380859375,0.1636561191748827,-0.1759874121554195,1.33642629866004,-0.0684190392494201,0.018139200285077,0.1028326153755188,0.1619915701474586,0.0879378522244081,2.3959315627494044,-17.867950439453125,-19.65459442138672,-31.915252685546875,-0.05779313707224775,1009.29908185702
3.918107666015625,0.1861594812754541,-0.2794483711518347,1.3422288474589583,-0.0879636704921722,-0.0359004065394401,0.0803186520934104,0.1612740417760697,0.0877197976493258,2.3969359044520715,-17.808303833007812,-19.597686767578125,-31.61578369140625,-0.057846046610269784,1009.2990887333499
3.928177734375,0.2319686079006642,-0.3413467550516128,1.280483462163806,-0.0901160389184951,-0.0918355733156204,0.0649969577789306,0.1604137006253424,0.0869451391055169,2.397758157276669,-17.899320602416992,-19.523269653320312,-32.202911376953125,-0.057898958713913734,1009.2990956100132
3.938248046875,0.2612303582202643,-0.3843113059006631,1.2110007606148718,-0.0849552750587463,-0.1436533778905868,0.046967901289463,0.1595926141651413,0.0856685019245434,2.3984203068847454,-17.862140655517578,-19.25481414794922,-31.842559814453125,-0.057951872100368645,1009.2991024868433
3.94831787109375,0.2742245720889419,-0.4108974072702229,1.1073632760077714,-0.0822572261095047,-0.2074299603700637,0.0305977165699005,0.1587786374091024,0.083845259741431,2.398889567627843,-17.936616897583008,-19.24225616455078,-31.850006103515625,-0.05800478292120164,1009.2991093633398
3.958387939453125,0.2727216201800853,-0.4286769557192921,0.9802648363143204,-0.0885620489716529,-0.2692144513130188,0.0156278666108846,0.157947048643395,0.0814006518582829,2.3991860729064047,-18.152292251586918,-19.046417236328125,-32.1043701171875,-0.0580576950248456,1009.2991162400031
3.968457763671875,0.3058578738454729,-0.4545701063886284,0.8249491869181395,-0.1058869734406471,-0.3103131353855133,0.0050623072311282,0.1569885535603315,0.0784521985816842,2.3993596727087536,-18.2612361907959,-19.237525939941406,-31.805572509765625,-0.058110605845678585,1009.2991231164997
3.97852783203125,0.3402732075359672,-0.4791233867563307,0.6669295392602682,-0.1365316659212112,-0.3101424872875213,-0.0050343563780188,0.1557823538638603,0.0752925971215492,2.399419664145882,-18.516338348388672,-19.010284423828125,-31.45831298828125,-0.058163517949322535,1009.299129993163
3.988597900390625,0.3458379289910197,-0.5243561747983098,0.5109416896909476,-0.157805785536766,-0.2593355178833008,-0.0001858053728938,0.1543108117844636,0.0724231927992182,2.399485359359333,-18.789981842041016,-19.15685272216797,-31.803436279296875,-0.05821643005296649,1009.2991368698263
3.998667724609375,0.36246859966591,-0.5528619921840727,0.3423158923447132,-0.170623242855072,-0.1921518296003341,0.0127794966101646,0.1526509890641436,0.0701426664627602,2.399669004081993,-18.991924285888672,-18.99423217773437,-31.790496826171875,-0.05826934087379949,1009.2991437463228
4.008738037109375,0.3785254159756004,-0.5994872574977577,0.145179455307126,-0.1617461293935775,-0.1290953606367111,0.0317281559109687,0.1510210875074414,0.0684804434806189,2.400014098468446,-18.9831600189209,-18.90367126464844,-31.778106689453125,-0.0583222542602544,1009.2991506231529
4.018807861328125,0.4047563472319394,-0.705861911983788,0.0152437463611364,-0.1305188834667205,-0.0818100273609161,0.0478767752647399,0.1496030994352157,0.0673939248342749,2.400519980791905,-18.611278533935547,-18.86834716796875,-31.759735107421875,-0.058375165081087386,1009.2991574996494
4.028877685546875,0.4274927143707871,-0.7983129627965391,-0.0668751493990421,-0.1013420894742012,-0.0774163454771041,0.0548302829265594,0.1485101453051626,0.0665641645663105,2.401127986942411,-18.610734939575195,-18.62925720214844,-32.0211181640625,-0.05842807590192038,1009.299164376146
4.038947998046875,0.4114979304466396,-0.886634950980544,-0.1087760165393352,-0.0763790532946586,-0.1082022488117218,0.06089299172163,0.1477042260960447,0.0655804523389873,2.4017809356557227,-18.677602767944336,-18.716270446777344,-31.6309814453125,-0.05848098928837529,1009.299171252976
4.0490166015625,0.343543388313055,-0.9689848790176212,-0.1049094042390584,-0.0674444139003753,-0.155219554901123,0.0576356798410415,0.1470821002318088,0.0641851477382062,2.402424766200566,-18.74496078491211,-19.065841674804688,-31.318084716796875,-0.058533893695153494,1009.2991781286389
4.059086669921875,0.2673902690894901,-1.06168742037341,-0.1434387491196393,-0.0630572140216827,-0.1819157302379608,0.035309549421072,0.1465188873126705,0.0624475452887025,2.4029337019826205,-18.837726593017575,-18.672409057617188,-31.467315673828125,-0.058586805798797444,1009.2991850053022
4.069156982421875,0.2193976609453558,-1.1264194202639162,-0.1914303343504667,-0.0547800995409488,-0.1952347457408905,0.0053774830885231,0.1460162146127823,0.0605689690596585,2.4031849117845456,-19.11775016784668,-18.690673828125,-31.309478759765625,-0.058639719185252355,1009.2991918821323
4.079226806640625,0.1797323708374053,-1.157097905513644,-0.2655821967542171,-0.0418940559029579,-0.1944900155067443,-0.0293810628354549,0.145584091513451,0.05866601767528,2.403087415328249,-19.030563354492188,-18.276626586914062,-31.59710693359375,-0.05869263000608534,1009.2991987586288
4.089296875,0.1707038091966882,-1.1828270977929234,-0.2990343845009803,-0.0307354107499122,-0.1776167452335357,-0.0616085082292556,0.1452765360975856,0.0569230493472859,2.4026340086171376,-19.395353317260746,-18.588302612304688,-31.54257202148437,-0.0587455421097293,1009.2992056352921
4.099366943359375,0.1768516643019393,-1.1587148391909896,-0.3081161011010408,-0.0177187919616699,-0.1645294725894928,-0.0816022530198097,0.1450936083368818,0.0553911443529649,2.401907459853964,-19.280221939086918,-18.722915649414062,-31.260986328125,-0.05879845421337325,1009.2992125119554
4.109436767578125,0.1678616445733234,-1.1092828458935022,-0.3513368186682462,-0.0046610450372099,-0.1564329415559768,-0.0962517708539962,0.1450680842781955,0.0540022003973999,2.400987968556946,-19.19333267211914,-18.76758575439453,-31.1983642578125,-0.058851365034206245,1009.299219388452
4.1195068359375,0.1439958350131288,-1.0452905584543943,-0.390556483900547,0.0093453545123338,-0.1573099792003631,-0.1118109226226806,0.145232295655693,0.0527138577299095,2.399922146635062,-19.510656356811523,-18.42779541015625,-31.348663330078125,-0.058904277137850194,1009.2992262651153
4.129576904296875,0.1069391930336132,-0.9933202788509428,-0.4748486320465803,0.0362816303968429,-0.1712218225002288,-0.1255030333995819,0.1456379975430906,0.0513679334473623,2.3986904985889748,-19.402101516723636,-18.609947204589844,-31.168487548828125,-0.05895718924149415,1009.2992331417786
4.139646728515625,0.0861765736531466,-0.9514284717999398,-0.6208201145142317,0.0685133785009384,-0.1595045030117035,-0.1474425494670868,0.1462850687777043,0.0499482205186014,2.397279453993435,-19.54944229125977,-18.53759765625,-31.218292236328125,-0.05901010006232714,1009.2992400182751
4.149716796875,0.1000984237607568,-0.9503433069117366,-0.6809311766058206,0.0947521701455116,-0.1281018555164337,-0.1708501428365707,0.1471681352008212,0.0487803954813012,2.395615722561262,-19.65963363647461,-18.58477783203125,-31.155242919921875,-0.059063012165971096,1009.2992468949384
4.159786865234375,0.1426432878930121,-0.963290320637822,-0.8231295702755451,0.1096808835864067,-0.1198516190052032,-0.1957164108753204,0.1482245409589241,0.0478563830428876,2.393703561404489,-19.864648818969727,-18.756614685058597,-30.9293212890625,-0.059115924269615046,1009.2992537716017
4.16985693359375,0.1204816153695806,-0.9252988820262252,-0.9995856228560208,0.1067716479301452,-0.1638281196355819,-0.2375253736972808,0.1493028737762743,0.0467998058590513,2.3914641475293434,-19.613889694213867,-18.66248321533203,-31.04940795898437,-0.059168836373259,1009.299260648265
4.179927001953125,0.095383049144037,-0.8010058551423251,-1.223553952717781,0.0916348621249198,-0.2281856834888458,-0.2954927086830139,0.1502538801991365,0.0452728879498601,2.388731209282115,-19.694536209106445,-18.795372009277344,-30.8931884765625,-0.05922174847690295,1009.2992675249283
4.18999658203125,0.1010831239491701,-0.6173654440157115,-1.4427701196163891,0.0477598160505294,-0.3113144040107727,-0.375883936882019,0.1508902670682601,0.0430820408447018,2.3852819883698397,-19.674579620361328,-19.04742431640625,-31.30322265625,-0.059274658014924986,1009.2992744012581
4.20006689453125,0.2008817610457539,-0.4078836124069988,-1.654795498228073,-0.0231717675924301,-0.4010208249092102,-0.4593689143657684,0.1508737032832394,0.0401478985157706,2.3810270372694387,-19.875343322753903,-19.47132873535156,-31.2989501953125,-0.0593275714013799,1009.2992812780881
4.210136962890625,0.3090415819155052,-0.1628334776803851,-1.9248937111020088,-0.1098038628697395,-0.520971953868866,-0.5069097876548767,0.1500190957133446,0.0362693122688378,2.376079617816117,-19.697416305541992,-19.26087951660156,-30.9034423828125,-0.059380483505023854,1009.2992881547514
