Timestamp,Acc x (m/s^2),Acc y (m/s^2),Acc z (m/s^2),Gyro x (rad/s),Gyro y (rad/s),Gyro z (rad/s),Beccheggio/Pitch (rad/s),Rollio/Roll (rad/s),Imbardata/Yaw (rad/s),Mag x (microTesla),Mag y (microTesla),Mag z (microTesla),Altitudine (m),Pressione (milliBar)
0.021987548828125,-0.6521987839225679,-0.351440717434138,-0.5134586409479379,0.2558818161487579,0.0110695529729127,0.3542194366455078,0.104121562245961,0.084473413567844,2.253915778433731,-14.002921104431152,-18.568389892578125,-33.176971435546875,-0.008799560686705272,1014.5486695093898
0.0320595703125,-0.5883323148202151,-0.2694355111815035,-0.453026676338911,0.2904112935066223,-0.0195139292627573,0.3097074031829834,0.1071601270695155,0.084149430216659,2.2570368536682954,-14.021674156188965,-18.507164001464844,-33.05419921875,-0.00895866232881083,1014.5486878849404
0.04213134765625,-0.4430374895051121,-0.2861560520969331,-0.4191144698649645,0.3147941529750824,-0.1014769673347473,0.2697101831436157,0.1104489198589155,0.0832402932793155,2.2596979553373373,-14.150397300720217,-18.87924575805664,-33.162811279296875,-0.009117760114374348,1014.5487062600455
0.052202392578125,-0.3561407848838716,-0.3203444451637566,-0.3661526950061321,0.3226821422576904,-0.1331402510404586,0.2432417273521423,0.1138658556591729,0.0817665578665477,2.2620195866296786,-14.429911613464355,-19.5756950378418,-32.958526611328125,-0.009276846330311722,1014.5487246338145
0.0622744140625,-0.3736097330138087,-0.2426105595547705,-0.2260217552602291,0.3213396370410919,-0.1391078531742096,0.2167954593896865,0.1173141861276006,0.080161418171676,2.2640806609854507,-14.55376148223877,-19.792314529418945,-32.755462646484375,-0.009435947972417284,1014.548743009365
0.072346435546875,-0.42300906615071,-0.0725520990569144,-0.1568383289188146,0.311444342136383,-0.1350203305482864,0.1940624713897705,0.1206561257532402,0.078561050781061,2.265897302760146,-14.827645301818848,-19.698217391967773,-32.85443115234375,-0.009595049614522845,1014.5487613849156
0.08241748046875,-0.4338688252739608,0.0475677337955683,-0.1389998898893594,0.3024172782897949,-0.139274463057518,0.169119045138359,0.123880549060567,0.0769970686784249,2.2674859557304066,-14.875773429870604,-19.564971923828125,-33.00347900390625,-0.00975413583046022,1014.5487797586845
0.092489501953125,-0.4201333645839243,0.1405238845862448,-0.1566746627897024,0.2928294241428375,-0.1578547656536102,0.155476838350296,0.126990437327729,0.0753181122016598,2.268883064429477,-14.732159614562988,-20.01563835144043,-32.615753173828125,-0.009913237472565782,1014.5487981342351
0.1025615234375,-0.4255081164248287,0.22267697487697,-0.1817833850830793,0.2914248704910278,-0.1599871665239334,0.1481392979621887,0.1300216147296325,0.0735409289462974,2.2701921769257765,-14.755898475646973,-20.018009185791016,-32.12310791015625,-0.010072339114671343,1014.5488165097856
0.112633544921875,-0.4814759412318468,0.2936316486746073,-0.1871627400338649,0.2882059812545776,-0.1358009725809097,0.1366479992866516,0.1330257232108521,0.0718880774323404,2.271416938519807,-15.119956016540527,-20.21002960205078,-32.14105224609375,-0.010231440756776903,1014.5488348853363
0.12270458984375,-0.5442044923454523,0.3860224937327206,-0.1763292113304138,0.2982354462146759,-0.0969648882746696,0.1159421876072883,0.1360657566858751,0.0705775581049428,2.2724862548118496,-15.081772804260254,-20.300682067871094,-32.1959228515625,-0.01039052697271428,1014.5488532591052
0.132776611328125,-0.5775322499949485,0.4572735201284289,-0.1869464669346809,0.3206963241100311,-0.0373654402792453,0.0929645374417305,0.1392569017280161,0.0697704453385336,2.2733300258246745,-14.892395973205566,-20.0986442565918,-32.25396728515625,-0.010549628614819841,1014.5488716346557
0.1428486328125,-0.5795021618284285,0.4981279469557106,-0.0924544118136167,0.3339884281158447,0.0462769940495491,0.0816418379545211,0.142601584996517,0.0697289041703943,2.273969239298467,-15.094826698303224,-20.251502990722656,-32.2398681640625,-0.010708730256925399,1014.5488900102064
0.15291943359375,-0.5882744471531361,0.5412072102256119,0.0958282721608877,0.3358832895755768,0.1250377148389816,0.076774463057518,0.1460229282921417,0.0705154032841001,2.274529193430149,-15.16906452178955,-20.52029228210449,-32.494873046875,-0.01086781261632073,1014.5489083835298
0.162991455078125,-0.5834617861744016,0.5636882143639028,0.2814695017158985,0.3228729665279388,0.1870446354150772,0.0729086175560951,0.1493896100185683,0.072033402456837,2.275049212861354,-14.993815422058104,-20.331632614135746,-32.13531494140625,-0.011026914258426291,1014.5489267590805
0.1730634765625,-0.5340161296777427,0.5440116001218557,0.4825947161287069,0.3057136535644531,0.2137882262468338,0.0710049048066139,0.1525923204874477,0.07402771145342,2.2755453353705124,-15.000569343566896,-20.541013717651367,-32.158203125,-0.011186015900531853,1014.548945134631
0.183134521484375,-0.5018979670137167,0.5199651002325117,0.6566355242609977,0.2877216041088104,0.2205784916877746,0.0635198280215263,0.1556390273434325,0.0761594430532891,2.275993446777717,-14.899161338806152,-20.690290451049805,-31.87969970703125,-0.01134510211646923,1014.5489635083999
0.19320654296875,-0.4987118112582713,0.5113391645759344,0.8601689688593148,0.2535472512245178,0.208539992570877,0.0521252118051052,0.1584098347354569,0.078265178074425,2.2763583474287765,-14.882044792175291,-20.69109916687012,-32.17333984375,-0.01150420375857479,1014.5489818839505
0.203278564453125,-0.4550609586454928,0.4992959678217768,1.0423486597836018,0.1999452710151672,0.1647051572799682,0.0416294261813163,0.1607206554893327,0.0801286316434197,2.2766525011143464,-14.894082069396973,-20.94849967956543,-32.264495849609375,-0.01166330540068035,1014.5490002595011
0.213349609375,-0.3665331456910818,0.4458158681772649,1.1039859085291623,0.1494685113430023,0.0765930116176605,0.0330022349953651,0.1625079008637261,0.0813370033845058,2.2768738038654988,-14.73144245147705,-21.008277893066406,-32.169586181640625,-0.011822391616617727,1014.54901863327
0.223421630859375,-0.3010878098994493,0.3415504609301686,1.088158224800229,0.100108690559864,-0.0203109011054039,0.0229490678757429,0.1637792734902365,0.0815812591287625,2.277058843015873,-14.583090782165527,-20.66275978088379,-31.951629638671875,-0.011981493258723287,1014.5490370088206
0.23349365234375,-0.282051904713735,0.2635673498004675,1.0183370850771665,0.0661402344703674,-0.1023915708065033,0.0111500611528754,0.1646276752314674,0.0809221057862832,2.2771857561189144,-14.630541801452637,-21.07955741882324,-32.11212158203125,-0.012140594900828848,1014.5490553843712
0.243565673828125,-0.3007467413768172,0.2349744386531412,0.8876672166377305,0.0457047373056411,-0.1599568575620651,-0.0004400154575705,0.1651987708385963,0.0795941301859115,2.277217227791503,-14.590472221374512,-20.98594284057617,-31.9990234375,-0.012299696542934408,1014.5490737599217
0.25363671875,-0.3129962012927979,0.2039956552825868,0.7107102287977933,0.0201663225889205,-0.2298065423965454,-0.010076867416501,0.1655232233068824,0.0776409998167887,2.2771418333322555,-14.777235984802246,-21.04104995727539,-31.959869384765625,-0.012458782758871786,1014.5490921336907
0.26370849609375,-0.2989094429470598,0.145653210298717,0.5094190101683139,-0.0066519742831587,-0.2663352489471435,-0.0170615389943122,0.1655713270316042,0.0751414551092422,2.276986550376208,-15.05836009979248,-21.32331275939941,-31.873291015625,-0.0126178805444353,1014.5491105087958
0.273780517578125,-0.3172355924282223,0.0996802714139223,0.3564695053815842,-0.0191841796040534,-0.2443641275167465,-0.0196200255304574,0.1654285679828815,0.0725564093727225,2.276809320213434,-15.173991203308104,-21.162677764892575,-31.85101318359375,-0.012776982186540862,1014.5491288843464
0.2838515625,-0.3655860740993171,0.1213182488568127,0.2658674434363842,-0.0436303988099098,-0.193048745393753,-0.0207036659121513,0.1650975579405,0.0703984929491545,2.2766246699023704,-15.13428783416748,-20.94863510131836,-31.889404296875,-0.012936068402478237,1014.5491472581153
0.293923828125,-0.3710691816855221,0.145245652411133,0.150168349635601,-0.0631412640213966,-0.1498043537139892,-0.0211691614240407,0.1645237010375992,0.0686961590211254,2.276449620881016,-15.108162879943848,-20.969890594482425,-31.621490478515625,-0.013095173901125844,1014.5491656341113
0.30399560546875,-0.3273988206546753,0.1072498298853635,0.0196592247158288,-0.0704961121082305,-0.0987837761640548,-0.0104856239631772,0.1638289656290575,0.0674660732798758,2.2763388219036145,-15.208653450012209,-21.134418487548828,-31.68914794921875,-0.013254271686689358,1014.5491840092164
0.31406640625,-0.2684947232000529,0.0498749147593975,-0.0599608399659395,-0.0674248486757278,-0.0642934143543243,-0.0036466273013502,0.1631264435622973,0.0666732953656903,2.2763152677043315,-15.125868797302246,-21.121273040771484,-31.482086181640625,-0.013413354046084689,1014.54920238254
0.324138671875,-0.2392294657491147,0.0160291976504027,-0.1784960339754819,-0.046911846846342,-0.0619783326983451,-0.0094099743291735,0.1625359731567845,0.0660690425895328,2.2763038947594687,-15.124312400817873,-21.016908645629883,-31.59649658203125,-0.013572459544732296,1014.549220758536
0.334210693359375,-0.213791219240427,-0.0099298578619956,-0.2534358318865299,-0.0202897619456052,-0.0592764765024185,-0.0206670463085174,0.1621884063832709,0.0654764806102139,2.276169445452904,-14.972039222717283,-20.85609245300293,-31.319091796875,-0.013731561186837857,1014.5492391340865
0.344281494140625,-0.1910541945144534,-0.0473762298114597,-0.2263157697707414,0.0030555073171854,-0.0563762970268726,-0.0325990691781044,0.1620918172894548,0.0649494460626292,2.2758934904031163,-15.028265953063965,-21.00360107421875,-31.43902587890625,-0.013890643546233188,1014.5492575074101
0.354353515625,-0.153273987500742,-0.0965469418242573,-0.2032493669599294,0.0252064503729343,-0.0691160261631012,-0.0298863649368286,0.1622062641145026,0.0643854682868943,2.275566330853485,-15.020737648010254,-21.229829788208008,-31.5633544921875,-0.01404974518833875,1014.5492758829606
0.36442529296875,-0.1412247993972152,-0.129923726247251,-0.2080430309772491,0.041725505143404,-0.0924756750464439,-0.0308102145791053,0.1625147178096355,0.0636059226125362,2.2752343052241453,-15.258273124694824,-20.948719024658203,-31.6590576171875,-0.014208842973902264,1014.5492942580659
0.374496337890625,-0.1262770768405869,-0.1655430289000272,-0.2249602635085582,0.0592146217823028,-0.1155417710542678,-0.0413859710097312,0.1629934853576175,0.0626209353929224,2.2748453988592936,-15.213934898376465,-21.13284683227539,-31.445770263671875,-0.014367929189839639,1014.5493126318347
0.384568359375,-0.1254733227096497,-0.1923411655850708,-0.2172995196223258,0.0675878599286079,-0.1273510307073593,-0.0565385594964027,0.1635952733680108,0.0614747687205799,2.274306846505169,-15.284790992736816,-21.058124542236328,-31.389129638671875,-0.0145270308319452,1014.5493310073854
0.394640625,-0.1699957705251872,-0.2037038327291607,-0.1873772595673799,0.0648097693920135,-0.122597649693489,-0.0739882662892341,0.1642149124805013,0.0603116911937903,2.273604465821636,-15.53773021697998,-21.335180282592773,-31.43930053710937,-0.014686136330592806,1014.5493493833814
0.404711669921875,-0.1988777277469635,-0.1883417206853628,-0.1494558174520731,0.0517562851309776,-0.1169378980994224,-0.0890644192695617,0.1647510569343756,0.0592325583665835,2.272745504841684,-15.46956729888916,-21.21207618713379,-31.67938232421875,-0.014845222546530184,1014.5493677571502
0.41478369140625,-0.2006765207972377,-0.1570978566378355,-0.1318704764008522,0.0404087826609611,-0.1120770946145057,-0.1087688729166984,0.1651501058461715,0.058229580022391,2.271708052058472,-15.572470664978027,-21.325584411621094,-31.29144287109375,-0.015004324188635745,1014.5493861327009
0.42485546875,-0.1700047940818592,-0.1392882053114473,-0.1748410185992717,0.0343458317220211,-0.0879773497581482,-0.1280887722969055,0.1654597853390025,0.05738072522686,2.2704778943060253,-15.394835472106934,-21.50380516052246,-30.9766845703125,-0.01516342197419926,1014.549404507806
0.434927490234375,-0.1570722107399255,-0.1322520230643451,-0.1332335814476013,0.0270586479455232,-0.0398853495717048,-0.1403833627700805,0.1656921755551394,0.056957967293325,2.2690751670256684,-15.413485527038574,-21.45406723022461,-31.24151611328125,-0.01532252361630482,1014.5494228833566
0.44499853515625,-0.1613722094887867,-0.1119789042338728,-0.099701314201951,0.0200513377785682,0.0011065583676099,-0.143299251794815,0.1658543153862182,0.0570019095914335,2.267616812905625,-15.64512538909912,-21.31201934814453,-30.879852294921875,-0.015481609832242196,1014.5494412571255
0.455070556640625,-0.12217059136983,-0.0630447774559259,-0.0952127706110477,0.0251558274030685,0.033249594271183,-0.1473211944103241,0.1659938496046175,0.0574065184078565,2.2661187250823804,-15.316483497619627,-21.390378952026367,-31.06671142578125,-0.015640711474347757,1014.5494596326761
0.465142333984375,-0.0772920966582372,-0.0711485889345407,-0.0902899272561073,0.036077182739973,0.052577219903469,-0.1566095054149627,0.1662235055649546,0.0581074650457654,2.2645593383150344,-15.338177680969238,-21.281635284423828,-31.036529541015625,-0.015799809259911275,1014.5494780077812
0.47521337890625,-0.0379805518914014,-0.0795113436102867,-0.0651683454811573,0.053475871682167,0.0576836727559566,-0.155237004160881,0.1665965794024733,0.0589215454308129,2.262954437692125,-15.375441551208496,-21.340524673461918,-30.962860107421875,-0.015958498655762873,1014.5494963357191
0.485285400390625,-0.0051551177408546,-0.0447455890469253,-0.0076689271926879,0.0672526657581329,0.0442283190786838,-0.1592767536640167,0.1671278577470483,0.059696236384411,2.2613133814489683,-15.458418846130373,-21.41487693786621,-30.576324462890625,-0.016116999092850488,1014.5495146418332
0.495357666015625,0.0300121302954852,-0.0248956640645861,0.0549631778091192,0.082763984799385,0.0181856602430343,-0.1667576879262924,0.1677879121564732,0.0602762962816385,2.259603485777489,-15.270155906677246,-21.309009552001957,-31.0916748046875,-0.016275503371907245,1014.549532948391
0.5054287109375,0.0785566367013379,0.0008953414045274,0.0768143596112728,0.0972947254776954,-0.0157864205539226,-0.1678368002176284,0.1685982582381617,0.0605573052999106,2.2578520261307413,-15.337916374206545,-21.43408203125,-30.906768798828125,-0.016433988441118277,1014.54955125273
0.515500732421875,0.1242246378228068,-0.0019341829329729,0.1061731405645608,0.0963094979524612,-0.0387931168079376,-0.1660730838775634,0.1694974686087355,0.0605326346016073,2.2560879125862674,-15.242289543151855,-21.36543083190918,-30.97177124023437,-0.016592488878205892,1014.549569558844
0.525572509765625,0.1577781670521944,-0.018496172285825,0.1596376042485237,0.0918265879154205,-0.0471256151795387,-0.1618543714284896,0.1703539123754336,0.0603363015071207,2.2543639615859377,-15.144686698913574,-21.48726463317871,-31.1649169921875,-0.016750985473324362,1014.5495878645143
0.5356435546875,0.1810577011570334,0.0003919219270348,0.205693252980709,0.0733971074223518,-0.0496330857276916,-0.1560277938842773,0.1710851452435335,0.0601023413404562,2.252699055408492,-15.188942909240724,-21.48851585388184,-30.97885131835937,-0.016909470542535394,1014.5496061688533
0.545715576171875,0.1793727802773937,0.0098379417948424,0.2080389393240213,0.0538918487727642,-0.0360789261758327,-0.145883023738861,0.1716290978101035,0.0599103498970492,2.251114862975969,-15.398518562316896,-21.610410690307617,-30.98187255859375,-0.01706797097962301,1014.5496244749673
0.55578759765625,0.1781259950866922,0.0129322545483708,0.2061345670074224,0.0281971618533134,-0.0109816407784819,-0.1358231306076049,0.1719648259267897,0.0599034861955065,2.2496608872047297,-15.03784465789795,-21.65775489807129,-30.930206298828125,-0.01722647141671062,1014.5496427810814
0.565858642578125,0.1822877544086426,0.0192125038616359,0.1800175444543361,0.0206899773329496,0.0157921835780143,-0.1302608549594879,0.172103743362715,0.0601560903972282,2.2482967743029656,-14.88490390777588,-21.681774139404297,-31.263214111328125,-0.017384956485921654,1014.5496610854204
0.575930419921875,0.1850795770842581,0.042893093048036,0.1170148525744676,0.0197984483093023,0.0280015412718057,-0.1310438960790634,0.1722160633016118,0.0606125546401269,2.2469346480151566,-14.901150703430176,-21.702354431152344,-31.152313232421875,-0.017543453081040123,1014.5496793910908
0.58600244140625,0.204693026429601,0.0408281233422458,0.0828057089805602,0.0258475542068481,0.0270523894578218,-0.126083493232727,0.1723585785073579,0.0611249879117587,2.245589837540633,-14.918665885925291,-21.66009330749512,-31.1492919921875,-0.017701953518127738,1014.5496976972047
0.596073486328125,0.2413557006554678,0.037323330091685,0.0713064098447561,0.0442526638507843,0.0143788317218422,-0.1242535337805748,0.1726308321271737,0.0615777694774973,2.244292237562621,-14.769692420959473,-21.58050537109375,-31.37469482421875,-0.017860438587338767,1014.5497160015439
0.606145751953125,0.2799366661254316,0.0406100966773927,0.0408504813045263,0.0528882294893264,-0.0239581689238548,-0.1249970868229866,0.1730485114931427,0.0617866724132842,2.242986040123166,-14.735676765441896,-21.65006256103516,-31.15191650390625,-0.018018942866395528,1014.5497343081015
0.6162177734375,0.330723727293685,0.0558154107242822,-0.0020803134053945,0.0439364090561866,-0.0593930333852767,-0.1270521134138107,0.1734607593685854,0.061598666967349,2.241667360568384,-14.67843532562256,-21.77585220336914,-31.25408935546875,-0.018177443303483143,1014.5497526142155
0.62628857421875,0.3469057043530046,0.0433984122216701,0.0240641816765069,0.0328733697533607,-0.0542488731443882,-0.1255519539117813,0.1737709186829737,0.0612894044689143,2.240343403800433,-14.773955345153809,-21.87729263305664,-31.370269775390625,-0.01833592453072503,1014.5497709181109
0.636360595703125,0.3254585367744788,0.0569262945756316,0.0472509959965944,0.0172948110848665,-0.045346975326538,-0.1227095425128936,0.1739475942780301,0.0610480494122687,2.239065160396499,-14.660685539245604,-21.86376571655273,-31.38934326171875,-0.018494424967812645,1014.5497892242249
0.6464326171875,0.3043168184159323,0.0887920899137854,0.0019815292060375,-0.0050389906391501,-0.0184141620993614,-0.1143815740942955,0.1739313743566709,0.0609747027158515,2.2378473079774635,-14.61600399017334,-22.080997467041016,-31.73944091796875,-0.018652925404900256,1014.5498075303389
0.65650341796875,0.2919247716914862,0.092661770953983,-0.0172346279174089,-0.0225126557052135,0.0164786446839571,-0.1054414063692092,0.1737123252889119,0.0612022804419603,2.2367305773744537,-14.464032173156738,-21.956737518310547,-31.48495483398437,-0.018811406632142143,1014.5498258342343
0.666575439453125,0.2959645851342007,0.0849976660668849,-0.0365495692402124,-0.0338095165789127,0.04247722402215,-0.0896219611167907,0.1733526441759381,0.0617416629547606,2.235746962103613,-14.819966316223145,-22.03204917907715,-31.01959228515625,-0.01896990706922976,1014.5498441403482
0.6766474609375,0.3118424281477928,0.0749438895642757,-0.0929670375108718,-0.0356565490365028,0.0574418827891349,-0.0759134292602539,0.172931499781326,0.0624338120044353,2.234915619901172,-14.878642082214355,-22.251707077026367,-30.8526611328125,-0.01912840750631737,1014.5498624464623
0.686718505859375,0.3239145587354898,0.0851527104981243,-0.124332482111454,-0.0353960916399955,0.071787528693676,-0.0642511844635009,0.1725167591091397,0.0632413293994655,2.2342098709696123,-14.677206993103027,-22.022974014282227,-31.2330322265625,-0.019286892575528406,1014.5498807508013
0.696790283203125,0.3022061464048922,0.0821257638923823,-0.1267062255054712,-0.0287304632365703,0.0924438685178756,-0.0506210178136825,0.1721415061536706,0.0642315601069457,2.2336303442446788,-14.662482261657717,-22.118547439575195,-31.325347900390625,-0.019445389170646872,1014.5498990564716
0.706862548828125,0.2496379009082913,0.0796329241633415,-0.1310305184453725,-0.0133594945073127,0.1000634431838989,-0.0407982170581817,0.1718989703304167,0.065335439390061,2.2331685870202818,-14.457829475402832,-22.14337921142578,-31.2769775390625,-0.019603893449703633,1014.5499173630294
0.716933837890625,0.2244728453177958,0.0662025108344852,-0.1193015022069215,-0.0026860833168029,0.1050280183553695,-0.0394723713397979,0.1717789128801069,0.0665008145809572,2.2327560568273443,-14.524888038635254,-21.97467803955078,-31.11532592773437,-0.01976238236088381,1014.5499356678122
0.727005859375,0.2323619911324232,0.0307885214954614,-0.0889320829063654,0.0128404106944799,0.0987413600087165,-0.0316171124577522,0.1717840972524515,0.067653795000161,2.232387004038344,-14.30250072479248,-22.208372116088867,-31.1446533203125,-0.019920882797971426,1014.5499539739262
0.73707763671875,0.2072156402423977,0.000430792632699,-0.0462327588647603,0.022445498034358,0.068120963871479,-0.0290823932737112,0.1719099219882334,0.0686184533945022,2.23205557805214,-14.143582344055176,-22.0262393951416,-31.56317138671875,-0.020079379393089895,1014.5499722795964
0.7471484375,0.1886753365539014,-0.0222413501635193,0.0004752162963151,0.0236721504479646,0.0318361893296241,-0.0297753475606441,0.1721033120484197,0.0692246849322498,2.231733503321755,-14.21180248260498,-21.9683895111084,-31.465118408203125,-0.020237860620331782,1014.5499905834918
0.757220458984375,0.1903008919291198,-0.0540051464319229,0.0100531919807195,0.0133623844012618,0.0008128769695758,-0.0330804213881492,0.1722694716004726,0.0694772170401373,2.2314049119017145,-14.21105670928955,-21.831127166748047,-31.28729248046875,-0.020396361057419394,1014.5500088896058
0.76729248046875,0.165769604197517,-0.082862115342915,0.0376128145575523,0.0040101623162627,-0.008265838958323,-0.0303469523787498,0.1723183200064335,0.0695389523792854,2.231064150981189,-14.294177055358888,-21.90372085571289,-31.23785400390625,-0.02055486149450701,1014.5500271957198
0.777363525390625,0.1048187302809208,-0.0955439022615552,0.0407207174450159,-0.0060987882316112,-0.014561453834176,-0.026903111487627,0.1722602505772125,0.069512210475101,2.230759034684595,-14.13112735748291,-21.90612030029297,-30.94003295898437,-0.02071334656371804,1014.5500455000589
0.787435546875,0.0635850948777049,-0.0740983786508441,0.032577742999792,-0.0097782127559185,-0.0145779643207788,-0.0239853523671627,0.1721412382257628,0.0694573196469943,2.230495164000472,-13.94975757598877,-21.976205825805664,-31.1285400390625,-0.020871847000805653,1014.550063806173
0.797507568359375,0.0639063627213239,-0.0883460997119545,-0.021561258944869,0.0016338294371962,-0.0124666579067707,-0.020280834287405,0.1720604613491111,0.0693919493671653,2.2302730534202406,-14.166834831237791,-22.12233161926269,-30.858917236328125,-0.021030347437893268,1014.5500821122869
0.80757861328125,0.0485258382380008,-0.1146441779203712,-0.0739303286075592,0.0182093437761068,-0.0006547402590513,-0.0198901481926441,0.1721418536895354,0.0694051323666136,2.2300569802624763,-14.26148509979248,-22.23067092895508,-31.10540771484375,-0.0211888325071043,1014.550100416626
0.817650634765625,0.0095138244070112,-0.1376069742262363,-0.080422613236308,0.0359502658247947,0.0105503378435969,-0.029005205258727,0.1723826122515657,0.0695587960804463,2.229789342812828,-14.187886238098145,-22.224271774291992,-31.0289306640625,-0.021347332944191916,1014.55011872274
0.82772265625,-0.0348614700227975,-0.1345790047071874,-0.0655143824398517,0.0618684142827987,0.0182492695748806,-0.0387430526316165,0.1728509145010202,0.0698059607420719,2.2293986290014307,-14.40023708343506,-22.13682556152344,-31.234619140625,-0.02150583338127953,1014.550137028854
0.837793701171875,-0.0447480001997202,-0.1284738196998834,-0.0288712896972894,0.0808474346995353,0.0144226942211389,-0.0502698794007301,0.1735448944296133,0.0700950705504872,2.2288908582005345,-13.99149227142334,-22.176362991333008,-31.157958984375,-0.021664318450490563,1014.5501553331931
0.84786572265625,-0.0268851573813706,-0.1135528755523264,-0.00716156219244,0.1004195362329483,-0.0104501647874712,-0.0605230517685413,0.1744390332114613,0.070271144622261,2.2282458333904698,-14.25829029083252,-22.120744705200195,-31.118865966796875,-0.02182281888757818,1014.5501736393071
0.857936767578125,0.0287874838713556,-0.1282987553939223,0.031921324917674,0.0939593613147735,-0.035841416567564,-0.071255937218666,0.1754223061707208,0.0701893909850718,2.227490501178888,-14.291050910949709,-22.291894912719727,-31.3017578125,-0.02198130395678921,1014.5501919436462
0.868008544921875,0.0623947891145944,-0.1548703898467123,0.0985270097255706,0.0669775530695915,-0.0369048193097114,-0.0862873494625091,0.1762038051448452,0.0699569164067946,2.2266301181431194,-14.316845893859863,-22.22868537902832,-31.08383178710937,-0.022139800551907677,1014.5502102493165
0.87808056640625,0.0898754281710833,-0.1396972245037555,0.1663017383128404,0.0411819033324718,-0.0209496729075908,-0.0991590768098831,0.1766904568799185,0.0698441484833417,2.2256358242966003,-14.258200645446776,-22.31155776977539,-31.27035522460937,-0.022298300988995292,1014.5502285554304
0.888151611328125,0.1317939770985394,-0.1054435111157596,0.1928811176806688,0.0103177297860383,-0.0147429099306464,-0.0985332354903221,0.1768905988868744,0.0698601235351509,2.224591740607619,-14.276440620422363,-22.23990249633789,-31.114044189453125,-0.022456786058206325,1014.5502468597696
0.8982236328125,0.1702948265369981,-0.0775349289707839,0.1409054312497377,-0.013569489121437,-0.0059037827886641,-0.0927500426769256,0.1768054641474795,0.0699321781435418,2.223612292413064,-13.891800880432127,-22.212465286254883,-31.1793212890625,-0.022615286495293936,1014.5502651658835
0.908295654296875,0.2299679356027394,-0.0469349157847464,0.0979249521791934,-0.0168715417385101,0.0022859699092805,-0.0876061469316482,0.1765961263703594,0.0700727611614181,2.222685855480812,-13.986796379089355,-22.5020751953125,-31.032989501953125,-0.02277378693238155,1014.5502834719975
0.91836669921875,0.2691854088779539,-0.0429179352283477,0.0123766664922237,-0.00601417850703,0.0015171058475971,-0.0749035775661468,0.1764232327233698,0.0702246807606318,2.221859010144761,-14.173762321472168,-22.407543182373047,-31.184539794921875,-0.022932272001592584,1014.5503017763366
0.928438720703125,0.2883436983343214,-0.0015595044016838,-0.0457715710937976,0.0164996515959501,-0.0104807019233703,-0.062192041426897,0.1764447693945987,0.070302147045573,2.221152721861596,-14.2993803024292,-22.43122291564941,-31.16366577148437,-0.0230907724386802,1014.5503200824506
0.9385107421875,0.2754562327757477,0.0424663920685648,-0.1040489880174398,0.0544295459985733,-0.024930790066719,-0.0555989257991313,0.1767736458958786,0.0702305283571661,2.2205361449216423,-14.233101844787598,-22.485185623168945,-31.07382202148437,-0.023249272875767814,1014.5503383885647
0.948581787109375,0.2796731198184192,0.0739136697337031,-0.1475777486205101,0.1002247259020805,-0.0376266129314899,-0.0492656640708446,0.1775356384423045,0.0700352903165722,2.219942589270305,-14.204424858093262,-22.363449096679688,-31.47509765625,-0.023407757944978846,1014.5503566929037
0.95865380859375,0.2846056808497756,0.0951779915586113,-0.1475496915698051,0.143692746758461,-0.0480025969445705,-0.0405332185328006,0.1787621043845565,0.0697249292328048,2.2193906991771533,-14.155436515808104,-22.4677848815918,-31.21893310546875,-0.02356625838206646,1014.5503749990178
0.9687255859375,0.3021202947523445,0.1088410445995628,-0.1106570079803466,0.1666260212659835,-0.0705150961875915,-0.031061952933669,0.1803486966837317,0.0692623318094851,2.218911568936305,-14.159024238586426,-22.41415786743164,-30.83966064453125,-0.023724754977184927,1014.550393304688
0.978796630859375,0.3143166362415999,0.1009529216982424,-0.0579822333693504,0.1577182412147522,-0.0910111740231514,-0.0325852930545806,0.1819819466386769,0.0685287360629184,2.2184552397167687,-14.029044151306152,-22.325550079345703,-31.05364990234375,-0.02388324004639596,1014.550411609027
0.98886865234375,0.3183824243757873,0.0721251788817346,0.0279781402498483,0.1324999630451202,-0.0849756523966789,-0.0218919031322002,0.1834149404310524,0.0677353852159554,2.21806092466861,-14.109374046325684,-22.48333740234375,-31.226959228515625,-0.024041740483483575,1014.5504299151411
0.99894091796875,0.2721506884243339,0.0625536329381167,0.1173164658695459,0.0987297892570495,-0.0606975890696048,-0.0053973346948623,0.184564016774633,0.0670958144519345,2.2178320655698416,-14.21654224395752,-22.579179763793945,-30.561279296875,-0.024200244762540332,1014.5504482216988
1.009011474609375,0.2172618179604411,0.0618267799682915,0.1539952144473791,0.0517074167728424,-0.0450805462896823,0.0043439758010208,0.1852958418586191,0.0666508663279521,2.2177586185429403,-14.175946235656738,-22.871835708618164,-30.995819091796875,-0.024358722147813077,1014.5504665251505
1.019083740234375,0.1989467743951827,0.0369753934368491,0.1497761354476213,0.0108802458271384,-0.0167350620031356,0.0083856545388698,0.1855740698268,0.0663804194590116,2.2177809711428607,-14.255269050598145,-22.78227424621582,-30.97982788085937,-0.024517226426869838,1014.5504848317082
1.029155517578125,0.1720573792301118,-0.0031385902866721,0.1355365976929664,-0.0193871110677719,0.0158369988203048,0.0095127038657665,0.1854953138779727,0.0664058572128309,2.2178504411545235,-14.313136100769045,-22.81090545654297,-31.17437744140625,-0.024675723021988304,1014.5505031373784
1.0392265625,0.1380968766350299,-0.0253619664020836,0.1225678105264902,-0.0199918020516634,0.0387371219694614,0.0125140212476253,0.185269958237583,0.0667290220007636,2.21797981917323,-14.269688606262209,-23.174510955810547,-30.955963134765625,-0.024834208091199336,1014.5505214417176
1.049298583984375,0.1074342465415596,-0.0251797417029738,0.0672626874119043,-0.0118113718926906,0.0365709066390991,0.0218744985759258,0.1850870624411822,0.0671454670543988,2.2181698302347805,-14.181117057800291,-22.76410484313965,-31.30389404296875,-0.02499270852828695,1014.5505397478315
1.05936962890625,0.0789336898528039,-0.0210986098691821,0.0093932667672634,0.0071854009293019,0.0158401262015104,0.0228588636964559,0.1850447271081031,0.0674322102077216,2.218382804324704,-14.195927619934082,-22.697513580322266,-30.908905029296875,-0.025151193597497984,1014.5505580521706
1.069441650390625,0.0483674328058958,-0.0435056719884276,-0.0193190329760313,0.0261447094380855,-0.0238564200699329,0.0156510174274444,0.1852039735002444,0.0674228406323093,2.218553734021152,-14.352322578430176,-22.861129760742188,-30.779937744140625,-0.0253096940345856,1014.5505763582846
1.079513427734375,0.0412479561895132,-0.0478738040700554,-0.0579348870962858,0.0403469391167163,-0.0697579011321067,0.0094208884984254,0.1855270076966787,0.0670002333968565,2.218648923434693,-14.248442649841309,-22.613752365112305,-30.90838623046875,-0.02546819062970407,1014.5505946639549
1.08958447265625,0.0355494522869586,-0.0171646314211189,-0.0900520268470048,0.0533351749181747,-0.1228895634412765,0.0039214608259499,0.185996265890988,0.0660582017680051,2.218668834953976,-14.044001579284668,-22.34774208068848,-30.65496826171875,-0.0256266756989151,1014.550612968294
1.099656494140625,0.0478715390477329,-0.0042377837002277,-0.124921680176258,0.0591310635209083,-0.1596976369619369,0.0005990145727992,0.186561291944499,0.0646748976810408,2.2186417155362497,-13.968646049499512,-22.846683502197266,-30.7384033203125,-0.025785176136002716,1014.550631274408
1.109728759765625,0.0470004187690094,0.0058542789861559,-0.1409498549133539,0.04847202450037,-0.1621783673763275,-0.0014529512263834,0.1871116866758816,0.0630760157347147,2.2185899906317736,-14.248774528503418,-22.79151153564453,-30.5748291015625,-0.02594368041505947,1014.5506495809657
1.119799560546875,0.0101503687448799,-0.0023898177459836,-0.1035883847683668,0.0325410664081573,-0.13014817237854,0.0072394297458231,0.1875295498599311,0.0616378870015627,2.2185887946824008,-14.284598350524902,-22.802324295043945,-31.19805908203125,-0.026102161642301357,1014.5506678848611
1.129871826171875,-0.0243419026393443,-0.0077855393096804,-0.094359953173995,0.0050231562927365,-0.0788551568984985,0.0165586285293102,0.1877305317178635,0.0605899807261018,2.218688123270317,-14.190808296203612,-22.67175674438477,-31.25189208984375,-0.026260665921358117,1014.5506861914188
1.139943603515625,-0.0230702022030949,-0.0083706457212567,-0.0659358227223157,-0.0217018965631723,-0.0229563042521476,0.0305079910904169,0.1876542863242477,0.0600678741403574,2.2189283791849883,-14.419209480285645,-22.74867820739746,-30.74520874023437,-0.026419162516476587,1014.5507044970891
1.1500146484375,-0.0085766531547531,-0.0158200849443674,-0.0286123465001583,-0.0347513854503631,0.0180795453488826,0.043425653129816,0.1873936061330871,0.0600048737229458,2.2193146018747782,-14.311535835266112,-22.74182891845703,-30.87826538085937,-0.02657764758568762,1014.5507228014282
1.160086669921875,-0.0011049655672162,-0.0372843132555484,-0.031675241202116,-0.0386334285140037,0.0327968634665012,0.0544234178960323,0.1870451021483514,0.0601886659117445,2.219823417291624,-14.45167064666748,-22.96352767944336,-30.53256225585937,-0.026736148022775234,1014.5507411075422
1.17015869140625,0.0193226131726056,-0.0637741146437823,-0.0492892238259315,-0.0323241353034973,0.0207194276154041,0.0604807808995246,0.1867185880563861,0.0603636339726401,2.220430575402309,-14.266303062438965,-22.739261627197266,-30.325225830078125,-0.02689464845986285,1014.5507594136562
1.180229736328125,0.0519445971729233,-0.0686192165873944,-0.0470399835944175,-0.0227914601564407,-0.0079983510076999,0.0551912635564804,0.1864797788401217,0.0603296933669877,2.22103401629613,-14.201811790466309,-22.814414978027344,-30.522186279296875,-0.02705313352907388,1014.5507777179953
1.190301513671875,0.0219721047680825,-0.0773946437172591,-0.0452162752985954,-0.0134528204798698,-0.0453340075910091,0.0482579879462718,0.1863300195771545,0.0599748842092659,2.2215841608444498,-14.314656257629396,-22.74775695800781,-30.46966552734375,-0.02721163012419235,1014.5507960236655
1.20037255859375,-0.003688223526068,-0.0908991451956331,-0.0491974538892507,-0.0175165925174951,-0.0850385427474975,0.0320855751633644,0.1862019475096602,0.059234316474202,2.221990481066653,-14.134598731994627,-22.776323318481445,-30.62518310546875,-0.02737011519340338,1014.5508143280047
1.210444580078125,-0.0034799145376309,-0.1026879287973046,-0.0609808306634426,-0.0212775114923715,-0.1024220660328865,0.0170331224799156,0.1860034815491412,0.0582150344800978,2.222251583479366,-14.155888557434082,-22.711994171142575,-30.604522705078125,-0.027528615630490996,1014.5508326341186
1.220516845703125,-0.0159936879456043,-0.1017082701101899,-0.0575683918714523,-0.0288018099963665,-0.0980987548828125,0.0068613453768193,0.1857635308067923,0.0571646298816838,2.2223833019361656,-14.307316780090332,-22.80911064147949,-30.959503173828125,-0.027687119909547753,1014.5508509406764
1.230587890625,-0.0168192520495504,-0.0550358046539127,-0.0675058485180139,-0.025223322212696,-0.0824636071920394,0.0031009619124233,0.1854981097348022,0.0562368209721184,2.2224339216765894,-14.634404182434082,-22.779638290405277,-30.96469116210937,-0.02784560497875879,1014.5508692450154
1.240659912109375,0.0116574123069643,-0.0157858904138207,-0.1063479126095771,-0.025008825585246,-0.0518568493425846,0.0035155620425939,0.1852543766076122,0.055545368467288,2.222474836282853,-14.606766700744627,-22.90641212463379,-30.89288330078125,-0.028004105415846404,1014.5508875511294
1.250731689453125,0.0473053565323352,-0.031267683314532,-0.096014150121808,-0.0238873679190874,-0.0217391587793827,0.0140361143276095,0.1850298565527436,0.055166332369519,2.2225747342775195,-14.431633949279783,-22.766441345214844,-30.818145751953125,-0.02816260201096487,1014.5509058567998
1.260802490234375,0.0678789561467245,-0.0402929935522377,-0.0736760615855455,-0.0277066677808761,-0.0014393362216651,0.0205025635659694,0.1847921337526856,0.0550474508830406,2.22274553138959,-14.54312801361084,-22.75428581237793,-30.69329833984375,-0.028321083238206757,1014.5509241606951
1.27087451171875,0.0729828186243772,-0.0197622466988861,-0.0690682755291461,-0.0237651877105236,0.0172970667481422,0.0280180051922798,0.1845469199029813,0.0550898823263415,2.2230178656958293,-14.391581535339355,-22.694467544555664,-30.51400756835937,-0.028479583675294372,1014.550942466809
1.280945556640625,0.072471909960173,-0.0129193950667977,-0.051015316966176,-0.0189635343849658,0.0154310734942555,0.0383943505585193,0.1843719813023598,0.0552188873025498,2.2233675591440307,-14.772906303405762,-22.91563034057617,-30.810211181640625,-0.028638068744505404,1014.5509607711482
1.291017578125,0.0474572956910356,-0.0064269643075764,-0.0251473007380962,-0.0078333849087357,0.0061912350356578,0.0455928742885589,0.1842848702225437,0.0552672367201672,2.2238211005817856,-14.787983894348145,-22.695905685424805,-30.514373779296875,-0.02879656918159302,1014.5509790772621
1.301089599609375,-0.0025270707922056,-0.0035819501399993,-0.0036357261538505,-0.0070177130401134,-0.0108155943453311,0.0505607724189758,0.184254026723468,0.0551586597777775,2.2243132404606176,-14.912285804748535,-22.88661003112793,-30.66583251953125,-0.02895506961868063,1014.5509973833762
1.31116064453125,-0.0392577687529847,-0.0039965222902595,-0.0077928458333015,-0.001849316060543,-0.0351137444376945,0.0393645763397216,0.1842420608692628,0.0548548535188861,2.2247704398254857,-14.840949058532717,-22.81114959716797,-30.5645751953125,-0.029113554687891667,1014.5510156877152
1.321232421875,-0.0430282637350261,0.0040286709941923,-0.0242529822468757,0.0013654036447405,-0.0681865140795707,0.0261406414210796,0.1842518536769448,0.0542517835545273,2.225105238354388,-14.759516716003418,-22.710006713867188,-31.033233642578125,-0.029272051283010133,1014.5510339933855
1.3313046875,-0.016402889801003,0.0060720133900642,-0.047024201503396,0.0100659504532814,-0.0785206407308578,0.0176997501403093,0.1843241178157124,0.0534763567807537,2.2253142954094005,-14.83655834197998,-22.783689498901367,-30.79559326171875,-0.029430555562066894,1014.5510522999433
1.341375732421875,0.004139803218469,-0.0116461602605879,-0.0468383235424757,0.0234215017408132,-0.0585210286080837,0.0164482463151216,0.1845040583851015,0.0527742638424318,2.2254707077175637,-14.906888008117676,-22.675819396972656,-30.813446044921875,-0.029589040631277923,1014.5510706042824
1.35144775390625,-0.0124220034712925,0.0145114865638315,-0.055966801893711,0.0328869074583053,-0.0336982384324073,0.0214691031724214,0.1848115020397355,0.0522748857383294,2.225656704769761,-15.08934497833252,-22.91471099853516,-30.781951904296875,-0.029747541068365538,1014.5510889103964
1.361518798828125,-0.0387621672557666,0.040998365342617,-0.0155611417472362,0.0384350158274173,0.0045248214155435,0.0269090868532657,0.1851841611585254,0.0521234898619774,2.225879319063964,-14.853190422058104,-22.97014808654785,-30.356719970703125,-0.02990602613757657,1014.5511072147355
1.371590576171875,-0.0679552727859467,0.0149773505099117,0.0465939933925867,0.0275741107761859,0.0327468737959861,0.0270001702010631,0.1855273853271576,0.0522681986665666,2.226132389241128,-14.814435005187988,-22.740970611572266,-30.484893798828125,-0.03006452273269504,1014.5511255204058
1.38166259765625,-0.0964035147655755,0.0001373626440763,0.0777829123824834,0.0102461446076631,0.0407327748835086,0.0235024243593215,0.1857265165154608,0.0526139669948925,2.2263907633572444,-14.912226676940918,-22.78652000427246,-29.9415283203125,-0.030223023169782655,1014.5511438265197
1.391733642578125,-0.1325816934101283,-0.0026467151165008,0.0854132611304521,-0.0141185829415917,0.042681410908699,0.0117805209010839,0.1857015823157866,0.0529988622863635,2.226579759187279,-14.985535621643066,-22.6718864440918,-30.472900390625,-0.030381508238993687,1014.5511621308588
1.4018056640625,-0.1626163643309846,-0.0086424483999609,0.0931914939165115,-0.0261069163680076,0.0464098043739795,0.0006702258251607,0.1854987071447854,0.0534277536454211,2.226656833431407,-14.632025718688965,-22.865026473999023,-30.675201416015625,-0.030540008676081302,1014.5511804369728
1.411877685546875,-0.132205224780552,-0.0184678229741752,0.0826829593837261,-0.0300217606127262,0.0389572158455848,-0.008838590234518,0.1852245021299034,0.0538722424248607,2.2266075480020766,-14.727093696594238,-22.683881759643555,-30.939178466796875,-0.030698509113168918,1014.5511987430868
1.42194873046875,-0.0656541927693411,-0.0176344408899545,0.0285018718630075,-0.0339794047176837,0.0250932294875383,0.0004760599695146,0.1848918400496149,0.0541837265249848,2.2265828263989613,-14.813708305358888,-22.575551986694336,-30.772216796875,-0.030856994182379947,1014.5512170474259
1.4320205078125,-0.0022413857186213,0.0217297473795711,0.0317915610581636,-0.0265190936625003,0.0314094498753547,0.0046090199612081,0.1845668426744166,0.0544481899109957,2.226621450518309,-14.77048397064209,-22.55681610107422,-30.73739624023437,-0.031015490777498413,1014.5512353530962
1.442091552734375,0.0062706412347033,-0.0329343013525009,0.0055377603828907,-0.016053806990385,0.0257060565054416,0.0167505275458097,0.1843602472917074,0.0547121520637928,2.226740779140909,-14.754220008850098,-22.813129425048828,-30.96957397460937,-0.03117397584670945,1014.5512536574353
1.452163818359375,0.0215237034134566,-0.0553153522476553,-0.0157119483947753,-0.0146244904026389,0.0188995525240898,0.0224246587604284,0.1842272607370212,0.0548828271368875,2.2269600621285126,-14.813624382019045,-22.795055389404297,-30.9300537109375,-0.03133248012576621,1014.551271963993
1.46223583984375,-0.0117778238162398,-0.0502551462486386,0.0030178865164518,-0.0177721958607435,0.0127045828849077,0.0281160660088062,0.1841002285292715,0.0549833067507182,2.227240714260136,-14.76756763458252,-22.850086212158203,-30.7777099609375,-0.03149098056285382,1014.551290270107
1.472306884765625,-0.0551418953768909,-0.0477108685933053,0.0208726921588182,-0.0239826869219541,0.0067462925799191,0.0241697952151298,0.1838985023000577,0.0550091299658218,2.2275238433107485,-14.907523155212402,-22.682315826416016,-30.81259155273437,-0.03164946563206486,1014.5513085744461
1.482378662109375,-0.0968516603918746,-0.0688908731356263,0.0248217220455408,-0.0314584337174892,0.0001346380449831,0.0158148184418678,0.1836262597228356,0.0549711871408942,2.2277532380046345,-14.698264122009276,-22.667390823364254,-30.7606201171875,-0.03184208684165713,1014.5513317904748
1.49244970703125,-0.0992307375481352,-0.0965067559443414,0.0151660049498081,-0.0397957265377044,-0.008050587028265,0.0078783314675092,0.1832762694645155,0.0548883345829379,2.2279054630075827,-14.942509651184082,-22.552181243896484,-30.837860107421875,-0.03205454715901459,1014.5513578615776
1.502521484375,-0.0833699552671983,-0.1139892211429774,-0.0209404966980218,-0.0450682416558265,-0.0172525625675916,-0.0019252083729952,0.1828443777454076,0.0547286209439448,2.227980328525734,-15.061123847961426,-22.50643539428711,-30.898956298828125,-0.03226702292765693,1014.5513839345763
1.512593505859375,-0.0860803102044388,-0.1219976094231009,-0.0501309353470802,-0.0425286516547203,-0.0212196074426174,-0.007094404194504,0.1824018528445536,0.0545394170088524,2.227949867336548,-15.11413860321045,-22.593603134155277,-30.906494140625,-0.03247950384672755,1014.5514100082071
1.52266455078125,-0.0516348005713894,-0.087142276880145,-0.0826841284275054,-0.0367973893880844,-0.0301146432757377,-0.0152340279892086,0.1820129084344263,0.0542994379851502,2.227858622872928,-14.983149528503418,-22.563875198364254,-30.91619873046875,-0.03269196416408501,1014.5514360793098
1.532736572265625,0.01643997040838,-0.0531679649554193,-0.0975672247827053,-0.0267926938831806,-0.0273886322975158,-0.015758404508233,0.1817032878746324,0.054048824154408,2.227703476711946,-15.159571647644045,-22.504610061645508,-30.47247314453125,-0.03290444508315563,1014.5514621529406
1.542808349609375,0.072137125047855,-0.0482081505909562,-0.1072030681341886,-0.0205115117132663,-0.024933760985732,-0.0045320340432226,0.1814728362311074,0.0537946375407699,2.2276105167153264,-14.948988914489746,-22.608867645263672,-30.46759033203125,-0.03311692085179797,1014.5514882259394
1.55287939453125,0.1039548799932003,-0.0324935718476772,-0.1021013610810041,-0.0196766108274459,-0.0228080265223979,0.0087004136294126,0.1812869486188167,0.0535344219920099,2.2276397329625226,-15.002799034118652,-22.528976440429688,-30.794677734375,-0.03332938116915543,1014.5515142970421
1.56295166015625,0.1215969196677208,-0.0173151458077132,-0.0792623372852802,-0.0195055082440376,-0.0111241284757852,0.0190880130976438,0.1811230523541851,0.0533324348946926,2.227803568567708,-14.979537010192873,-22.753921508789062,-30.40484619140625,-0.03354186723865435,1014.5515403713049
1.573022705078125,0.1251366381011903,-0.0140844933234155,-0.069874331215024,-0.0228496380150318,-0.0053434711880981,0.0244729239493608,0.1809305417366498,0.0531961020462573,2.228047801835664,-14.946663856506348,-22.539236068725582,-30.4600830078125,-0.03375432755601181,1014.5515664424076
1.5830947265625,0.116459447181411,-0.0215646199457347,-0.0646358460396528,-0.0299309529364109,0.001959616318345,0.0301576294004917,0.1806980524199514,0.0531159912968952,2.2283435563568688,-15.073920249938965,-22.50848197937012,-30.427947998046875,-0.03396680847508243,1014.5515925160385
1.593166748046875,0.0886022298974916,-0.010757248596847,-0.0830956318378448,-0.0333773493766784,7.11688771843e-05,0.0287288427352905,0.1804068182543642,0.0530535863231471,2.228675150918591,-14.9237699508667,-22.482994079589844,-30.77880859375,-0.03417928939415305,1014.5516185896691
1.60323779296875,0.0750001132635399,0.0183178931094706,-0.1095937626630067,-0.0340121053159236,-0.0067356843501329,0.0367482118308544,0.1801013269228523,0.0529559001016493,2.229019994125794,-14.988373756408691,-22.55322265625,-30.81573486328125,-0.034391749711510516,1014.5516446607719
1.6133095703125,0.082283329074271,0.0429367860592901,-0.1579915906071662,-0.0232313610613346,-0.0106886141002178,0.0422718748450279,0.1798457827087691,0.0527876874610429,2.229432096876231,-14.729155540466309,-22.675121307373047,-30.233154296875,-0.03460422548015285,1014.5516707337707
1.623380615234375,0.0790104814160615,0.0507405916780233,-0.2087625774234533,-0.0010840967297554,-0.0129569750279188,0.0539133623242378,0.1797550821580334,0.052598460592697,2.229932953882693,-14.87377643585205,-22.594945907592773,-30.147735595703125,-0.034816685797510315,1014.5516968048735
1.63345263671875,0.0609038929697126,0.0686168784998357,-0.2481348028689622,0.0264332816004753,-0.0174273569136858,0.0584125109016895,0.179917360159435,0.0523670988780396,2.2304932445508463,-14.922533988952637,-22.499656677246094,-30.550079345703125,-0.03502916671658094,1014.5517228785042
1.643524658203125,0.0272917654208838,0.0602675678275525,-0.2445475920319557,0.0467946082353591,-0.0071647106669843,0.0573792308568954,0.1803237612370015,0.0521476864419702,2.2310752557771143,-14.812329292297363,-22.81892204284668,-30.48431396484375,-0.03524164763565156,1014.551748952135
1.653595703125,-0.0046163712216541,0.0285432267867028,-0.2069406226933002,0.0509387552738189,0.0050229798071086,0.0597901865839958,0.1808355101429915,0.0520475049411114,2.2316410986404622,-15.040099143981934,-22.68791007995605,-30.212860107421875,-0.035454107953009024,1014.5517750232377
1.66366748046875,-0.0341755701178684,0.0202180276423692,-0.1225228023409843,0.0521524958312511,0.0241033844649791,0.0560948476195335,0.1813996110083428,0.0521078570583719,2.232199190937765,-15.212172508239746,-22.640766143798828,-30.0438232421875,-0.03566658372165136,1014.5518010962364
1.673738525390625,-0.0698953374704346,0.0246311679095029,-0.0282049347430467,0.0417666994035244,0.0335786491632461,0.0529493875801563,0.1819036962292592,0.0523256633276045,2.23272755723456,-15.112252235412598,-22.726486206054688,-30.3017578125,-0.03587904403900882,1014.5518271673392
1.683810791015625,-0.1194626475853845,0.0250885562881827,0.0369704250007867,0.0249663069844245,0.0410582609474659,0.0491112284362316,0.1822769287240626,0.0526283322732593,2.233219968586651,-15.042431831359863,-22.6580867767334,-30.13555908203125,-0.036091530108507734,1014.551853241602
1.6938828125,-0.1278666110543534,-0.0031358138076961,0.0831079067975282,0.0105418264865875,0.0509553663432598,0.0498782210052013,0.1824690522060641,0.0530367085915892,2.2337051358280973,-15.031512260437012,-22.6311092376709,-30.217010498046875,-0.03630401102757835,1014.5518793152328
1.70395361328125,-0.1391737851515412,-0.0278936768367886,0.1267278528153896,0.0041235527023673,0.0474799387156963,0.0483474060893058,0.1825551361745142,0.0534658597916427,2.2342087366779597,-14.886059761047363,-22.41864776611328,-30.38592529296875,-0.03651646619450753,1014.5519053857035
1.714025390625,-0.1964373123249038,-0.0260357740104198,0.1347445705324411,-7.91819766163e-05,0.0276505723595619,0.0347298644483089,0.1825771084491984,0.0538029818567618,2.234640759650708,-14.85044765472412,-22.394441604614254,-30.535308837890625,-0.036728941963149866,1014.5519314587023
1.724096435546875,-0.258898188945651,-0.0422184086568653,0.1477303088337183,-0.003729972988367,0.0195934474468231,0.0183187499642372,0.1825438213567629,0.0539800176941029,2.2349082974769843,-14.80758571624756,-22.51332664489746,-30.209381103515625,-0.03694140228050733,1014.551957529805
1.734168212890625,-0.2928079112015664,-0.0691879563860595,0.1579728859066963,-0.0095388609915971,0.0113642793148756,-0.0073983296751976,0.1824626132869971,0.0541285771300469,2.2349616322721078,-14.827033042907717,-22.52796173095703,-30.002960205078125,-0.037153878049149665,1014.5519836028038
1.744240234375,-0.3034818654291331,-0.0601470101878046,0.1561854179680347,-0.0106549458578228,0.0039565111510455,-0.0348665565252304,0.1823450041007921,0.0542257916945296,2.234760848301881,-14.693846702575684,-22.44962310791016,-30.56817626953125,-0.037366358968220284,1014.5520096764345
1.754311279296875,-0.2779532737558707,-0.0331166721820831,0.1487801101475954,-0.0147365061566233,0.006067865062505,-0.0517134442925453,0.1821842427931269,0.0543391280432649,2.2343208010856737,-14.72853183746338,-22.53088760375977,-30.29693603515625,-0.03757881928557775,1014.5520357475373
1.76438330078125,-0.2434488370098173,-0.0250077461369335,0.1548760889351368,-0.0198262277990579,0.0075008836574852,-0.0606349483132362,0.18198549724779,0.0545144779365534,2.233763803817979,-14.708483695983888,-22.46398162841797,-30.13851928710937,-0.03779130020464837,1014.5520618211681
1.774455322265625,-0.1960832016576081,-0.0211420106194913,0.1484247208386659,-0.0312037859112024,0.0034390310756862,-0.0560875982046127,0.1817036398086257,0.0546431606736277,2.23317522154906,-15.112116813659668,-22.451400756835938,-30.281280517578125,-0.038003781123718994,1014.5520878947989
1.7845263671875,-0.1299479473730549,-0.0296785144269466,0.1309410865962505,-0.0444797687232494,0.0071796271950006,-0.0450391508638858,0.1813150724101522,0.0547640231205249,2.2326710994390786,-14.808518409729004,-22.453758239746094,-30.540069580078125,-0.03821624144107646,1014.5521139659016
1.794598388671875,-0.0665973553709685,-0.0692082685217261,0.090047935193777,-0.0533757954835891,0.0049945032224059,-0.0261674579232931,0.1808005222246475,0.0548620154442162,2.232360079327829,-14.843289375305176,-22.32192039489746,-30.613983154296875,-0.03842872236014708,1014.5521400395323
1.8046689453125,-0.063423255379498,-0.0788902891024947,0.0513911645412445,-0.0588914975523948,0.001525230705738,-0.0147585086524486,0.1802312292073838,0.0548685524881969,2.23219271494575,-14.783204078674316,-22.42560768127441,-30.368682861328125,-0.038641172376647964,1014.5521661093711
1.8147412109375,-0.0751199767835438,-0.0626370734378695,0.0244622410833835,-0.0638058260083198,0.0035249991342425,-0.0125526115298271,0.1796359457858553,0.0548496633859413,2.23210361492908,-14.902628898620604,-22.384796142578125,-30.260040283203125,-0.03885365844614688,1014.5521921836339
1.824812255859375,-0.0688426866123452,-0.0568973607420921,0.0390250194430351,-0.0623382292687892,0.0082616666331887,-0.0118776261806488,0.1790056832208333,0.0548597023079271,2.2320221356389083,-15.06187915802002,-22.53141975402832,-30.268585205078125,-0.03906611876350434,1014.5522182547367
1.83488427734375,-0.0598471504583954,-0.071063102608174,0.0654074149340391,-0.0630903095006942,-0.0046927481889724,-0.0225872620940208,0.1783751214686248,0.0548671799337067,2.2318850511233195,-15.075711250305176,-22.41865539550781,-30.35995483398437,-0.039278599682574966,1014.5522443283674
1.844956298828125,-0.0566687761506065,-0.0955338192589581,0.036253801164031,-0.0688171535730362,-0.0236660670489072,-0.0359138697385787,0.1777156840638462,0.0547171902661533,2.2316342113925773,-15.002863883972168,-22.29551124572754,-30.53155517578125,-0.039491080601645585,1014.5522704019982
1.85502734375,-0.0198391843926161,-0.1108249118931591,0.0181301154524087,-0.0665992796421051,-0.0270765107125043,-0.0490589663386344,0.1770151921047166,0.0544910349029037,2.2312410466915127,-15.077515602111816,-22.27426147460937,-30.68341064453125,-0.03970354091900305,1014.5522964731009
1.86509912109375,-0.0073349459979683,-0.1053486724391579,0.0187953013628721,-0.0669980496168136,-0.0276473276317119,-0.0594875365495681,0.1763424375848734,0.0542894732481494,2.23072878087126,-15.06013011932373,-22.240476608276367,-30.356903076171875,-0.039916016687645384,1014.5523225460997
1.875170166015625,0.0214936005361378,-0.0374834890894591,-0.001518003347516,-0.0635039880871772,-0.029980257153511,-0.0681827589869499,0.1756842262819315,0.0540866898091835,2.230118345594078,-14.95346736907959,-22.20135498046875,-30.881805419921875,-0.04012847700500285,1014.5523486172024
1.8852421875,0.1031385221090167,0.0039218496188521,-0.0107937812149524,-0.061034508049488,-0.0277466922998428,-0.0652603283524513,0.1750442825018163,0.0538847508773444,2.2294614942709754,-14.683297157287598,-22.10552406311035,-30.561065673828125,-0.040340957924073474,1014.5523746908332
1.895314208984375,0.1744160346528515,-0.0066015902221202,-0.0278752643972635,-0.059775099158287,-0.03212146833539,-0.0532225780189037,0.1744194324187477,0.0536719001850386,2.2288856558336656,-14.97485065460205,-22.09126091003418,-30.681396484375,-0.04055343884314409,1014.552400764464
1.90538525390625,0.1991978630794212,0.0118847913220524,-0.0344751010537147,-0.0625200718641281,-0.0395682491362094,-0.0411020815372467,0.1738080825806622,0.0533928786221673,2.2284218703278165,-14.77346897125244,-22.147119522094727,-30.615875244140625,-0.04076589916050156,1014.5524268355667
1.91545703125,0.2039659542640671,0.037437019599229,-0.07221300329566,-0.0704206079244613,-0.0401179268956184,-0.0316425338387489,0.1731382754932064,0.053031929639916,2.2280928569207834,-14.851740837097168,-22.163923263549805,-30.6812744140625,-0.04097837492914389,1014.5524529085654
1.925528076171875,0.1852745516670867,0.0452563150480389,-0.0983832173407077,-0.070537656545639,-0.0322195850312709,-0.0191011615097522,0.1724297110229488,0.0526982722656534,2.227884208561836,-14.891745567321776,-22.1365909576416,-30.9693603515625,-0.041190835246501356,1014.5524789796682
1.935600341796875,0.1316578565634787,0.054100861891359,-0.1424187584221363,-0.0538865141570568,-0.0208292435854673,-0.016244389116764,0.1718118452780121,0.0524647943408873,2.227742788083559,-15.06753635406494,-22.17898178100586,-30.54205322265625,-0.04140332131600027,1014.552505053931
1.94567236328125,0.104341577755846,0.0735138567611575,-0.1703799475371837,-0.0324269607663154,-0.0012054149992763,-0.0166029222309589,0.1713740975030697,0.0523917997359839,2.227589831164956,-14.895821571350098,-21.982255935668945,-30.581207275390625,-0.04161580223507089,1014.5525311275618
1.955743408203125,0.1225524302942678,0.0811303231142461,-0.1709182921975851,-0.0153608918190002,0.0112986601889133,-0.0171912126243114,0.1711247831718424,0.0525027421991939,2.227418150630732,-14.736729621887209,-22.017457962036133,-30.627593994140625,-0.04182826255242836,1014.5525571986645
1.9658154296875,0.1568021250942722,0.0516533226087689,-0.1383592538982629,0.0107230711728334,0.00914575625211,-0.0100043006241321,0.171109463739468,0.0526749643227406,2.227272460380638,-14.483349800109863,-21.853662490844727,-30.80697631835937,-0.04204074347149897,1014.5525832722954
1.975886474609375,0.1667476554494351,0.0502792577765882,-0.0787906281203031,0.022581061348319,-0.0231269635260105,0.0034478590823709,0.1712924486497511,0.0526384185606941,2.2272227282641333,-14.556395530700684,-22.16328811645508,-30.83026123046875,-0.04225320378885644,1014.552609343398
1.985958251953125,0.1529945495048537,0.0261136615522205,-0.0306342077165842,0.0185331273823976,-0.0465628951787948,0.0118764247745275,0.1715015929960453,0.0522977601064675,2.227276951253188,-14.905352592468262,-22.275753021240234,-30.904571533203125,-0.042465679557498776,1014.5526354163968
1.996029052734375,0.1260352309087291,0.0048145606748759,0.0322340441286563,0.0087963445112109,-0.0620233453810215,0.023671830072999,0.1716512195516364,0.0517589072216406,2.2274647619416643,-15.16323947906494,-22.13349723815918,-31.34042358398437,-0.04267813472442795,1014.5526614868676
2.00610107421875,0.0586485152583569,-0.0137558458909392,0.0317465528726577,-0.0030552158132195,-0.0673798173666,0.0261631812900304,0.1716961031904344,0.0510821659175382,2.2277123297811494,-15.00798511505127,-21.9506778717041,-30.910308837890625,-0.04289061564349857,1014.5526875604983
2.016173095703125,-0.0261808815695345,-0.0123385264389216,-0.0126245037734508,-0.0037718722596764,-0.04970308765769,0.021019285544753,0.1716569467062674,0.0504599990394389,2.2279414164115883,-15.071593284606934,-22.116321563720703,-30.865264892578125,-0.04310309656256919,1014.5527136341291
2.026244140625,-0.083744816461578,-0.0194978966742753,-0.0255950445055961,0.0047921771183609,-0.0201333947479724,0.0104880249127745,0.1716438735860084,0.0500984239174515,2.2280951981819586,-14.835223197937012,-22.104267120361328,-30.88861083984375,-0.04331555687992665,1014.5527397052318
2.03631640625,-0.1048332702629268,-0.0397433968454599,-0.0361649538367986,0.0162040889263153,-0.0070594050921499,0.0011496501974761,0.171732186063396,0.0499895680852657,2.2281363299745567,-14.83521556854248,-21.81790542602539,-30.63641357421875,-0.04352804294942557,1014.5527657794946
2.04638720703125,-0.0870293545575812,-0.0547258619219064,-0.0393722254455089,0.0322259813547134,-0.0121509060263633,-0.0063804211094975,0.1719625404412763,0.0499453445807201,2.2280812550658737,-14.9130220413208,-21.700239181518555,-30.656890869140625,-0.04374049811635475,1014.5527918499654
2.056459228515625,-0.0652082756327465,-0.0662722150698304,-0.0127197808414697,0.0486227981746196,-0.0254358202219009,-0.0078499540686607,0.1723472516297842,0.0498118228988102,2.227978463019738,-15.106776237487791,-22.124839782714844,-31.0322265625,-0.04395297903542536,1014.5528179235961
2.06653125,-0.0683568758567795,-0.0728657681159675,0.0721948831170797,0.0510427393019199,-0.0479789711534976,-0.0096714822575449,0.1728419041950067,0.049491083898847,2.2278503107247016,-15.24373722076416,-22.21266365051269,-30.7957763671875,-0.04416545995449599,1014.5528439972269
2.076602294921875,-0.0844005769565701,-0.0975176865525543,0.1267331135123968,0.0439001396298408,-0.0715932250022888,-0.015738695859909,0.1733105682156543,0.04894016297045,2.2276846594889173,-15.375994682312012,-22.299509048461918,-30.81097412109375,-0.04437792027185346,1014.5528700683296
2.08667431640625,-0.1271809303451329,-0.1320205523960292,0.1816770020991563,0.0298735443502664,-0.0851814746856689,-0.0308291707187891,0.1736734321416559,0.0482126389400719,2.2274234699648274,-15.281256675720217,-22.11719512939453,-30.576568603515625,-0.04459040119092408,1014.5528961419604
2.096745361328125,-0.1751538839407265,-0.1530373292006552,0.2204185284256935,0.0190057158470153,-0.0879996344447135,-0.0612698979675769,0.1738988242159507,0.0474172301111595,2.226943476689295,-15.0673246383667,-22.08041381835937,-30.785430908203125,-0.04480286150828154,1014.5529222130632
2.106817138671875,-0.2228227400232106,-0.145728759752959,0.2167342869549989,0.0054296487942337,-0.0822709500789642,-0.0942709296941757,0.1739738526012945,0.0466821095183432,2.2261475540532274,-15.059588432312012,-22.132549285888672,-30.71441650390625,-0.04501533727692387,1014.5529482860619
2.11688818359375,-0.2280359080942347,-0.1308140992157161,0.1968669724464416,-0.0017217369750142,-0.0737280547618866,-0.1254096776247024,0.1739377696808311,0.0460744477694731,2.225019703949094,-15.018437385559082,-22.169065475463867,-30.882598876953125,-0.04522779759428133,1014.5529743571647
2.126960205078125,-0.1873615140089765,-0.123117407233268,0.1704325545072555,-0.0006806850433349,-0.0664543285965919,-0.1513074040412902,0.1738515658089161,0.0456112961266561,2.2236076058905363,-15.004837989807127,-22.14411354064941,-30.77142333984375,-0.04544027851335196,1014.5530004307955
2.1370322265625,-0.1348630823455751,-0.1098822242155671,0.1650216353744268,-0.0031148139387369,-0.060599897056818,-0.1679068952798843,0.1737810602299606,0.0452565753275575,2.221974185836953,-15.048375129699709,-22.1218376159668,-30.72528076171875,-0.04565275943242258,1014.5530265044262
2.147103271484375,-0.0755810549566522,-0.1081608072504401,0.1379383981376886,-0.0062882378697395,-0.0559947602450847,-0.175461545586586,0.1736804014555849,0.0449584731998346,2.220219835688819,-15.122769355773926,-22.19200897216797,-30.491943359375,-0.04586521974978004,1014.5530525755289
2.157175537109375,-0.00376030238159,-0.0724111562162637,0.1248953766912221,-0.0185829885303974,-0.0504641756415367,-0.1745350360870361,0.1734930975766646,0.0447094385476666,2.2184196409813195,-15.050000190734863,-22.146528244018555,-30.785675048828125,-0.046077705819278954,1014.5530786497917
2.16724658203125,0.0511805539978668,-0.0250062848322093,0.1178548105299472,-0.0343604981899261,-0.03295673802495,-0.1662715524435043,0.1731801490769441,0.0445649563062425,2.2166932920392197,-15.196227073669434,-22.049955368041992,-30.679168701171875,-0.04629016613663642,1014.5531047208945
2.177318359375,0.0826869779717177,0.0085324121542274,0.1012298389434814,-0.0476973429322242,-0.0237094461917877,-0.1557901501655578,0.172748489695681,0.0445530460802236,2.215073904118064,-15.048462867736816,-22.333118438720703,-30.74252319335937,-0.04650264190527876,1014.5531307938933
2.18738916015625,0.1155373273678123,0.0281378608562052,0.0606833090215921,-0.0530887469649314,-0.0195423737168312,-0.1474632769823074,0.1722066891805269,0.0445715850381203,2.213543021106,-14.855286598205566,-22.26079750061035,-30.5701904296875,-0.04671509707220793,1014.5531568643639
2.197461181640625,0.123681653519906,0.0280437528319656,0.0147889883309602,-0.0541159287095069,-0.0193908400833606,-0.1377906799316406,0.1716394048835556,0.04459157895714,2.212114795341697,-14.866686820983888,-22.332857131958008,-30.73959350585937,-0.04692757799127855,1014.5531829379947
2.207533203125,0.1042735540209338,-0.0057033262081444,-0.0374029711991548,-0.0506423041224479,-0.0270772166550159,-0.1297707706689834,0.1710892858147249,0.0445671891481196,2.2107712616523068,-14.929522514343262,-22.086231231689453,-30.475128173828125,-0.04714005891034918,1014.5532090116255
2.217604248046875,0.0632858927354216,-0.0336215529642999,-0.1064127945393323,-0.0379733853042125,-0.0469097755849361,-0.1288823336362838,0.1706158957240465,0.0443762075800704,2.2094891919679736,-14.902300834655762,-22.122961044311523,-30.72393798828125,-0.04735251922770664,1014.5532350827283
2.22767626953125,0.001862834729813,-0.066183367742598,-0.1671831973224878,-0.0279299840331077,-0.051310509443283,-0.1400951445102691,0.1702504172851864,0.0440863812728071,2.2081345215675228,-14.866881370544434,-22.08121490478516,-30.75106811523437,-0.04756500014677726,1014.553261156359
2.237747314453125,-0.0812032056873664,-0.0749332220397889,-0.1954366473823785,-0.008018328808248,-0.0441471375524997,-0.1536602228879928,0.1700263327476294,0.0438385051007976,2.2066549280342125,-14.718844413757324,-22.169170379638672,-30.642547607421875,-0.047777460464134724,1014.5532872274617
2.247819091796875,-0.1840680254215374,-0.0537280830562114,-0.2015875712275505,0.0060135200619697,-0.0214534252882003,-0.1672463119029998,0.1699599161378874,0.0437826280991767,2.205017536780273,-14.812178611755373,-22.224647521972656,-30.7354736328125,-0.04798993623277706,1014.5533133004606
2.25789013671875,-0.2360189792700111,-0.0644305327259004,-0.2088286283969879,0.0228138044476509,0.0057214694097638,-0.1772973537445068,0.1700292401847671,0.0440028710521338,2.203247272880142,-14.75696086883545,-22.428497314453125,-30.49374389648437,-0.04820239655013452,1014.5533393715633
2.267962158203125,-0.262242238676548,-0.0841539087191224,-0.1907353378236293,0.0407475531101226,0.0278886575251817,-0.1846933811903,0.1702644438197483,0.0445198803154037,2.201377326688399,-14.76809787750244,-22.59891700744629,-30.8074951171875,-0.04841487746920515,1014.553365445194
2.278034423828125,-0.2959229014169424,-0.0808820474416017,-0.1149228487312793,0.0509013868868351,0.0540555492043495,-0.1923539638519287,0.1706339418635898,0.0452989348291976,2.199427505322697,-14.652260780334473,-22.39795684814453,-30.841094970703125,-0.04862736353870406,1014.5533915194568
2.288105224609375,-0.3117384928492829,-0.0480279717184603,-0.010477554872632,0.0616123490035533,0.0564207136631011,-0.202742338180542,0.1711071022888353,0.0462279384162663,2.197375202242064,-14.442585945129396,-22.55987930297852,-30.785675048828125,-0.04883981870563323,1014.5534175899276
2.29817724609375,-0.3268212764950469,-0.0391702731326222,0.0620820699036121,0.0739417225122451,0.0433560386300087,-0.2050611525774002,0.1716830916413247,0.0471130712747768,2.195262411180844,-14.440360069274902,-22.551362991333008,-30.48919677734375,-0.04905229962470386,1014.5534436635584
2.308248291015625,-0.3499176360527053,-0.0397111020110547,0.1239554654926061,0.0974615290760994,0.0099753029644489,-0.2071673423051834,0.1724479655121309,0.0477449846603795,2.193124190075131,-14.267701148986816,-22.56714630126953,-30.45419311523437,-0.049264759942061316,1014.5534697346611
2.3183203125,-0.3825811211071908,-0.0336443493179976,0.1498760886907577,0.1216321066021919,-0.0462608039379119,-0.2095335721969604,0.1734477211305845,0.0479128275899451,2.1909659214777406,-14.052626609802246,-22.649633407592773,-30.6534423828125,-0.04947724086113194,1014.5534958082918
2.328391357421875,-0.4391125346137211,-0.0725248457238078,0.1821264994323253,0.1357825696468353,-0.0915658697485923,-0.2223216891288757,0.1746432898216747,0.0475628500756479,2.1887080678890625,-14.155112266540527,-22.8987979888916,-30.176971435546875,-0.04968970117848941,1014.5535218793946
2.33846337890625,-0.493775852693431,-0.1396750126719474,0.2483586747527122,0.1244713217020034,-0.144218698143959,-0.245516762137413,0.1758558391449076,0.046755498136515,2.1862578372027985,-14.33376407623291,-22.87189483642578,-30.41357421875,-0.049902182097560026,1014.5535479530254
2.348535400390625,-0.5304601176965982,-0.191421420391649,0.2591746677994728,0.0949460193514823,-0.188357800245285,-0.2767517566680908,0.1768506990869343,0.0455093077421635,2.1835472067418213,-14.138213157653809,-22.875852584838867,-30.6072998046875,-0.05011466301663066,1014.5535740266562
2.3586064453125,-0.5672327185703441,-0.2426416122801601,0.2293161206305027,0.0517495460808277,-0.2169726639986038,-0.3167676329612732,0.1774661948551064,0.0439275427941749,2.1804886250593563,-14.12280559539795,-23.068357467651367,-30.690826416015625,-0.050327123333988116,1014.5536000977589
2.36867822265625,-0.607287300256826,-0.2475144790135323,0.1813654519319534,-0.0041428189724683,-0.2313540279865265,-0.3564346432685852,0.1775659503949192,0.042231971621105,2.177045823512915,-14.150982856750488,-22.978334426879883,-30.60015869140625,-0.05053959910263045,1014.5536261707576
2.3787490234375,-0.641849166278541,-0.2106073285073041,0.0598234773218631,-0.0571383982896804,-0.2122969776391983,-0.3922877013683319,0.1770953767930372,0.040614442656178,2.173234573372009,-14.05840015411377,-23.16342544555664,-30.85870361328125,-0.05075205426955962,1014.5536522412284
2.388821044921875,-0.6809537537638097,-0.1319144616730511,-0.0997398926466703,-0.0900952965021133,-0.1648097336292266,-0.4173609614372253,0.1761791653873039,0.0394030270379841,2.1691115717232994,-14.25194263458252,-23.09575462341309,-30.1527099609375,-0.050964535188630256,1014.5536783148592
2.39889208984375,-0.713582496298477,-0.0253369780912995,-0.2377034252256155,-0.1059898436069488,-0.108643390238285,-0.4292085766792297,0.1750050711312385,0.0387753284579798,2.164818657044206,-14.231574058532717,-23.06981468200684,-30.13665771484375,-0.05117699550598771,1014.5537043859619
2.408964111328125,-0.7337015205457806,0.0985140041135251,-0.3377484382987022,-0.1051136702299118,-0.0616479180753231,-0.4300943315029144,0.1737604792519917,0.0386652908272085,2.160463462786109,-14.228081703186035,-23.22738265991211,-30.39300537109375,-0.05138947642505834,1014.5537304595927
2.41903515625,-0.6767769795358181,0.1218712065644562,-0.4001180929720401,-0.0909877270460128,-0.0123573336750268,-0.416633129119873,0.1726001250746466,0.0390230082833339,2.156180156625652,-14.199481010437012,-23.28703117370605,-30.253631591796875,-0.0516019367424158,1014.5537565306954
2.429107421875,-0.5501183560317382,0.059043286729604,-0.4037877213954925,-0.0607206635177135,0.0376693904399871,-0.3923653960227966,0.1716574335610192,0.039846773644965,2.152084825056377,-13.983424186706545,-23.15392303466797,-30.503692626953125,-0.05181442281191471,1014.5537826049582
2.43917919921875,-0.4037746427182108,-0.0264769419066607,-0.349619493356347,-0.016942024230957,0.0701612904667854,-0.3716534376144409,0.1711074414622222,0.0410519858144671,2.1482069875079626,-13.998091697692873,-23.23470687866211,-30.76153564453125,-0.05202689858055705,1014.553808677957
2.449250244140625,-0.2990178717575967,-0.0977595324844121,-0.2246393609911203,0.021959763020277,0.1003195643424987,-0.3548403680324554,0.170993361238496,0.0425534157004811,2.144489243290019,-13.82156467437744,-23.32553100585937,-30.27362060546875,-0.05223935889791451,1014.5538347490597
2.459322265625,-0.2150777884522453,-0.1808819061987102,-0.0272585938036441,0.0429963394999504,0.1170759126543998,-0.3341904878616333,0.1711870458182463,0.0442604888652612,2.140956564161058,-13.66930103302002,-23.56379508972168,-30.40829467773437,-0.05245183981698513,1014.5538608226905
2.469393310546875,-0.1382895131302997,-0.2836829399816691,0.2072118408501148,0.0392996780574321,0.1075277104973793,-0.3083729445934295,0.171465793507981,0.0459653076221604,2.13764648509456,-13.500432014465332,-23.54645156860352,-30.3447265625,-0.0526643001343426,1014.5538868937932
2.47946533203125,-0.0632253581872209,-0.4219169600650668,0.3612041326880454,0.0181658994406461,0.060539960861206,-0.2837759852409363,0.1716238786367256,0.0473364349118881,2.1346122333323314,-13.46465015411377,-23.81168556213379,-30.098846435546875,-0.05285437107103013,1014.5539107024078
2.489536376953125,-0.022203100512363,-0.5598346076756715,0.4857616557270288,-0.0129737397655844,0.021844495087862,-0.2772956788539886,0.1715204694332655,0.0482325677118501,2.131767424297805,-13.385096549987791,-23.84555053710937,-30.181427001953125,-0.05290744618437298,1014.5539206641689
2.499608154296875,-0.0340923488138243,-0.6586245061211288,0.5766530560076236,-0.0534833446145057,-0.0021141003817319,-0.2862987518310547,0.1710528907973028,0.0488093082913335,2.128917047589252,-13.427916526794434,-23.817222595214844,-29.975494384765625,-0.0529605251576305,1014.5539306266544
2.50967919921875,-0.0442123954856768,-0.707380938244611,0.5838157872438431,-0.090610072016716,-0.0340923480689525,-0.3059260845184326,0.1701574571100043,0.0491525639843849,2.125928073319753,-13.309876441955566,-23.62663459777832,-30.18194580078125,-0.05301360027097335,1014.5539405884153
2.519751220703125,-0.0020465572662651,-0.7707961564481258,0.495354828980565,-0.1245515272021293,-0.0725830197334289,-0.3347231149673462,0.1689067580547352,0.0491453432689246,2.122724467150924,-13.309082984924316,-23.818273544311523,-30.261749267578125,-0.05306668053086909,1014.5539505511424
2.5298232421875,0.06568429564666,-0.7817736236669123,0.3781564365327358,-0.1353217363357544,-0.0738157480955123,-0.3559938073158264,0.1674308402620432,0.0489527852866266,2.119275624617588,-13.374638557434082,-23.8021240234375,-30.398956298828125,-0.05311976079076483,1014.5539605138694
2.539894287109375,0.1170099572036415,-0.7571135219238698,0.3227215495586395,-0.1316132843494415,-0.0472171567380428,-0.3676017224788666,0.1659113530262365,0.0489402700738801,2.115649686916616,-13.18357753753662,-23.770544052124023,-30.21148681640625,-0.05317283590410768,1014.5539704756304
2.549966552734375,0.173591383864358,-0.6831738409660756,0.2597498373389243,-0.1284469366073608,-0.0254498682916164,-0.3639900386333465,0.1644282373651955,0.0491895134330397,2.111971675737115,-13.328137397766112,-23.76864051818848,-30.34259033203125,-0.05322591745064165,1014.553980438599
2.560037353515625,0.2768475410036742,-0.6139908530160785,0.1998515412151813,-0.1141231209039688,-0.012070145457983,-0.341389924287796,0.1630260791573121,0.0495800274824479,2.1084179475015588,-13.1079683303833,-23.66792297363281,-30.06488037109375,-0.05327899127734627,1014.5539904001184
2.570109130859375,0.4071168292855843,-0.5953074875950813,0.1665484065502881,-0.0910358652472496,-0.0216767359524965,-0.3140605986118316,0.1618332809495126,0.0499485807663697,2.1051260914534446,-13.150198936462402,-23.894855499267575,-30.18060302734375,-0.05333207025060379,1014.5540003626039
2.58018017578125,0.5064283404523506,-0.5694717662014067,0.119822895732522,-0.071902647614479,-0.05120799690485,-0.2908119857311249,0.1608694559740041,0.0500695059028613,2.1020965476179554,-12.879351615905762,-23.969844818115234,-30.2000732421875,-0.05338514536394664,1014.554010324365
2.590252197265625,0.5563301432186737,-0.5573674869097769,0.0768634594500064,-0.0567557364702224,-0.075059026479721,-0.2783899903297424,0.1600794302503054,0.0498698922940704,2.0992343496897354,-12.719151496887209,-23.93305969238281,-30.5531005859375,-0.05343822562384238,1014.5540202870919
2.6003232421875,0.5583117820225656,-0.5150025093890727,0.0366436772644519,-0.048635222017765,-0.0940257906913757,-0.2730274498462677,0.1594166672547932,0.0494584837583501,2.0964622090424614,-12.866944313049316,-23.833396911621094,-30.07113647460937,-0.05349130073718523,1014.554030248853
2.610395263671875,0.5448279945386574,-0.4670404425136745,-0.047005496802926,-0.0407815761864185,-0.1149991080164909,-0.2650816738605499,0.1588374479177927,0.0488366975787672,2.093734610382259,-12.884163856506348,-23.793909072875977,-30.00970458984375,-0.05354438099708097,1014.5540402115801
2.62046728515625,0.5309856759406626,-0.4224376229383051,-0.1399655200511217,-0.0359878838062286,-0.1243806257843971,-0.2549725770950317,0.1583286538455379,0.0480361003669303,2.0911026055539894,-12.93507480621338,-23.86504173278809,-30.367401123046875,-0.05359746125697671,1014.554050174307
2.630538330078125,0.5093014482032507,-0.3750556940384209,-0.2184691479235887,-0.03432397544384,-0.1159889474511146,-0.2336722165346145,0.1578596042241116,0.0472113095902985,2.088631476766887,-12.780049324035645,-23.89716339111328,-30.269744873046875,-0.05365053637031956,1014.5540601360681
2.640610107421875,0.4674621019918471,-0.3123052233539521,-0.2991770078420639,-0.0313364416360855,-0.0870904475450515,-0.2082725912332534,0.1574169433604718,0.0465213218595421,2.08638697395178,-12.79765796661377,-23.84893035888672,-30.328369140625,-0.05370361534357708,1014.5540700985536
2.65068115234375,0.4038179338706657,-0.2359578967325389,-0.4011094420969486,-0.0194242261350154,-0.0556807108223438,-0.1934479922056198,0.1570649372364777,0.0461216030290229,2.084350030610406,-12.70493984222412,-23.833904266357425,-30.32382202148437,-0.05375669045691993,1014.5540800603146
2.660753173828125,0.3404906862115487,-0.1900529085174203,-0.502962381374836,-0.0096709290519356,-0.0069070449098944,-0.1806248724460601,0.1568451725588722,0.0460922221673798,2.0824438092176023,-12.958491325378418,-23.834606170654297,-30.5098876953125,-0.05380977071681567,1014.5540900230416
2.67082421875,0.3089275270817801,-0.1669410591296851,-0.5538888510137796,0.0041778795421123,0.0542839914560318,-0.1752422004938125,0.1567285695756331,0.0466006366177893,2.080623153174588,-12.46229076385498,-23.79763603210449,-30.65997314453125,-0.05386284583015852,1014.5540999848026
2.680896484375,0.2852591763224452,-0.1339976976878941,-0.5513239689618349,0.0191387198865413,0.1107621788978576,-0.1589569747447967,0.1567772958696467,0.047701691608517,2.078907891149595,-12.608912467956545,-23.91554069519043,-30.37457275390625,-0.053915927376692485,1014.554109947771
2.690967529296875,0.2927235208537429,-0.0963645709946751,-0.5189315194010734,0.0308443773537874,0.1354313045740127,-0.1276115626096725,0.1569548755118905,0.0492051254573184,2.077409701317356,-12.511975288391112,-23.91429901123047,-30.247955322265625,-0.053969002490035334,1014.5541199095321
2.701039306640625,0.3126799749504774,-0.0720863081760704,-0.4756131866782903,0.0486294999718666,0.1352877616882324,-0.087167203426361,0.1572985574950762,0.0507490417777297,2.076290212994237,-12.567063331604004,-23.81812286376953,-29.89990234375,-0.054022081463292855,1014.5541298720176
2.7111103515625,0.3327648777324706,-0.0781070297703147,-0.4214443741172551,0.0737299919128418,0.1408762335777282,-0.0393216609954834,0.157882041618537,0.0522510282323643,2.0756090073602707,-12.551642417907717,-23.902671813964844,-30.1058349609375,-0.054075156576635704,1014.5541398337787
2.721182373046875,0.3263705005202442,-0.0845576672144234,-0.3186374951153993,0.0928887799382209,0.1532881706953048,-0.0031644555274397,0.1587302291502071,0.0537704973391943,2.07535475538946,-12.343649864196776,-24.204418182373047,-30.1815185546875,-0.054128236836531445,1014.5541497965056
2.73125341796875,0.2636811489058658,-0.094850367039442,-0.2030167272478342,0.1067404076457023,0.1671523153781891,0.0256746504455804,0.1597535530347759,0.0553882154832367,2.0754152032314432,-12.30477809906006,-24.02325820922852,-30.204376220703125,-0.05418131194987429,1014.5541597582667
2.741325439453125,0.1977800687033682,-0.1103662083402276,-0.0811994428277015,0.1129503697156906,0.173825666308403,0.0508833341300487,0.1608867097845953,0.0570613117125341,2.075741023117485,-12.166129112243652,-24.25948905944824,-30.42572021484375,-0.054234392209770034,1014.5541697209936
2.7513974609375,0.1647111446531489,-0.1608785442203283,0.0321089564442634,0.1168873235583305,0.1707119047641754,0.0751873403787612,0.1620838579143121,0.0587140084018544,2.0763124457416096,-12.09353733062744,-24.401954650878903,-30.427276611328125,-0.054287472469665775,1014.5541796837207
2.76146826171875,0.1527752807309851,-0.2294609359286725,0.1239917058497667,0.1198578104376792,0.1543350517749786,0.0987704247236251,0.163331360758909,0.0602096390047053,2.0771269462555804,-11.98412036895752,-24.40596580505371,-30.3154296875,-0.054340546296370404,1014.5541896452402
2.7715400390625,0.1219670316217467,-0.2971345422290265,0.2048398510217666,0.1203984543681144,0.1355286985635757,0.1194425225257873,0.1646111929944261,0.0614913593626322,2.078166452028693,-12.12018871307373,-24.16056060791016,-30.31146240234375,-0.05439362526962792,1014.5541996077258
2.781611083984375,0.0851992165209725,-0.3768316176697611,0.2857949636995792,0.1146481558680534,0.1195976808667182,0.1335692554712295,0.1658703914505262,0.0626003937526498,2.079385695526043,-12.170660972595217,-24.0576286315918,-30.32244873046875,-0.054446700382970774,1014.5542095694867
2.79168310546875,0.0506700106598436,-0.467754582132399,0.3586918576061725,0.1080473139882087,0.0989013537764549,0.1426655650138855,0.1670831401266211,0.0635086299362434,2.0807225862077106,-12.040793418884276,-24.170360565185547,-30.08114624023437,-0.054499780642866515,1014.5542195322138
2.801754150390625,0.0237231131538748,-0.5374824906140565,0.4044856405317783,0.0977800339460372,0.079850435256958,0.1412591487169265,0.1681977206178642,0.0641887556716059,2.082101501741964,-12.23686695098877,-24.29416275024414,-30.61871337890625,-0.05455285575620936,1014.5542294939747
2.811826416015625,0.0103127927649766,-0.605568330977112,0.4529033422201871,0.087101511657238,0.0712941735982894,0.1395454108715057,0.1692192308047027,0.0647214394317002,2.0834751634924067,-11.970343589782717,-24.40102767944336,-30.345977783203125,-0.05460593730274333,1014.5542394569433
2.8218974609375,-0.0055440439932048,-0.6546775220610201,0.4958715463310479,0.0775934979319572,0.0543857663869857,0.1376045048236847,0.1701297159166254,0.0651499643207719,2.084837860241399,-12.216280937194824,-24.25469017028809,-30.337921142578125,-0.05465901241608618,1014.5542494187043
2.831969482421875,-0.0398908424921333,-0.7056476847112179,0.4944973353683948,0.0616067424416542,0.0473202317953109,0.1353442668914795,0.1709406691523716,0.0654311440740192,2.086178257983596,-12.234841346740724,-24.403470993041992,-29.852783203125,-0.05471209267598192,1014.5542593814313
2.84204052734375,-0.0652092620134353,-0.75971493659392,0.479994762763381,0.0441635698080062,0.0385464467108249,0.1277108490467071,0.1715706000879019,0.0656431123701795,2.087481784257976,-12.22597599029541,-24.0684814453125,-29.808624267578125,-0.05476516778932477,1014.5542693431923
2.8521123046875,-0.0695893037285655,-0.7904298083312808,0.4532423649162054,0.02754532918334,0.0355452299118042,0.124901607632637,0.172031158399428,0.0657922691211276,2.088728674198006,-12.288064002990724,-24.20238876342773,-29.90658569335937,-0.05481824676258229,1014.5542793056778
2.862183349609375,-0.0887789381712675,-0.7978574741140008,0.3963467577397823,0.0150327328592538,0.0365540347993373,0.1127693057060241,0.1723465248981808,0.0659548355067603,2.0899212525605804,-12.356364250183104,-24.360126495361328,-29.67462158203125,-0.05487132187592514,1014.5542892674389
2.87225537109375,-0.0761925013858824,-0.8048175223849713,0.3317430604040622,0.0132806673645973,0.046791847795248,0.106671042740345,0.1726018833760246,0.0661578149119625,2.0910303856824464,-12.385649681091309,-24.27670288085937,-29.73788452148437,-0.05492440213582088,1014.5542992301658
2.882326416015625,-0.0642719811633229,-0.7752863074742257,0.2868272293567657,0.010153317824006,0.0589081645011901,0.0993662551045417,0.1728396582243316,0.0665073163347904,2.0920736654973933,-12.395882606506348,-24.378341674804688,-29.778045654296875,-0.05497747724916373,1014.5543091919269
2.8923984375,-0.0371318261075764,-0.7564535967104137,0.2642968331187963,0.0061830831691622,0.0801348760724067,0.0973857417702674,0.1730387752754287,0.0670472176122628,2.093069632951274,-12.573843955993652,-24.516090393066406,-29.51010131835937,-0.05503055750905947,1014.5543191546539
2.90247021484375,0.0010370148975402,-0.7379238144159317,0.2520382400482893,-0.0020612645894289,0.1089854314923286,0.1057730987668037,0.1731755962974289,0.067823952029704,2.0940897558287457,-12.845072746276855,-24.31049346923828,-29.831573486328125,-0.05508363648231699,1014.5543291171393
2.912541259765625,0.0499669038917869,-0.7584165673464536,0.2516419342070817,-0.0052461763843894,0.1367514878511428,0.125900998711586,0.1732693152063144,0.0688655410507528,2.095271884590162,-12.714810371398926,-24.158111572265625,-30.05697631835937,-0.05513671159565984,1014.5543390789004
2.92261328125,0.0786976891398429,-0.7593716761142015,0.2553922266513109,-0.0001496849581599,0.152153342962265,0.1534785628318786,0.1734027927833338,0.0700783314800708,2.0967014149339365,-12.545390129089355,-23.80984687805176,-30.49383544921875,-0.05518979185555558,1014.5543490416273
2.93268408203125,0.0809227447781711,-0.7460780409075319,0.2642541630208492,0.0168452523648738,0.1613584905862808,0.179228127002716,0.1736636767858057,0.0713570940946406,2.0983913383444177,-12.663193702697754,-24.170063018798828,-30.65609741210937,-0.0552428656822602,1014.5543590031469
2.942756103515625,0.0521343110587447,-0.7321002228289842,0.2836626278460025,0.037609651684761,0.1627835482358932,0.2019989639520645,0.1741348048870259,0.0726427552120093,2.1003250649377714,-12.643221855163574,-24.19355010986328,-30.40878295898437,-0.05529594594215595,1014.5543689658739
2.9528271484375,0.0008126315571367,-0.7039015716962516,0.2893810054928064,0.0594277493655681,0.149952620267868,0.2233298569917678,0.1748544431715664,0.0738323614487523,2.102460336194116,-12.697073936462402,-24.11956787109375,-30.595977783203125,-0.0553490210554988,1014.554378927635
2.9628994140625,-0.0729440209839493,-0.7238323068298399,0.323470322099328,0.0796539261937141,0.1147379055619239,0.2387096136808395,0.175796732663005,0.0747600775660857,2.1047733234787773,-12.714692115783691,-24.09990692138672,-30.2965087890625,-0.05540210260203276,1014.5543888906035
2.972970458984375,-0.1498166866537183,-0.7449382232226431,0.3284878580003976,0.0921960994601249,0.0821278393268585,0.2511849403381347,0.1769119565604995,0.0753147602923379,2.1072175999239118,-12.725743293762209,-24.12409210205078,-30.239532470703125,-0.055455177715375614,1014.5543988523644
2.983042236328125,-0.2206517526596784,-0.7945902890115976,0.317962956854701,0.0971554443240165,0.0612481199204921,0.2562403976917267,0.1781395039953268,0.0755549191819258,2.1097475472440324,-12.958670616149902,-24.366016387939453,-30.083526611328125,-0.05550825668863313,1014.55440881485
2.99311328125,-0.3126468763984739,-0.8446440674692391,0.2825859385251998,0.1113426312804222,0.0674351900815963,0.2509899139404297,0.1794807709469704,0.0757254764636326,2.112268182323279,-12.759617805480955,-24.15704917907715,-29.857635498046875,-0.05556133180197598,1014.554418776611
3.003185302734375,-0.3896845964368433,-0.8759392233125864,0.2510135731756687,0.1244917288422584,0.0937991589307785,0.2404954582452774,0.1809520403408211,0.0760853989393484,2.114699975835049,-12.85253620147705,-24.126218795776367,-29.553985595703125,-0.05561441206187172,1014.554428739338
3.01325634765625,-0.4541560456950217,-0.8650301451548933,0.2508423082619905,0.1485069990158081,0.1282608211040496,0.2256685495376587,0.1826106001000257,0.0768066183294585,2.1169866062510314,-13.030255317687988,-23.9594783782959,-29.630859375,-0.05566748717521457,1014.554438701099
3.023328369140625,-0.4719140398994088,-0.8996648206844925,0.2675666485697031,0.1617197394371032,0.1576453298330307,0.2139162868261337,0.1844503054853238,0.0778709112925443,2.1191174475736267,-13.134564399719238,-24.015724182128903,-30.1080322265625,-0.05572056743511031,1014.5544486638261
3.0333994140625,-0.430919254753366,-0.9396237599767744,0.2910691047102213,0.1676447391510009,0.1736104488372802,0.1994982063770294,0.1863747936658531,0.0792080564262393,2.121093355553314,-13.094923973083496,-23.91617584228516,-29.9481201171875,-0.05577364254845316,1014.554458625587
3.04347119140625,-0.4074184791132808,-0.9582879823058844,0.329262934026122,0.161321073770523,0.1769979894161224,0.1842960864305496,0.1883047973923182,0.0806232098776214,2.1229321996524644,-13.18934154510498,-24.07235717773437,-29.806121826171875,-0.05582672152171068,1014.5544685880726
3.053542236328125,-0.3707202221173792,-0.9713326111875474,0.363058820644021,0.1546087563037872,0.1766505241394043,0.1761248707771301,0.1901508856722974,0.0820510689865744,2.1246605580653344,-13.112578392028809,-24.11591148376465,-29.58895874023437,-0.055879796635053526,1014.5544785498336
3.0636142578125,-0.3461168920628726,-0.969096084307134,0.3777338272064924,0.1398497968912124,0.1806271523237228,0.1637347787618637,0.19176634402556,0.0835363418999569,2.126279312920621,-13.149271965026855,-23.901092529296875,-29.747100830078125,-0.055932876894949274,1014.5544885125606
3.073686279296875,-0.3112141401816159,-0.9467049504093824,0.3867155905634165,0.121673010289669,0.2155262976884842,0.1548289209604263,0.1932064476481919,0.085194342201255,2.127785591479637,-13.35312557220459,-24.128887176513672,-29.881378173828125,-0.055985957154845015,1014.5544984752876
3.083757080078125,-0.2091433203693479,-0.9481957734890282,0.4180342734128237,0.1075614541769027,0.2918048202991485,0.1443725526332855,0.1944821030786002,0.0874773187622311,2.129197787525797,-13.18392848968506,-24.14554786682129,-29.759765625,-0.05603903098154964,1014.5545084368072
3.09382958984375,-0.0397838749863207,-1.0158728869207203,0.4620055170863866,0.0765699222683906,0.2938747107982635,0.1439845114946365,0.1955510671716662,0.0902163438329511,2.1305815396966707,-13.291857719421388,-23.899555206298828,-29.496063232421875,-0.056092113814721824,1014.5545184000172
3.103900390625,0.1113422868307679,-1.07836996736601,0.3812105634063482,0.0301188006997108,0.1973303407430648,0.1467185020446777,0.1962408846767327,0.0924635579890852,2.1320190811123467,-13.425429344177246,-23.951425552368164,-29.49517822265625,-0.05614518764142645,1014.5545283615367
3.11397216796875,0.2087932648226618,-1.1111292044125496,0.2250970416307449,-0.0169694684445858,0.0491652898490428,0.1544526368379593,0.1964443395544095,0.0934166232646424,2.1335644227669968,-13.582669258117676,-24.107810974121094,-29.762176513671875,-0.056198266614683974,1014.5545383240221
3.124043212890625,0.2026128956872969,-1.0967574185803532,0.0218196176201105,-0.0647777393460273,-0.0857120975852012,0.1581999808549881,0.1961805352405768,0.0928851799959531,2.135226444541972,-13.41891384124756,-23.982227325439453,-29.6812744140625,-0.05625134172802682,1014.5545482857832
3.134115234375,0.1162432836800813,-0.9739553609065712,-0.2510591658830642,-0.1138265207409858,-0.2153215855360031,0.1259029954671859,0.1954285999890402,0.0910466322160744,2.1367976420472705,-13.29813289642334,-23.8831844329834,-29.61883544921875,-0.056304421987922564,1014.5545582485101
3.144186279296875,-0.0395114147204905,-0.7900421241879463,-0.6174789873927832,-0.1498905271291732,-0.3040218651294708,0.0744216963648796,0.1941852679428498,0.0881650615458265,2.1379478054132166,-13.721030235290527,-23.945018768310547,-29.112213134765625,-0.05635749710126541,1014.5545682102712
3.15425830078125,-0.2611896608836949,-0.6066209087699651,-0.9810375742524862,-0.1777796447277069,-0.3604139685630798,0.0115018812939524,0.1925801711117984,0.0846954743451293,2.138533367892044,-13.702221870422363,-23.86084747314453,-29.369842529296875,-0.05641057736116115,1014.5545781729982
3.164329345703125,-0.4696824814550578,-0.3843487153016031,-1.3384779704928398,-0.1884336173534393,-0.374437928199768,-0.049289297312498,0.1907056750881415,0.0809425955948593,2.1384894919449184,-13.811356544494627,-23.74267578125,-29.60675048828125,-0.056463652474504,1014.5545881347592
3.1744013671875,-0.6214177150811999,-0.1863069999873638,-1.5978426079064607,-0.1675007045269012,-0.2910887002944946,-0.0849842429161071,0.1888485620094558,0.0776413375702109,2.137943348901812,-14.230742454528809,-23.55415725708008,-29.940399169921875,-0.05651673273439974,1014.5545980974863
3.184472412109375,-0.64524311956577,-0.0260804899349808,-1.754140838599205,-0.1189837828278541,-0.1333579123020172,-0.1051584854722023,0.1873226802309696,0.0756440021174034,2.1370755785185755,-14.21936321258545,-23.504301071166992,-29.76654052734375,-0.05656980784774259,1014.5546080592472
3.194544189453125,-0.6060117638956755,0.1064597024209797,-1.80474815928638,-0.0504377633333206,0.0369299314916133,-0.0996825546026229,0.1863868950397947,0.0753475540141499,2.136077145632086,-14.004342079162598,-23.422203063964844,-29.9932861328125,-0.05662288682100011,1014.5546180217327
3.204615234375,-0.5678609700039029,0.1956577427871525,-1.7062872005343437,0.0192544981837272,0.1966024190187454,-0.0768534019589424,0.1861709892279384,0.0766999667419274,2.1351697046175406,-14.110444068908691,-23.35300064086914,-30.016021728515625,-0.05667596193434296,1014.5546279834938
3.214687255859375,-0.533406619477272,0.2614537186473608,-1.3783634061574934,0.0706610009074211,0.3393676578998565,-0.0482241585850715,0.186601135150026,0.0795526562465971,2.134490065546173,-13.997162818908691,-23.295808792114254,-30.05450439453125,-0.0567290421942387,1014.5546379462209
3.22475830078125,-0.5354449203718453,0.2941676552474498,-0.9076929365783928,0.0768507197499275,0.4227802455425262,-0.0185967590659856,0.1873406684500573,0.0834846573886173,2.1340923320635024,-13.751055717468262,-23.283166885375977,-29.622711181640625,-0.05678211730758155,1014.5546479079818
3.23483056640625,-0.5611288852699101,0.3061756345577537,-0.4369973325580358,0.0604540184140205,0.4667032361030578,0.0076539255678653,0.1880434134689365,0.0879957013902935,2.1339805488155377,-13.46571445465088,-23.293136596679688,-29.374481201171875,-0.05683519885411552,1014.5546578709503
3.2449013671875,-0.5916851323794573,0.2527618781477213,0.0145201082617044,0.0285496152937412,0.4907313287258148,0.0258443802595138,0.188510119065013,0.0927951836839125,2.134113911014949,-13.760275840759276,-23.30307006835937,-29.703369140625,-0.05688827268082014,1014.5546678324698
3.254973388671875,-0.6383434962451457,0.1637621368326246,0.377507032713294,0.0032442426308989,0.4847581088542938,0.0307146161794662,0.1887001210628357,0.0976800283855156,2.134389664268922,-13.834187507629396,-23.356504440307617,-29.633514404296875,-0.05694135294071588,1014.5546777951969
3.26504443359375,-0.6309115926787257,0.0776601627856493,0.6618389381229877,-0.0094840684905648,0.4479849338531494,0.0277832746505737,0.1886938726120901,0.1023376750479919,2.1347016726400088,-13.383336067199709,-23.167375564575195,-29.775604248046875,-0.056994428054058736,1014.5546877569578
3.2751162109375,-0.580206583770737,-0.0031413667656481,0.900756999835372,-0.0186722576618194,0.3864631652832031,0.0304904393851757,0.1885698790710985,0.1064922637336906,2.135013311278162,-13.321846961975098,-23.09982681274414,-30.08905029296875,-0.05704750702731625,1014.5546977194434
3.285187255859375,-0.5546849698275327,-0.095510584513843,1.085819552719593,-0.0237359926104545,0.3013799488544464,0.0321916677057743,0.1883790332610383,0.1098859352223265,2.135354040573944,-13.404479026794434,-23.298452377319336,-29.996795654296875,-0.057100582140659106,1014.5547076812044
3.29525927734375,-0.557901959112659,-0.1697903110809624,1.2313842079520223,-0.0318512916564941,0.2217412292957306,0.0290949884802103,0.1881243375313741,0.1124515773254046,2.135699840457363,-13.078314781188965,-23.30169105529785,-29.8487548828125,-0.05715366240055485,1014.5547176439314
3.305330322265625,-0.53262686727643,-0.2531234049364924,1.3106360238432884,-0.0439814589917659,0.1377350091934204,0.019617598503828,0.1877686569401906,0.1141961502520091,2.1359998873151613,-13.06865406036377,-23.307262420654297,-29.924285888671875,-0.057206737513897696,1014.5547276056925
3.31540234375,-0.5173239380739629,-0.3019346359871327,1.3453811740100383,-0.0549800097942352,0.0525939390063285,0.0114274518564343,0.1872841461170579,0.1151037806099774,2.1362193137967065,-13.127142906188965,-23.240447998046875,-30.05718994140625,-0.05725981777379344,1014.5547375684195
3.325473388671875,-0.5429140141434967,-0.3494805232770741,1.3226742521613837,-0.0774682760238647,-0.0341915600001812,-0.0092133767902851,0.1866359336780615,0.1151836119023293,2.136323288198516,-13.453104972839355,-22.66980361938477,-29.7989501953125,-0.057312892887136285,1014.5547475301805
3.335545166015625,-0.5742953139003366,-0.3828377262167632,1.2509271128118038,-0.1193387731909751,-0.1145859286189079,-0.0404333397746086,0.1856279359832374,0.1144539258791801,2.1361843414709787,-13.522332191467283,-22.82489585876465,-30.16879272460937,-0.0573659718603938,1014.554757492666
3.3456162109375,-0.5888780390694737,-0.4090447651408612,1.124898932698369,-0.177151471376419,-0.1795460283756256,-0.0805495977401733,0.1840889806874056,0.113037576749575,2.135734049272917,-13.26720142364502,-22.80935859680176,-29.99032592773437,-0.057419046973736655,1014.5547674544271
3.355688232421875,-0.5892938533287495,-0.4164858749270438,0.9338660732328892,-0.2358719259500503,-0.211795762181282,-0.127055212855339,0.181889689330726,0.1111924705072157,2.1349197478384334,-13.567675590515137,-22.79024314880371,-29.754547119140625,-0.057472127233632396,1014.554777417154
3.36575927734375,-0.5501809364065527,-0.3646503276191651,0.6714519851207733,-0.2822886705398559,-0.2187623232603073,-0.1694897562265396,0.1791195638580924,0.1092266660544936,2.133705969041175,-13.679272651672363,-22.81304168701172,-30.029571533203125,-0.057525202346975245,1014.5547873789151
3.37583154296875,-0.4772760053239762,-0.2642855810724198,0.3986252240657806,-0.3135144114494324,-0.2087781131267547,-0.2071674913167953,0.1759217148977753,0.1073677366561305,2.1321037596373675,-13.441027641296388,-22.69213104248047,-30.02911376953125,-0.05757828389350921,1014.5547973418835
3.385902099609375,-0.3563268820405006,-0.1498169058494269,0.1082119529157877,-0.3317624032497406,-0.2053450345993042,-0.229096233844757,0.1724508091798764,0.1056152768421178,2.1302351717210444,-13.657374382019045,-22.429170608520508,-29.914306640625,-0.057631356433575615,1014.5548073031616
3.395974365234375,-0.2221585770260542,-0.0386554554782807,-0.2088666223198175,-0.3291110098361969,-0.2081891149282455,-0.2378382980823516,0.1689030289861026,0.1038754168923179,2.1282090801423466,-13.995308876037598,-22.446481704711918,-29.819366455078125,-0.057684437980109575,1014.55481726613
3.40604541015625,-0.1067712525881826,0.0862220932953059,-0.4965051680594682,-0.3152255713939667,-0.2255105823278427,-0.2362236231565475,0.1654295110861464,0.10205517475158,2.1261446557523205,-13.83940601348877,-22.495466232299805,-30.02752685546875,-0.057737513093452424,1014.5548272278911
3.4161171875,0.0084584701351821,0.2138449952542781,-0.7718015340983867,-0.2985511124134063,-0.2453517466783523,-0.2298769950866699,0.1621179892295448,0.1000556439443304,2.1241011294669883,-13.851819038391112,-22.360557556152344,-29.9447021484375,-0.057790592066709945,1014.5548371903766
3.426188232421875,0.1665923187572509,0.3574972409941256,-1.030941715106368,-0.271493911743164,-0.2869641482830047,-0.2295933812856674,0.1590264560102556,0.0977104242612061,2.122061026193049,-13.968964576721191,-22.23957061767578,-30.196685791015625,-0.057843667180052794,1014.5548471521377
3.43626025390625,0.3071703446835279,0.4774168750993907,-1.334012807777524,-0.2342706620693206,-0.3232004940509796,-0.2142150551080703,0.1562515960145417,0.0949443217529318,2.1200506104291663,-14.179614067077637,-22.28065299987793,-30.029052734375,-0.057896747439948534,1014.5548571148646
3.446331298828125,0.4262186027817428,0.589212239459902,-1.5874357801824808,-0.1749231815338134,-0.3442522585391998,-0.1782077997922897,0.1539983875910069,0.0918465263414788,2.1182297391447245,-14.289551734924316,-22.25752258300781,-30.17230224609375,-0.05794982255329138,1014.5548670766257
3.4564033203125,0.5160650971192866,0.7249442135944962,-1.7996756783276795,-0.0997944697737693,-0.3584839105606079,-0.1310831606388092,0.1524709560258846,0.0885164937185276,2.1167796221509345,-14.297776222229004,-21.94036865234375,-30.04843139648437,-0.058002902813187124,1014.5548770393526
3.466474365234375,0.5662766234219074,0.8344085046589375,-1.963971922037005,-0.0191241167485713,-0.3480941355228424,-0.0767935588955879,0.1517844477716566,0.0850897562967737,2.115791697676836,-14.564534187316896,-21.71213722229004,-30.023681640625,-0.05805597792652997,1014.5548870011137
3.47654638671875,0.575055849944055,0.914295841974765,-2.02222654260695,0.0595594830811023,-0.2951419353485107,-0.0223011616617441,0.1519368503370484,0.0819058027828076,2.115274411600175,-14.74419116973877,-22.147045135498047,-30.02825927734375,-0.05810905818642571,1014.5548969638406
3.486617431640625,0.5489483989369124,0.9716615508809684,-1.9739988105326889,0.1371610611677169,-0.1998955905437469,0.028032848611474,0.1529305012995194,0.0793853711872264,2.1152284255621416,-14.643568992614746,-22.1455078125,-29.84814453125,-0.058316759258115296,1014.5549212129374
3.496689208984375,0.4937343151066451,1.0064299357928337,-1.8403256686240437,0.2166943103075027,-0.0761284679174423,0.0681554228067398,0.1547425172334882,0.0779203462871121,2.11558422773626,-14.668625831604004,-21.96050262451172,-29.819976806640625,-0.05863531764229491,1014.554955705544
3.50676025390625,0.4487591550875455,1.011452586260438,-1.619919999679923,0.2794146835803985,0.0629426017403602,0.1046148911118507,0.1572999077748955,0.0777434954892785,2.1162744038207184,-15.055481910705566,-21.926776885986328,-29.47918701171875,-0.0589538528608384,1014.5549901956423
3.516832275390625,0.4321467507217079,0.9959855525374413,-1.31471715567708,0.3305495679378509,0.1894513368606567,0.1307841390371322,0.1604622495591854,0.07886859542026,2.117233547045199,-14.780741691589355,-21.891647338867188,-28.90032958984375,-0.05927241896689671,1014.5550246890849
3.5269033203125,0.449290631615743,0.9523609303444625,-0.9518483046472072,0.3725776970386505,0.2805333137512207,0.1422027051448822,0.164118470937119,0.0810793715509668,2.11834306083982,-14.66089153289795,-21.810192108154297,-28.979888916015625,-0.0595909541854402,1014.5550591791832
3.5369755859375,0.5168466759510338,0.9085277799673378,-0.5886813474535941,0.4063443541526794,0.3239139318466186,0.1552753150463104,0.1681577279411652,0.0839691953276627,2.119538461227787,-14.727940559387209,-21.71514892578125,-29.553619384765625,-0.05990952801337722,1014.555093673462
3.54704638671875,0.5658690655343234,0.8788673857189715,-0.2124210999310016,0.4294363558292389,0.3012602925300598,0.1651971936225891,0.1725050623144458,0.0869452401047865,2.120800605337362,-14.671931266784668,-21.96443748474121,-29.377166748046875,-0.060228055510042,1014.5551281627241
3.5571181640625,0.5897986610457301,0.8463523326918482,0.1074684410721063,0.4297559559345245,0.2504661083221435,0.1741767972707748,0.1769785190236361,0.0894896786105972,2.1221506159386583,-14.634966850280762,-22.02234268188477,-29.5810546875,-0.06054661389422161,1014.5551626553307
3.567189208984375,0.5971621024858206,0.7896686147004366,0.4087438824981451,0.4030782878398895,0.1692482233047485,0.1698446422815323,0.181338993570756,0.0913642386706194,2.123531239703397,-14.432913780212402,-22.04969596862793,-29.273345947265625,-0.0608651491127651,1014.5551971454289
3.57726123046875,0.579653772193566,0.7434330793567001,0.6027513738602399,0.3614597916603088,0.0743879526853561,0.1536984592676162,0.1853431387328577,0.0923522056759219,2.1248342593401275,-14.379490852355955,-22.077226638793945,-29.110595703125,-0.06118371521882342,1014.5552316388716
3.587332275390625,0.5310396711502224,0.6974214158967137,0.7364934893518685,0.3072958886623382,-0.0008277082815766,0.123363196849823,0.1888297768037176,0.0925050715317857,2.125954851527402,-14.302218437194824,-22.207355499267575,-28.82089233398437,-0.06150225043736691,1014.5552661289698
3.597404296875,0.4675318062271922,0.6646870210304856,0.8012719587326049,0.2499212175607681,-0.0546013824641704,0.0782974064350128,0.1917238253489982,0.0920636919369979,2.1267404335836826,-14.380948066711426,-22.207996368408203,-28.9718017578125,-0.06182081654342523,1014.5553006224126
3.607475341796875,0.4079343196809291,0.6921081119194626,0.7921960873514413,0.1919798851013183,-0.087587833404541,0.0299469251185655,0.1939975710247111,0.091250163706734,2.1270855027942,-14.562891960144045,-22.40191650390625,-29.083404541015625,-0.062139351761968706,1014.5553351125108
3.61754736328125,0.370043272703886,0.7435957225725054,0.7500777780681848,0.1332860589027404,-0.0901219993829727,-0.025475101545453,0.1956319387077317,0.090361526128256,2.126945454225805,-14.561688423156738,-22.05547523498535,-29.165069580078125,-0.06245791786802703,1014.5553696059535
3.627618408203125,0.3714253016468137,0.764674750958383,0.6406342375308275,0.0734501630067825,-0.074678860604763,-0.0685847550630569,0.1966255137519769,0.0896258889138034,2.1263627729408485,-14.750182151794434,-22.048131942749023,-28.6195068359375,-0.06277645308657051,1014.5554040960517
3.637690185546875,0.4231941403940319,0.803601278463006,0.4908551794737577,0.0300275050103664,-0.049391470849514,-0.0879646763205528,0.1970633154326263,0.0891656548189932,2.1254976656518947,-14.620535850524902,-21.973499298095703,-28.846923828125,-0.06309501147075011,1014.5554385886583
3.64776123046875,0.4806970658138394,0.8703262057363986,0.3379752327919006,-0.0036969017237424,-0.0222898088395595,-0.1011800765991211,0.1971086127146289,0.0890058623621859,2.1245105664819803,-14.663512229919434,-22.225196838378903,-28.844879150390625,-0.06341354668929361,1014.5554730787566
3.657833251953125,0.5489993254065513,0.9485060084819792,0.184443544203043,-0.0267495177686214,-0.014547599479556,-0.0980092287063598,0.1968668330744243,0.0890257524223481,2.1235068833513053,-14.600565910339355,-22.270776748657227,-28.61532592773437,-0.06373211279535193,1014.5555075721992
3.667904296875,0.6370468805633485,1.0060359680391848,0.035412674164772,-0.0365667305886745,-0.0201852452009916,-0.0847621262073516,0.1964694920918226,0.08902796856201,2.12258257728712,-14.730769157409668,-22.432861328125,-28.58676147460937,-0.06405064801389543,1014.5555420622975
3.6779765625,0.6827779735162853,1.0462124956049024,-0.1056634374767541,-0.0406892374157905,-0.0222806725651025,-0.0674832761287689,0.1960104063333566,0.0889633974485767,2.1218355262472253,-14.793566703796388,-22.270299911499023,-28.8746337890625,-0.06436922184183244,1014.5555765565763
3.688047119140625,0.6542945871580391,1.1037377789869904,-0.1846609863460064,-0.0514478757977485,-0.0204271115362644,-0.0501777902245521,0.1955037827161299,0.0888505794055167,2.121279205393681,-14.794474601745604,-22.250886917114254,-28.87118530273437,-0.06468774161661851,1014.5556110450023
3.698119384765625,0.6006393501423299,1.1885320314362644,-0.2464946344465017,-0.066562183201313,-0.013826098293066,-0.0371836014091968,0.1948608345855673,0.0887388230884943,2.1208816017303187,-14.726366996765137,-22.19416618347168,-28.85052490234375,-0.06500631544455553,1014.555645539281
3.7081904296875,0.537398100266233,1.2301375688917937,-0.2781447412073612,-0.0835579484701156,0.0240517742931842,-0.0162879079580307,0.1940683248508815,0.0888284229108174,2.1206581149817105,-14.69505214691162,-21.8884220123291,-28.43572998046875,-0.06532485066309902,1014.5556800293793
3.718259033203125,0.5098660232834518,1.1853364502653478,-0.3082096246033907,-0.0848048776388168,0.0883611738681793,0.0133660361170768,0.1931758539970393,0.0893746744094281,2.1207027930730447,-14.558411598205566,-22.251361846923828,-28.470703125,-0.06564330866285543,1014.5557145111165
3.728330078125,0.5178825218047947,1.1163828871570527,-0.3102969522714615,-0.0681436136364936,0.1870528608560562,0.0556013733148574,0.1924015485629085,0.0906945401190492,2.121123899586334,-14.704886436462402,-22.111644744873047,-28.4447021484375,-0.06596184388139893,1014.5557490012148
3.738402099609375,0.5440251171905547,1.0391163998641073,-0.2151642611593008,-0.0398016348481178,0.2927338778972626,0.1047162860631942,0.1918985730178262,0.0929848941478592,2.121984811151535,-14.53372287750244,-22.093482971191406,-28.398651123046875,-0.06628040998745725,1014.5557834946575
3.748472900390625,0.567049361360073,0.9650421327412128,-0.0428910472214221,-0.0093137677758932,0.3682177066802978,0.1621737033128738,0.1917272061259197,0.0960909305020396,2.123357483488348,-14.426051139831545,-21.87398910522461,-29.01327514648437,-0.06659893748412203,1014.5558179839196
3.7585439453125,0.5797648313526064,0.8293919916711747,0.2018815857380628,0.0161480996757745,0.3918885886669159,0.2226183265447616,0.1919055792215749,0.099593281778639,2.12530901890821,-14.463587760925291,-21.778553009033203,-29.12249755859375,-0.06691747270266551,1014.5558524740179
3.768615966796875,0.5471764938935637,0.665953533834964,0.4100771769285202,0.0314919017255306,0.3728829324245453,0.2759915292263031,0.1923372831089876,0.103020259575802,2.127826363345207,-14.170981407165527,-21.914159774780277,-28.875457763671875,-0.06723603880872384,1014.5558869674605
3.77868701171875,0.4573196973577141,0.4966879772804677,0.6292179405033588,0.03347934409976,0.3332517147064209,0.3161390423774719,0.1929098371815759,0.106056630839873,2.1308154794768024,-14.516953468322754,-21.862184524536133,-29.006805419921875,-0.06755457402726732,1014.5559214575588
3.788759033203125,0.3641534840129315,0.3273001095205545,0.8167331472367048,0.0290917865931987,0.2849931120872497,0.3338115215301513,0.1935164139502332,0.1085654503825901,2.134092815976459,-14.378270149230955,-21.65164566040039,-28.9925537109375,-0.06787314013332563,1014.5559559510015
3.798829833984375,0.2534304981242865,0.1601642584711313,0.952380219566822,0.0080070057883858,0.2079642564058303,0.3347359299659729,0.1940305541315648,0.110421549974888,2.1374946485335915,-14.285529136657717,-21.502683639526367,-28.908172607421875,-0.0681916676299904,1014.5559904402636
3.808902099609375,0.1692551812909543,0.0275726281888782,1.000008816704154,-0.0160962007939815,0.1111780628561973,0.3252350986003876,0.1943246974088339,0.1114063856578942,2.1408653841193623,-14.14637279510498,-21.304079055786133,-28.981201171875,-0.06851024145792745,1014.5560249345424
3.81897314453125,0.1370715521752834,-0.1137681257382035,0.9671814828574656,-0.0393221527338027,0.0103762708604335,0.3089745044708252,0.194362734821864,0.1113927741862333,2.144128517377736,-14.410700798034668,-21.397180557250977,-28.91986083984375,-0.06882877667647092,1014.5560594246407
3.829045166015625,0.0827532481409609,-0.2439467035293579,0.8953536794871091,-0.0579224675893783,-0.0872725248336792,0.2858702540397644,0.1942078518762989,0.110403566320762,2.1472349474141392,-14.544320106506348,-21.253246307373047,-28.82650756835937,-0.06914734278252924,1014.5560939180833
3.8391162109375,0.0203650348976254,-0.2942934735842049,0.7560480846494436,-0.0724611207842826,-0.1820393502712249,0.2578185200691223,0.1938430765297926,0.1084859917157135,2.150096561644226,-14.495501518249512,-21.264482498168945,-29.004364013671875,-0.06946587800107273,1014.5561284081816
3.849188232421875,0.0004454787451773,-0.305171718212217,0.5593851103425026,-0.0778428390622139,-0.2515976727008819,0.2308745235204696,0.1933502073217331,0.1057875524901277,2.152670846338673,-14.628569602966309,-20.998699188232425,-28.83795166015625,-0.06978444410713104,1014.5561629016242
3.85925927734375,-0.0441246806696057,-0.3038686727896332,0.3475286585569381,-0.0727748051285743,-0.3034886121749878,0.2070041298866272,0.1928325702515344,0.1025387621610453,2.154990493054382,-14.6525239944458,-20.94310760498047,-28.52484130859375,-0.07010297932567452,1014.5561973917225
3.8693310546875,-0.0951481078770011,-0.2847749730020761,0.1804863310098648,-0.0713881030678749,-0.3143271505832672,0.1704085767269134,0.1922822560722393,0.0990119001343532,2.1569867378912444,-14.671229362487791,-20.967609405517575,-28.794647216796875,-0.07042153770985415,1014.5562318843291
3.87940185546875,-0.1386388745572417,-0.2738176717884838,0.0335778599530458,-0.0635543763637542,-0.2765972912311554,0.1349510699510574,0.1917572530230309,0.0957008151669571,2.1586237366786274,-14.864689826965332,-20.838361740112305,-29.07122802734375,-0.07074006520651893,1014.5562663735913
3.889473876953125,-0.1572548738304525,-0.2614941967882215,-0.0703472094237804,-0.051634594798088,-0.213927760720253,0.1020343974232673,0.1912809476372572,0.0929662694568913,2.159886793039949,-15.078721046447754,-20.68869400024414,-29.000213623046875,-0.07105863131257724,1014.5563008670339
3.899544921875,-0.1392412243645638,-0.2519759884670376,-0.1337462071448564,-0.0441929176449775,-0.1317520588636398,0.0691369250416755,0.1908863078995969,0.091033530378735,2.160810696839009,-15.171664237976074,-20.76097679138184,-28.985809326171875,-0.07137716653112072,1014.5563353571322
3.909616943359375,-0.10011340213418,-0.2276087321907281,-0.1264969666689634,-0.0430299155414104,-0.0476084202527999,0.0405241884291172,0.1905108793101952,0.0900363164157861,2.161385991413294,-15.277203559875488,-20.63127899169922,-28.56549072265625,-0.07169573263717904,1014.5563698505748
3.91968798828125,-0.0475331008736044,-0.2076608997918665,-0.0968266355484724,-0.0490681491792202,0.0192296262830495,0.0233999192714691,0.1900960941554752,0.0898358888529283,2.1617453648191693,-15.46660327911377,-20.59830665588379,-28.776336669921875,-0.07201426785572253,1014.5564043406731
3.929760009765625,0.0230455792184919,-0.2249571947686374,-0.0532534512817859,-0.0572706870734691,0.0649204105138778,0.0215365067124366,0.1895742226653869,0.0902221064586903,2.162018979013373,-15.464400291442873,-20.73429107666016,-28.914337158203125,-0.07233283396178085,1014.5564388341157
3.939830810546875,0.0659667293172329,-0.2412218086101114,0.0009527706801891,-0.0675005242228508,0.0865322947502136,0.0231387391686439,0.1889730601219535,0.0909318440957939,2.162309710151543,-15.366467475891112,-20.64703369140625,-28.67095947265625,-0.07265136145844563,1014.5564733233779
3.949903076171875,0.077203285863623,-0.2373066809929907,0.0276695126920938,-0.0686046779155731,0.0681700557470321,0.0174030885100364,0.1883231690291012,0.0916834263938846,2.162592012749491,-15.103617668151855,-20.59087181091309,-28.79034423828125,-0.07296993528638265,1014.5565078176567
3.95997412109375,0.0742724931087344,-0.2252028400927782,0.0278267490804195,-0.0672379434108734,0.0472834222018718,0.001179376617074,0.1876535115190134,0.0922111509208826,2.162759261569194,-15.136242866516112,-20.52178001403809,-28.584686279296875,-0.07328847050492614,1014.556542307755
3.970045166015625,0.0490988158203661,-0.217712338206917,0.0175835874855518,-0.0604538023471832,0.0298330597579479,-0.0212673433125019,0.1870176798196803,0.092577919402793,2.162725202718593,-15.189160346984863,-20.116531372070312,-28.86932373046875,-0.07360700572346962,1014.5565767978532
3.9801171875,0.0323102511700242,-0.2185384137675166,0.0014864391654729,-0.0540188774466514,0.0153988562524318,-0.0468921288847923,0.1864350290372811,0.0928514470947923,2.162431141549793,-14.91122341156006,-20.211959838867188,-28.868133544921875,-0.07392557182952794,1014.5566112912959
3.990188232421875,0.0530548599697649,-0.2021266465403139,-0.0360498030245304,-0.0470240861177444,0.0109119620174169,-0.0729932412505149,0.1859020894606595,0.093066142656023,2.161870749026582,-15.05337619781494,-20.12601852416992,-28.72412109375,-0.07424410704807143,1014.5566457813941
4.00026025390625,0.0964126479201018,-0.1727137973122298,-0.0553758502632379,-0.0348412282764911,0.0132994065061211,-0.0860180407762527,0.1854605401567348,0.093311755235664,2.161105425521605,-14.919222831726074,-20.225629806518555,-29.16949462890625,-0.07456267315412973,1014.5566802748368
4.0103310546875,0.1481218654345721,-0.1544235228620469,-0.0683528207361698,-0.0236769914627075,0.0129063250496983,-0.0922146812081337,0.1851225775693624,0.0936088857010227,2.160227689795837,-14.659512519836426,-19.99193000793457,-28.90301513671875,-0.07488120065079451,1014.556714764099
4.02040283203125,0.1661377799227833,-0.1166523028723895,-0.0921370164275169,-0.0028753578662872,0.0171551294624805,-0.0854759216308593,0.1849582993691827,0.0939272333419419,2.159332528030082,-14.640700340270996,-20.332408905029297,-29.06414794921875,-0.07519975903497414,1014.5567492567055
4.030473876953125,0.1848402884356677,-0.102024058061093,-0.102823245614767,0.0107520380988717,0.02135706320405,-0.0776198580861091,0.184970077221792,0.0943019022146485,2.1584916245944106,-14.529723167419434,-20.174304962158203,-29.103668212890625,-0.07551829425351762,1014.5567837468038
4.0405458984375,0.1999450647175311,-0.0906511617839336,-0.0910538973659276,0.0245375726372003,0.0221113227307796,-0.0627664476633071,0.18514088909362,0.0946800720767167,2.157772553913506,-14.676133155822754,-20.14772224426269,-29.087921142578125,-0.07583686035957594,1014.5568182402465
4.050616943359375,0.2115874255858361,-0.1121812949381768,-0.0730249042004346,0.0408097505569458,0.0134856104850769,-0.0443794541060924,0.1854531968742765,0.0949693953886256,2.157208863357469,-14.720904350280762,-20.09124183654785,-29.21063232421875,-0.07615539557811943,1014.5568527303448
4.06068896484375,0.2311444320362061,-0.159531659656018,-0.0241635503977537,0.0504026040434837,-3.65595333278e-05,-0.0245008002966642,0.1859122482848869,0.0951227374969125,2.156815239064012,-14.68474292755127,-19.955942153930664,-28.9371337890625,-0.07647396168417774,1014.5568872237874
4.070760009765625,0.2302777322042733,-0.2183580887645483,0.0331043972223997,0.0567808747291564,-0.032247494906187,-0.0092464815825223,0.1864847964808211,0.095020592602426,2.156587268511521,-14.704251289367676,-20.18899154663086,-29.24102783203125,-0.07679249690272122,1014.5569217138857
4.08083203125,0.1899297205291688,-0.2674680105008185,0.0492354478120803,0.0608821101486682,-0.0705945566296577,-0.0021327044814825,0.1870874431034253,0.0945110122511663,2.156469412142896,-14.681323051452637,-20.38944435119629,-29.26654052734375,-0.07711106300877954,1014.5569562073283
4.090903076171875,0.1335475427675992,-0.331689284390211,0.0748041888326406,0.0632190331816673,-0.0934202373027801,-0.0024272501468658,0.1877369316330875,0.0937237861917461,2.156387756346109,-14.778817176818848,-20.202369689941406,-29.00131225585937,-0.07742959822732304,1014.5569906974265
4.10097509765625,0.0418397115375846,-0.3856602362915873,0.0969143138319253,0.0574821233749389,-0.1215418726205825,-0.0092511922121047,0.1883477216241935,0.0926873552236675,2.1562806434737327,-14.705754280090332,-20.22187042236328,-29.133544921875,-0.07774816433338136,1014.5570251908692
4.1110458984375,-0.0482765396520495,-0.4309720809191465,0.0677431644052267,0.0579931885004043,-0.1307825148105621,-0.0257753059267997,0.1889254295216622,0.0914842816120305,2.1560548150946297,-14.823538780212402,-20.29501342773437,-29.01434326171875,-0.07806669183004614,1014.5570596801314
4.121116943359375,-0.1390275085486471,-0.4682524486519396,0.0693599519520997,0.0586410611867904,-0.1200571805238723,-0.0560662448406219,0.1894825977844806,0.0903469404353671,2.155576707061124,-14.62501049041748,-20.32832908630371,-29.02499389648437,-0.07838522704858963,1014.5570941702297
4.131189208984375,-0.1773782819919288,-0.5142173503607511,0.0689993019461631,0.0577457062900066,-0.0925810784101486,-0.0882944837212562,0.1900081628244551,0.0894713482959344,2.154780369586258,-14.958436012268066,-20.04473876953125,-29.027099609375,-0.07870380087652663,1014.5571286645084
4.141260009765625,-0.1655501162279397,-0.5710141733378171,0.0721837772011756,0.0661346912384033,-0.0661227777600288,-0.1140887662768364,0.1905588378020821,0.0889340760891628,2.153688657057163,-14.926161766052246,-20.43294334411621,-28.762237548828125,-0.07902232837319141,1014.5571631537706
4.151332275390625,-0.1449866361487656,-0.5713299612887204,0.0631307021737098,0.0802094936370849,-0.0602973811328411,-0.1305910348892212,0.191225372637202,0.0886268992842892,2.152347201689252,-15.129805564880373,-20.11039352416992,-29.02597045898437,-0.07934090220112844,1014.5571976480493
4.161403076171875,-0.0839350052714347,-0.5666219297282398,0.1095364795178174,0.0946886911988258,-0.0739953815937042,-0.1403408944606781,0.1920097438870469,0.0882971579031146,2.1508670895388144,-15.069674491882324,-20.19925308227539,-28.6275634765625,-0.07965942969779323,1014.5572321373115
4.17147509765625,-0.0111743780303746,-0.5534926913030446,0.1663900011181831,0.1107139959931373,-0.0954623222351074,-0.144997164607048,0.1929695620602057,0.0877792265038712,2.149305669126083,-15.10389804840088,-19.937484741210938,-28.6463623046875,-0.07997799580385155,1014.5572666307542
4.181546142578125,0.0363949632003903,-0.556296935068816,0.2221077966868877,0.1231299266219139,-0.1181027814745903,-0.1413400769233703,0.1940775694271938,0.0870194297247817,2.147726506600014,-14.701817512512209,-20.315675735473636,-28.5499267578125,-0.08029653102239503,1014.5573011208525
4.191617919921875,0.043228900873661,-0.5804018871471286,0.2774509137243032,0.1294496059417724,-0.1266845464706421,-0.1425350457429886,0.1952892953462974,0.0860930404261928,2.1461655172006204,-14.73557186126709,-20.668621063232425,-28.798797607421875,-0.08061508940657464,1014.557335613459
