Timestamp,Acc x (m/s^2),Acc y (m/s^2),Acc z (m/s^2),Gyro x (rad/s),Gyro y (rad/s),Gyro z (rad/s),Beccheggio/Pitch (rad/s),Rollio/Roll (rad/s),Imbardata/Yaw (rad/s),Mag x (microTesla),Mag y (microTesla),Mag z (microTesla),Altitudine (m),Pressione (milliBar)
0.028433837890625,-0.8308461360022426,0.0463291319113224,-1.0607324577361346,-0.2405133694410324,-0.5799416899681091,-0.0177804511040449,0.0663115418414561,0.0709763771499245,2.061993793460592,-8.86641788482666,-20.554595947265625,-34.162689208984375,-0.017648511211659335,1014.5350430873499
0.0385029296875,-0.883352568309009,0.0275747470807284,-0.8835188647866249,-0.1381534934043884,-0.5369110703468323,0.0115383155643939,0.0644103179223922,0.0653258375309929,2.062086630412124,-8.90914249420166,-20.72314453125,-34.544403076171875,-0.017965590847279844,1014.5350797086745
0.048572998046875,-0.919285759216547,-0.0794637781415134,-0.6419394749104976,-0.0494443848729133,-0.4493865668773651,0.0384929701685905,0.0634880455821282,0.0603144587425284,2.0623906630888795,-9.05441665649414,-21.13347816467285,-34.592864990234375,-0.01828270123523511,1014.5351163335508
0.058641845703125,-0.9430041961953044,-0.1639201769385486,-0.344181101694703,0.0117269055917859,-0.3445432782173157,0.0640144869685173,0.0633442384846924,0.0563090027534533,2.062919764860152,-9.41268253326416,-21.67970848083496,-34.698699951171875,-0.018599773182771933,1014.5351529539876
0.068707763671875,-0.9222663824625312,-0.2432564562428742,-0.1037292545437812,0.037283930927515,-0.2676053345203399,0.0886628478765487,0.0636471285078753,0.0531926194287891,2.0636846391558548,-9.750030517578123,-21.83997344970703,-35.074981689453125,-0.018916752873304476,1014.535189563769
0.078777587890625,-0.8926762769713997,-0.3600581775233149,0.1080886187970638,0.0379623919725418,-0.2083001583814621,0.1061048358678817,0.064081914714443,0.0507329569403309,2.064656805908109,-9.982656478881836,-22.266902923583984,-34.8349609375,-0.01923385557317605,1014.5352261877574
0.0888466796875,-0.8309044420607388,-0.4313021165911108,0.2944721911519766,0.0235786586999893,-0.1507963836193084,0.1119523420929908,0.0644624976575999,0.0488387393484027,2.065751436482551,-9.874852180480955,-22.192174911499023,-34.9151611328125,-0.019550935208796562,1014.535262809082
0.09891650390625,-0.762279599450156,-0.4314663672421127,0.4765840775370598,0.0110469115898013,-0.0863752588629722,0.1157470867037773,0.0646903614362251,0.0475748676230686,2.0668938671174435,-10.036236763000488,-21.798419952392575,-34.828521728515625,-0.01986803790866814,1014.5352994330705
0.108985595703125,-0.6367150913257151,-0.4525236221875995,0.5920663137167692,-0.0052231382578611,-0.0333075113594532,0.1222332194447517,0.0647710620417146,0.046899666196218,2.0681031966446435,-9.927335739135742,-21.806713104248047,-34.903594970703125,-0.020185117544288648,1014.5353360543951
0.119055908203125,-0.5484384035881609,-0.4730329609267413,0.6275397781580686,-0.0265002865344285,0.0043312334455549,0.1202608272433281,0.0646631219307431,0.0467013169151981,2.069336994413946,-10.1234712600708,-21.743141174316406,-34.546783447265625,-0.02050223562032761,1014.5353726801594
0.12912451171875,-0.5121873423704877,-0.4505524682451039,0.5597691412240267,-0.0439184233546257,0.0247518196702003,0.1141043901443481,0.0643608697644765,0.0467576647135328,2.070535826793391,-10.124025344848633,-22.014911651611328,-34.85858154296875,-0.02081929987978074,1014.5354092997081
0.139193603515625,-0.4146581480432301,-0.375256404242292,0.4313894295483827,-0.0571437068283557,0.0510089285671711,0.1132867932319641,0.0639050617422908,0.047035350409137,2.0716994165541927,-10.498470306396484,-22.49050712585449,-34.268646240234375,-0.021136379515401246,1014.5354459210328
0.149263671875,-0.2952383166862651,-0.2479012863740324,0.2331266188293695,-0.0490639470517635,0.0852523893117904,0.1101871356368064,0.0634171700564191,0.0476758447178347,2.072844275192694,-10.208954811096191,-22.089717864990234,-35.097869873046875,-0.021453489903356517,1014.5354825459091
0.159332763671875,-0.1645893083717673,-0.1523614027004688,-0.0024222587108612,-0.0223938096314668,0.0824546590447425,0.1058323085308075,0.0630880646956095,0.0484692344766116,2.0739326228168027,-10.312028884887695,-21.803361892700195,-34.9141845703125,-0.021770569538977026,1014.5355191672337
0.169402587890625,-0.0737719597080722,-0.095682141688466,-0.1687000316262245,0.0148893781006336,0.0624628402292728,0.0954025760293006,0.0630999406338353,0.0491440954569415,2.074966513389673,-10.093212127685549,-21.98333168029785,-34.60345458984375,-0.022087672238848607,1014.5355557912221
0.179471923828125,-0.0626703911855816,-0.0364343453627079,-0.2156932534694671,0.0585770346224308,0.0246812887489795,0.0825093910098075,0.0635271487864307,0.0495405357816002,2.075866336135784,-10.302841186523438,-21.90511131286621,-34.544219970703125,-0.022404759562552806,1014.5355924134346
0.189541748046875,-0.0749107910122722,0.0234026490278542,-0.2374859830826521,0.0992727950215339,-0.003667795099318,0.0757944956421852,0.0643968416664293,0.0495402429402367,2.0766325704660096,-10.22884750366211,-22.14044570922852,-34.52215576171875,-0.022721862262424387,1014.5356290374232
0.199610595703125,-0.0444411262076348,0.0820796597283333,-0.23321897328794,0.1337865591049194,-0.0292671006172895,0.0782084688544273,0.0656526564067605,0.0492744780471562,2.077357754334151,-10.256080627441406,-21.96606063842773,-34.37139892578125,-0.0230389342099612,1014.5356656578598
0.2096796875,-0.0445314348395913,0.0982879402726888,-0.1766945375114679,0.1512049585580825,-0.0324343964457511,0.0813376829028129,0.0672020569351304,0.0488141413520952,2.078100964206488,-10.07348918914795,-22.10411834716797,-34.21063232421875,-0.02335601384558171,1014.5357022791844
0.21974951171875,-0.0664164093134924,0.0923143457558006,-0.0633265170067548,0.1606613546609878,-0.0092980936169624,0.090825617313385,0.068870337545006,0.0484866841522193,2.07889811112876,-10.18979263305664,-22.184650421142575,-34.521728515625,-0.02367311654545329,1014.5357389031728
0.229818603515625,-0.0478630269477143,0.1059581095743924,-0.0070241995483636,0.1683946400880813,0.014377674087882,0.113358087837696,0.0706168060794718,0.0484161987415369,2.0798411005689057,-10.30971908569336,-22.15009880065918,-34.681365966796875,-0.0239901961810738,1014.5357755244975
0.239888671875,-0.0363008917087689,0.0791605574112385,-0.0061053311377763,0.177846610546112,0.026626281440258,0.1405852288007736,0.0724359966080019,0.0485256405289144,2.081034866246923,-10.230587005615234,-21.966318130493164,-34.442657470703125,-0.024307306569029068,1014.5358121493738
0.24995751953125,-0.0818610120089724,-0.0253876853652298,0.030308044502139,0.1828168630599975,0.04327929392457,0.159960001707077,0.0743075475277335,0.0487386650265812,2.082486820154282,-10.16751194000244,-22.158836364746094,-34.05853271484375,-0.02462437851656589,1014.5358487698105
0.260027587890625,-0.1094785387855023,-0.1543482656687498,0.1148427692323923,0.1611312180757522,0.0561564229428768,0.1904276758432388,0.0761159527655461,0.0491063249451431,2.084122660312917,-10.371373176574709,-22.42271423339844,-34.11798095703125,-0.02494148890452116,1014.5358853946869
0.2700966796875,-0.1372279848460108,-0.2711098010692745,0.1861561933398246,0.1345672607421875,0.0763479769229888,0.2283026278018951,0.0776877434111685,0.0495787978589992,2.086167869874852,-10.339818000793455,-22.327449798583984,-34.0355224609375,-0.025258568540141666,1014.5359220160115
0.28016552734375,-0.1921985787766054,-0.2473925331342965,0.2482487846374511,0.0790809169411659,0.0951172783970832,0.2579314410686493,0.0788432898391213,0.0502324488342757,2.0885728853462857,-10.39027214050293,-22.41540908813477,-34.40924072265625,-0.025575640487678488,1014.5359586364482
0.290235595703125,-0.1686107824401929,-0.153241400405392,0.2182078666388988,-0.0111706862226128,0.112948477268219,0.2856861054897308,0.0792595409918148,0.0510213867893162,2.091309057103931,-10.412373542785645,-22.257211685180664,-34.633575439453125,-0.02589275087563376,1014.5359952613245
0.3003046875,-0.0957231678185984,-0.0035692367888987,0.1048112045615911,-0.1202394962310791,0.1082229912281036,0.3028978705406189,0.0786661216238461,0.0518758182276043,2.09431812389157,-10.404789924621582,-22.45061492919922,-34.5206298828125,-0.026209830511254265,1014.5360318826491
0.310374755859375,-0.0099544077813625,0.143512106616795,-0.1137508823424577,-0.2277318686246872,0.069451093673706,0.3118783235549927,0.0769965895596449,0.0524946783371029,2.0975258610647907,-10.299650192260742,-22.226438522338867,-34.59344482421875,-0.026526940899209536,1014.5360685075256
0.320443603515625,0.0403184933196753,0.2638617296371608,-0.439801868584752,-0.2974648177623749,0.0119221787899732,0.3071910440921783,0.0744605441712545,0.0526383383613572,2.100814339013711,-10.495272636413574,-21.95829963684082,-34.340606689453125,-0.026844012846746357,1014.5361051279622
0.3305126953125,0.0509937627214938,0.3846503285966813,-0.759503193539381,-0.3132264614105224,-0.0435898192226886,0.2947458326816559,0.0715109160464085,0.0522234649662822,2.104003185039686,-10.455498695373535,-21.765838623046875,-34.403167724609375,-0.027161092482366863,1014.5361417492868
0.340582763671875,0.0057899815782904,0.4596197179283946,-1.0089321278721093,-0.2594291567802429,-0.0453558899462223,0.2837901413440704,0.0687423649158166,0.0515101424835594,2.107064456418444,-10.564637184143066,-21.581281661987305,-34.619537353515625,-0.027478202870322134,1014.5361783741632
0.350651611328125,-0.1151862854404374,0.4922635119017213,-1.0912748955160378,-0.1229078099131584,-0.0146943815052509,0.2640002071857452,0.0669094202597673,0.0510360885873259,2.109929645354448,-10.847039222717283,-21.49489402770996,-34.59173583984375,-0.027795274817858952,1014.5362149945998
0.3607216796875,-0.2179716467302292,0.5171194284778088,-1.0704717614620924,0.0576503351330757,-0.0165846403688192,0.2352467328310012,0.0666816654674507,0.0507274511939602,2.112459878846476,-10.87535572052002,-21.2476749420166,-34.739990234375,-0.02811238520581422,1014.5362516194763
0.370790771484375,-0.2811926940685137,0.4107790415875613,-0.8066314399391412,0.2305009365081787,-0.025925412774086,0.2018411010503769,0.0682622139783205,0.0503729123389479,2.1145922327424205,-10.719489097595217,-21.56205940246582,-34.005889892578125,-0.02842946484143473,1014.5362882408009
0.380860595703125,-0.3568808991940692,0.2212477457914501,-0.345861602127552,0.3548625111579895,-0.0203409921377897,0.1662522405385971,0.0713275139883629,0.0499978823042638,2.116297899695781,-10.877379417419434,-21.551633834838867,-34.16571044921875,-0.02874656754130631,1014.5363248647893
0.3909296875,-0.4427419406246393,0.0213696818955242,0.1634440107941627,0.4153988361358642,-0.0106950225308537,0.1260992288589477,0.0753246492330234,0.0497642667911095,2.1175706193864547,-10.808735847473145,-21.82882499694824,-34.072296142578125,-0.02906364717692682,1014.536361486114
0.40099853515625,-0.4921029145125299,-0.146674223909527,0.596031710216403,0.4090404212474823,-0.0009693247266113,0.0814465656876564,0.0795792604863286,0.0496254646615514,2.11840749125811,-10.870566368103027,-21.845659255981445,-33.757049560546875,-0.029380719124463637,1014.5363981065506
0.411068603515625,-0.5457725088471547,-0.2805545057628303,0.9510440025269984,0.3459863662719726,0.0031356723047792,0.0404250919818878,0.0834419304170054,0.0496053215823502,2.1188197491528324,-10.692461967468262,-22.072481155395508,-33.649200439453125,-0.029697829512418908,1014.536434731427
0.4211376953125,-0.5771253862271085,-0.4318595312781632,1.1628244664669036,0.2480271160602569,-0.0065085254609584,0.0076376311480998,0.086456599556102,0.0495954576899144,2.1188941842420084,-10.778178215026855,-22.221057891845703,-33.941802978515625,-0.030014909148039417,1014.5364713527516
0.431207763671875,-0.546855993234925,-0.5251676373116672,1.178570317131281,0.1396945118904113,-0.0199343189597129,-0.0131454113870859,0.0884086283794763,0.0494768852231589,2.118765593045589,-10.867971420288086,-22.177467346191406,-34.243682861328125,-0.030332019535994684,1014.5365079776279
0.441276611328125,-0.5125320276223123,-0.51965603428334,1.1230120960384606,0.0283484607934951,-0.0103441746905446,-0.0351787880063056,0.0892333120581406,0.0493212974047189,2.118475621594863,-10.824822425842283,-22.245773315429688,-33.779327392578125,-0.030649091483531506,1014.5365445980647
0.4513466796875,-0.4712091065004468,-0.4275185794644057,1.0256120445162058,-0.0626565441489219,0.0083975549787282,-0.0507598742842674,0.0890301314185681,0.0493487272237651,2.118044723723129,-10.781246185302734,-22.20563507080078,-34.087493896484375,-0.030966201871486774,1014.536581222941
0.461415771484375,-0.4488214432014152,-0.3456112806282937,0.7984861274063587,-0.1302610039710998,0.026539858430624,-0.0558335818350315,0.0880094547886806,0.0495802488282722,2.117551595341675,-10.834274291992188,-22.33298683166504,-34.0013427734375,-0.03128328150710728,1014.5366178442656
0.471484619140625,-0.4634510762521996,-0.2343202855933457,0.5327081158190965,-0.1751278042793274,0.0362774394452571,-0.0558445006608963,0.0864277728247406,0.0499378526597617,2.117063176885228,-10.57761287689209,-22.20566749572754,-34.195037841796875,-0.031600353454644105,1014.5366544647023
0.4815546875,-0.4844492944868281,-0.0774343912057578,0.3150198891401291,-0.1928831189870834,0.0375842377543449,-0.0500514693558216,0.0845354704502951,0.0503487504911937,2.1166166046640718,-10.757073402404783,-22.38444328308105,-34.04412841796875,-0.0318825624529769,1014.5366910960283
0.491623779296875,-0.4707806154226884,0.1023521209716796,0.1469143162757158,-0.1934354454278946,0.0215264447033405,-0.0377559214830398,0.0825675410510076,0.0507030858850287,2.116271158829928,-10.866669654846191,-22.267120361328125,-34.08563232421875,-0.03214686902758408,1014.5367277271051
0.501693603515625,-0.3930027810741215,0.2381103985913097,-0.0252168588429689,-0.1726737916469574,-0.0160297751426696,-0.016236126422882,0.0807188288359872,0.0507601708871509,2.1160935603416218,-10.649741172790527,-22.413820266723636,-34.270172119140625,-0.03241119482775012,1014.5367643608465
0.5117626953125,-0.3189648273736238,0.3021680063515901,-0.2738204482674598,-0.1414013653993606,-0.0683789998292923,0.0098245032131671,0.0791587555795355,0.0503127085390261,2.1161369887029573,-10.617692947387695,-22.209285736083984,-34.500457763671875,-0.03267550140235731,1014.5368009919234
0.521831787109375,-0.1684389330046251,0.3212948046911508,-0.5211147086590528,-0.1090872809290885,-0.1102023720741272,0.042257871478796,0.0779468378051177,0.0493434535303413,2.116477095289182,-10.743919372558594,-22.039249420166016,-34.7513427734375,-0.0329398079769645,1014.5368376230002
0.531901611328125,-0.0208181124273687,0.3263488732103258,-0.6655296093344688,-0.0656487271189689,-0.1012855768203735,0.0755979865789413,0.0771169445140018,0.0481830807135193,2.117120537594769,-10.777432441711426,-21.995723724365234,-34.381805419921875,-0.03320413377713054,1014.5368742567416
0.541970703125,0.073489781765826,0.2915983162160963,-0.6629343321442603,-0.0089412666857242,-0.0546082481741905,0.1135288849472999,0.0768073173839748,0.0472895837511001,2.118108005600631,-10.69457721710205,-21.87557411193848,-34.440155029296875,-0.033468440351737724,1014.5369108878185
0.552040771484375,0.1069691132478415,0.2657276696395129,-0.511140427133441,0.0498253777623176,0.0248032193630933,0.1492802202701568,0.0770998006356848,0.047003593283823,2.119438999171385,-10.86272430419922,-21.80506134033203,-34.58258056640625,-0.03373277256042338,1014.536947522448
0.562109619140625,0.119059400546737,0.2787756595220416,-0.2889081272840499,0.1021191775798797,0.104896642267704,0.1596610695123672,0.0779445798110454,0.0475154255414112,2.1209785115003816,-10.782787322998049,-21.858642578125,-34.0557861328125,-0.033997072726510945,1014.5369841526367
0.572179443359375,0.1043190736630931,0.2420896044205874,-0.1209808335959911,0.1427190750837326,0.1697291582822799,0.1621782928705215,0.0792736689851658,0.0487694646491068,2.122554610333246,-11.0274019241333,-21.9063777923584,-34.09234619140625,-0.034261398526676985,1014.5370207863781
0.582248779296875,0.1833741248732432,0.1313490098100155,-0.0234200385540723,0.1561435610055923,0.2048121392726898,0.1473403722047805,0.0808494762306895,0.0505488984436342,2.1240447080427263,-11.101911544799805,-22.16643714904785,-34.41632080078125,-0.03452571150980379,1014.5370574183432
0.592317626953125,0.3164615758484229,0.0460142207432538,0.0343628728508949,0.1471969485282898,0.1855502873659134,0.1192765161395073,0.0824527779022135,0.0524198214770042,2.125305813713818,-11.013248443603516,-22.099504470825195,-34.066650390625,-0.03479001167589136,1014.5370940485319
0.6023876953125,0.4165495878130197,-0.0614748247254639,0.0770522600203752,0.1231881827116012,0.1201023310422897,0.0910964831709861,0.0838564104214824,0.053884717273337,2.126304690852601,-10.827713012695312,-22.15958404541016,-34.16632080078125,-0.03505434388457702,1014.5371306831614
0.612456787109375,0.4477322231926023,-0.136212597258389,0.1431207692116498,0.0865878239274025,0.0402341336011886,0.0594336278736591,0.0849213221215024,0.0546197836661388,2.1270071113829374,-11.025178909301758,-22.148683547973636,-34.115966796875,-0.035318650459184205,1014.5371673142383
0.622526611328125,0.4419342044383287,-0.1833122020855546,0.1906833153754472,0.0359307453036308,-0.036875195801258,0.0289093013852834,0.0855069784467685,0.054587965737588,2.127422402237916,-11.013285636901855,-22.199298858642575,-34.10650634765625,-0.035582976259350245,1014.5372039479797
0.632595458984375,0.4367728396197781,-0.1752826248869299,0.192086167910695,-0.0140107125043869,-0.1139188483357429,-0.0051573212258517,0.0855630280932746,0.0538289144624233,2.1275398275855046,-10.801176071166992,-22.02509880065918,-34.16595458984375,-0.03584727642543781,1014.5372405781684
0.642664794921875,0.3438604549055918,-0.1541354266356676,0.1665378851562738,-0.0529501847922802,-0.1663681864738464,-0.0355768762528896,0.0851391692072453,0.0524147698945412,2.1273587368861366,-10.970588684082031,-22.206010818481445,-33.96026611328125,-0.03611158940856461,1014.5372772101334
0.652734375,0.1846831981778144,-0.1041121163815259,0.1566372533887624,-0.0784142613410949,-0.1776277720928192,-0.0529212467372417,0.0843933330153155,0.0507209335706461,2.1269348324032755,-10.878850936889648,-22.318193435668945,-33.9095458984375,-0.036375908800211035,1014.5373138429866
0.6628037109375,0.0748183269558474,-0.0389644483622163,0.0401093075484037,-0.0785825699567794,-0.1806928962469101,-0.0661299526691436,0.0835414731519329,0.049003357716945,2.126371724471147,-10.96666145324707,-21.95358657836914,-34.109161376953125,-0.03664022178333784,1014.5373504749516
0.672873779296875,-0.0366280047712847,-0.0041165684733539,-0.1418096866130828,-0.0605750791728496,-0.1672079712152481,-0.0729652196168899,0.0827893917812571,0.0473566289358394,2.1256860693323576,-11.091184616088867,-22.05440330505371,-34.767974853515625,-0.0369045539920235,1014.5373871095812
0.682942626953125,-0.1054473105080425,0.0056008887469768,-0.2337035419344902,-0.0351389311254024,-0.125548779964447,-0.0723452642560005,0.0822679029339117,0.0460196801254314,2.124968312161657,-11.10608196258545,-21.93238067626953,-34.4083251953125,-0.03716885415811107,1014.5374237397699
0.6930126953125,-0.1281462317133322,0.0093465050160884,-0.2550485277801751,-0.0079230228438973,-0.0592089109122753,-0.0641203597187995,0.0820540330722666,0.0452784961951959,2.124270649488093,-10.911486625671388,-21.84258079528809,-34.070465087890625,-0.037433186366796725,1014.5374603743994
0.703081787109375,-0.1459553350504487,0.0437445222456008,-0.321493469068408,0.0143868392333388,-0.0101638790220022,-0.0571706369519233,0.0821286815488278,0.0451563933760708,2.123647151541972,-11.071540832519531,-21.86389541625977,-33.93927001953125,-0.03769749294140391,1014.5374970054763
0.713150634765625,-0.1424030128637328,0.0702366617213934,-0.406677597618103,0.0303692668676376,0.0280325077474117,-0.0489864759147167,0.0824049132748452,0.0454219655114667,2.1230875352788288,-11.120118141174316,-21.876489639282227,-34.020233154296875,-0.03796179310749148,1014.537533635665
0.723220703125,-0.1420508749578148,0.0630969460345804,-0.3517787172168493,0.0454025752842426,0.0690141096711158,-0.0511418841779232,0.0828226942558685,0.0460465348466594,2.122551995880325,-11.07717990875244,-21.89538955688477,-34.00958251953125,-0.03822612531617714,1014.5375702702945
0.733289794921875,-0.1442324567805975,0.0455039331335574,-0.2448608957648277,0.0496055781841278,0.1009054630994796,-0.0509751699864864,0.0833039269149152,0.046992299341993,2.122020763646105,-11.18954372406006,-22.0751953125,-34.24432373046875,-0.03849043189078432,1014.5376069013714
0.743359375,-0.1103549928264692,0.0209435654379427,-0.1618313149005174,0.0470184050500392,0.1063778772950172,-0.0473806001245975,0.0837918918090742,0.0481072173079294,2.1215053783410025,-11.096830368041992,-22.2966365814209,-34.15692138671875,-0.03875475128243075,1014.5376435342246
0.7534287109375,-0.0606886062512174,-0.0370501391734927,-0.088735099029541,0.0413266941905021,0.0832078456878662,-0.0439994521439075,0.084227375853744,0.0490915462680892,2.1210200967041906,-11.040238380432127,-22.14278221130371,-34.1055908203125,-0.03901906426555755,1014.5376801661896
0.763497802734375,-0.0322156316891312,-0.0620274901721626,-0.008815759140253,0.0264669097959995,0.0519156567752361,-0.0406685173511505,0.0845348800916658,0.0497784843463697,2.120578969414232,-10.80526638031006,-22.000925064086918,-33.97247314453125,-0.039283370840164734,1014.5377167972665
0.773567626953125,-0.0331952538436278,-0.08133753612414,0.0649473962068557,0.0141351418569684,0.0210823770612478,-0.0383092239499092,0.0847026281715958,0.0501248932490676,2.1201765329507207,-11.064364433288574,-22.03598022460937,-34.1343994140625,-0.039547696640330775,1014.5377534310079
0.783636474609375,-0.0205798466920852,-0.0753995974425226,0.0842331114351749,0.004472748376429,-0.0146206971257925,-0.0343245826661586,0.0847437115269741,0.0500897073933035,2.119805757040864,-10.916500091552734,-22.274681091308597,-34.372039794921875,-0.039811996806418344,1014.5377900611966
0.793706787109375,-0.0118795306250453,-0.0698086455676704,0.0808317785590887,5.19007444381e-05,-0.0316409580409526,-0.0324065722525119,0.084688008270943,0.0497959579641945,2.119459057057256,-11.29798984527588,-22.23414421081543,-34.424407958984375,-0.04007633542362362,1014.5378266967143
0.803775390625,0.0243998799042776,-0.063232993504405,0.0675941113233566,0.0027708411216735,-0.0425356402993202,-0.0245017036795616,0.0846565266388534,0.0493749757124525,2.1191692344274786,-11.195570945739746,-22.14194869995117,-34.422149658203125,-0.04034062918119157,1014.5378633260149
0.8138447265625,0.0369764894153922,-0.0398203345391899,0.0922130042731761,0.0047676796093583,-0.0393230691552162,-0.0201799254864454,0.0846482999175061,0.0489142564875657,2.118945604038219,-11.12700366973877,-22.1921329498291,-34.336395263671875,-0.04060494216431837,1014.5378999579799
0.82391455078125,0.0259430176930502,0.0097609310358762,0.1202308920115232,-0.0029125520959496,-0.0313295163214206,-0.0184892620891332,0.0846382228778834,0.0485421811855032,2.118742817105117,-10.986321449279783,-22.172924041748047,-34.53485107421875,-0.04086926796448441,1014.5379365917213
0.833983642578125,0.0377667630102485,0.0438832731291651,0.0737596482157707,-0.0118093742057681,-0.0316512249410152,-0.0244366340339183,0.0845621679092857,0.0482196659246034,2.118537873107945,-10.702146530151367,-22.18448829650879,-34.340789794921875,-0.0411335745390916,1014.5379732227981
0.8440537109375,0.0635907574335113,0.0653459670703858,0.0425099389493465,-0.0282691288739442,-0.0432133115828037,-0.0236966013908386,0.0843850007387761,0.0478421480061159,2.1183097130456896,-11.007659912109377,-22.29294204711914,-34.391571044921875,-0.041397906747777255,1014.5380098574277
0.854122802734375,0.0895255552874878,0.0750924311894923,0.0306996741682291,-0.0411830618977546,-0.0490853153169155,-0.0268907975405454,0.0840807932571386,0.0473914748707432,2.118077582394795,-11.124881744384766,-22.18540573120117,-34.13739013671875,-0.04166221332238444,1014.5380464885045
0.86419287109375,0.1146689105028286,0.0864293063051998,0.0232148713707923,-0.05009376257658,-0.0604709461331367,-0.0271902941167354,0.0836484025236544,0.0468681220353317,2.1178321651625485,-11.12010383605957,-22.1173038482666,-34.305419921875,-0.0419265455310701,1014.5380831231341
0.87426171875,0.1309476259348914,0.1056961707025766,0.0249544085144996,-0.0549122244119644,-0.063280314207077,-0.0326306000351905,0.0831240673452929,0.0462868494066241,2.1175470262790164,-11.23304557800293,-22.067344665527344,-34.417449951171875,-0.04219084569715767,1014.5381197533228
0.884330810546875,0.1075246282387524,0.095497067445144,0.0344978974074125,-0.0579468049108982,-0.0602545402944088,-0.0306937042623758,0.0825704330863105,0.045695106281444,2.1172491461673792,-11.112191200256348,-22.419357299804688,-34.378753662109375,-0.04245515227176486,1014.5381563843996
0.894400390625,0.092533870257996,0.0957891822595149,0.0828290898561477,-0.045744203031063,-0.0276696979999542,-0.0272406488656997,0.0820491373487861,0.0452974256437052,2.1169680059209144,-11.108654022216797,-22.031665802001957,-34.32977294921875,-0.04271947166341128,1014.5381930172529
0.9044697265625,0.1119130724560469,0.1052187624491751,0.0769756876528263,-0.0169709026813507,0.0050833714194595,-0.0239359643310308,0.0817278734245357,0.0452424727164085,2.116708507268258,-11.256869316101074,-22.02305030822754,-34.4830322265625,-0.042983784646538084,1014.5382296492179
0.91453955078125,0.1219654972517862,0.0930821883231401,0.0056856444209814,0.0076638711616396,0.0275721680372953,-0.0202189907431602,0.0816803176968338,0.0454694486367902,2.116484037172188,-10.91891384124756,-22.026874542236328,-34.43927001953125,-0.043248110446704124,1014.5382662829593
0.92460888671875,0.1388014447078108,0.0752660341907292,0.0213122526198625,0.0072882431559264,0.0341456048190593,-0.0177941154688596,0.0817559159699113,0.0458603635586346,2.116273836775957,-11.103259086608888,-22.10692977905273,-34.175201416015625,-0.04351242342983092,1014.5383029149243
0.934677490234375,0.1490188873395323,0.0599819558192044,0.0871650732338428,-0.0078004291281104,0.0258163027465343,-0.0112312883138656,0.081723138988347,0.0462237573862071,2.1161220932085345,-11.142745971679688,-22.16444969177246,-34.616180419921875,-0.043776717187398874,1014.5383395442248
0.944747802734375,0.1755395953226834,0.0541517152957618,0.1165402208000421,-0.0309630669653415,0.0218046158552169,-0.006808890029788,0.0814940726942939,0.0465258394392061,2.116031687139695,-11.148090362548828,-22.123619079589844,-34.34521484375,-0.04404105580460415,1014.5383761797425
0.95481640625,0.1563280047765001,0.044484892284125,0.1293009181737899,-0.0390076749026775,0.0200807526707649,-0.0031007044017314,0.0811021298608243,0.0467908309822209,2.1159942133573453,-11.033050537109377,-22.07603073120117,-34.469635009765625,-0.0443053495621721,1014.538412809043
0.96488671875,0.1275374156326055,0.0290169087130576,0.1396112997859716,-0.0537701398134231,0.0174706876277923,-0.0009003742597997,0.0806065842605291,0.0470249934030943,2.1160059136654112,-11.183959007263184,-22.00423812866211,-34.663818359375,-0.04456968817937738,1014.5384494445608
0.97495556640625,0.1227078400516882,0.0211156340692192,0.1005383495479822,-0.0662169530987739,0.006771171465516,-0.0022692389320582,0.079966667813626,0.04718003267511,2.1160088261401757,-11.094083786010742,-21.93441200256348,-34.7681884765625,-0.04483398834546495,1014.5384860747495
0.985024658203125,0.1486185263777151,0.023077508726716,0.0186713827222585,-0.0788471177220344,-0.0074627632275223,-0.0041356161236763,0.0792029901618352,0.0472054062083053,2.1160196993461184,-11.267426490783691,-22.165321350097656,-34.650238037109375,-0.045098294920072134,1014.5385227058264
0.995094482421875,0.1668624044029042,0.0096561554871499,-0.0258189163893461,-0.0851505547761917,-0.0192384626716375,-0.0048421528190374,0.0783505519196431,0.0471115083999039,2.116008378234173,-11.113025665283203,-22.026071548461918,-34.451446533203125,-0.045362620720238174,1014.5385593395678
1.005163818359375,0.1677761217143386,0.0321933467920869,-0.0976625018507242,-0.0801510512828826,-0.0230227950960397,-0.004812188912183,0.077487519693403,0.0469534920914321,2.116003516932196,-11.1010103225708,-21.706707000732425,-34.660858154296875,-0.04562693370336497,1014.5385959715328
1.015233642578125,0.1634012310983613,0.0276483237735927,-0.1430313373625278,-0.0605573840439319,-0.0026128615718334,-0.0048297657631337,0.0767778120938034,0.0468779365244344,2.11598788034234,-11.130764961242676,-21.705957412719727,-34.56414794921875,-0.04589125950353101,1014.5386326052742
1.025302734375,0.1153591212566941,0.007824556145817,-0.1021837786674499,-0.036492496728897,0.0213467013090848,-0.0060788155533373,0.0762807650014051,0.0470455314390705,2.115963101296862,-11.165410041809082,-21.67884635925293,-34.83636474609375,-0.0461555660781382,1014.538669236351
1.035372802734375,0.0638876214882358,0.0075205316979438,-0.0833200882434845,-0.0122673185542225,0.0351394787430763,-0.0069808280095458,0.0760507381347917,0.0473966800673526,2.115902759527561,-11.051002502441406,-21.69999122619629,-34.347259521484375,-0.04641989828682386,1014.5387058709806
1.045441650390625,0.0550532672453671,0.0168895408067852,-0.0725678080826997,-0.0064267395064234,0.0464129075407981,-0.0093867275863885,0.0759835711180393,0.0478719502152376,2.115808334383184,-11.064156532287598,-21.846923828125,-34.4874267578125,-0.04668419845291143,1014.5387425011693
1.055510498046875,0.0529224292291328,-0.0084524057205766,-0.0319277546584606,-0.0162788368761539,0.0635644644498825,-0.0073246425017714,0.0758863199717134,0.0484727803377212,2.115723230433199,-11.159649848937988,-21.90682029724121,-34.385711669921875,-0.046948498618998996,1014.538779131358
1.06558056640625,0.0382371204683557,-0.0303972571555525,0.0260883809804916,-0.0287790335714817,0.0679785087704658,-0.0111183486878871,0.0756620880283897,0.0492248057470664,2.1156286029040343,-11.229727745056152,-22.09116554260254,-34.46588134765625,-0.047212830827684654,1014.5388157659875
1.07564990234375,0.0600783653983846,-0.0136721131302416,0.0110386958867311,-0.0364896841347217,0.0544792152941226,-0.006496699526906,0.0753372343816777,0.0498983208980583,2.1155647166593448,-11.22017765045166,-22.222564697265625,-33.977783203125,-0.04747714381081146,1014.5388523979525
1.0857197265625,0.0715798564912751,0.0150511463984847,0.0026397008538246,-0.035054862499237,0.0561586357653141,9.58950258791e-05,0.0749539539326741,0.0505118296485645,2.1155607644873284,-11.203497886657717,-21.87740135192871,-34.302886962890625,-0.0477414696109775,1014.5388890316939
1.095788818359375,0.0570465599544346,0.0121741296574473,-0.0101613285303115,-0.020507875829935,0.0522421896457672,0.0074163922108709,0.0746597576425472,0.0511101319682751,2.115599355110945,-11.158591270446776,-22.07950592041016,-34.3486328125,-0.04800577618558468,1014.5389256627708
1.10585791015625,0.041901524727419,0.0056870326604694,-0.0378530530542135,-0.0071156695485115,0.0458892285823822,0.009587469510734,0.074516649281637,0.0516337510087876,2.115677715923149,-10.952815055847168,-22.094139099121094,-34.428375244140625,-0.048270082760191874,1014.5389622938476
1.115927734375,0.0417644543442875,0.0026109862159937,-0.0477811573505401,0.0074552842415869,0.0267088804394006,0.011635173112154,0.0745387341284838,0.0520002718529361,2.1157720223659244,-11.08030128479004,-21.991817474365234,-34.177001953125,-0.048534408560357914,1014.538998927589
1.125996826171875,0.0380191303361207,0.0110238636437803,-0.0272837282449007,0.003912596963346,0.0109393782913684,0.0109937954694032,0.0746186392526594,0.052184901547296,2.115870248468031,-11.02212905883789,-21.957740783691406,-34.73309326171875,-0.04879871513496509,1014.5390355586659
1.13606689453125,0.0369148588886484,0.0075295917872339,0.0296598097264766,-0.004224426113069,0.011223005130887,0.0083830971270799,0.0746438641338113,0.0522827502460475,2.115973960006963,-11.118083953857422,-21.839187622070312,-34.73504638671875,-0.04906304734365075,1014.5390721932954
1.1461357421875,0.039949988800846,0.0206759274777024,0.0983294413268566,-0.0158816128969192,0.0152306128293275,0.0146330874413251,0.0745804312393837,0.0524007413266037,2.1160995219187315,-11.102057456970217,-21.971664428710938,-34.597686767578125,-0.04932734750973832,1014.5391088234841
1.156204833984375,0.0735921461617574,0.0089786215517669,0.0804623607248067,-0.0325593911111354,0.0164727121591568,0.0178086403757333,0.0743482953576661,0.0525557461136109,2.1162707705755697,-11.143102645874023,-21.82448387145996,-34.484161376953125,-0.0495916540843455,1014.539145454561
1.16627490234375,0.0870207328597083,0.0045706689164042,0.0185164844214916,-0.0343336760997772,0.0193489547818899,0.0146133173257112,0.0740046712028966,0.0527422376488715,2.116451944104558,-11.126665115356444,-22.13227844238281,-34.69378662109375,-0.04985598629303116,1014.5391820891905
1.17634375,0.0723684130530804,0.0264064339537173,-0.0212929633975028,-0.0253732055425643,0.0088864620774984,0.0140255577862262,0.0736975155220574,0.0528930127615937,2.1165954859981526,-11.01293659210205,-22.028663635253903,-34.82745361328125,-0.05012028645911873,1014.5392187193792
1.186413818359375,0.0676873060321435,0.0295436360009014,-0.0307914441049098,-0.0166818015277385,0.0177098121494054,0.012696580030024,0.0734980813491433,0.0530191416264606,2.116750561747558,-10.842927932739258,-22.120166778564453,-34.727874755859375,-0.050384618667804394,1014.5392553540088
1.196482666015625,0.0704474914604798,0.0156157945439219,-0.0112187286287546,-0.003269056789577,0.0215122736990451,0.0110848350450396,0.0733897962689638,0.0532263923914,2.116884546151695,-10.73348903656006,-21.99745750427246,-34.51409912109375,-0.05064891883389196,1014.5392919841975
1.2065517578125,0.0751917268455028,0.0172380619835108,-0.0223673146307468,0.0070652472786605,0.0057703554630279,0.0088145714253187,0.0734026731124175,0.0533535392143584,2.1169760464298384,-10.75277328491211,-21.879669189453125,-34.76885986328125,-0.050913225408499144,1014.5393286152744
1.216621826171875,0.0651156654458492,0.0061560384117066,0.0059907648473978,0.0056617613881826,-0.0002443939447402,0.0039271381683647,0.0734782651152635,0.0533896339039021,2.117024618038047,-10.575626373291016,-21.972171783447266,-34.599639892578125,-0.0511775576171848,1014.5393652499039
1.22669091796875,0.0457896547397598,0.0140842010624706,0.0809358234554529,-0.0028045438230037,-0.0012870696373283,0.0021979962475597,0.0735085935456858,0.0533920809375307,2.1170564611237843,-11.039559364318848,-21.97418785095215,-34.56646728515625,-0.05144186419179199,1014.5394018809808
1.2367607421875,0.0226488349858671,0.0278165930125862,0.0507809236884117,-0.0136065911501646,-0.0094717619940638,-0.002366661792621,0.0734132973525265,0.0533862789213895,2.117048706286007,-11.122499465942385,-21.815650939941406,-34.65673828125,-0.05170618999195803,1014.5394385147222
1.246829833984375,0.026437523211725,0.0160032594915479,-0.0353729266762733,-0.0172987394034862,-0.0237462390214204,-0.0019828123040497,0.0732458123646333,0.0532581568190252,2.11703755173673,-11.032851219177246,-21.88907814025879,-34.458740234375,-0.051970496566565216,1014.539475145799
1.256898681640625,0.0493385428603738,0.0163080876570194,-0.0240916542053222,-0.014818537980318,-0.0134552512317895,-0.0024677738547325,0.0730780890892522,0.0530883102353085,2.117014215849486,-10.907586097717283,-21.860427856445312,-34.7548828125,-0.05223479673265278,1014.5395117759876
1.26696875,0.0315494959305971,0.0262231863413006,0.0384580332100391,-0.0147870229557156,-0.0022784371394664,0.0015271119773387,0.0729137770636193,0.0530245595882626,2.1170035126950477,-10.85588836669922,-22.05214500427246,-35.196929931640625,-0.052499128941338444,1014.5395484106173
1.277037841796875,0.0428867363724857,0.000563552166894,0.0307493585288524,-0.0126666137948632,0.0122528336942195,-0.0008521559648215,0.072753463697174,0.0531041527426666,2.117010383147895,-11.032662391662598,-22.21327209472656,-34.58819580078125,-0.05276343551594563,1014.5395850416941
1.28710791015625,0.063290203584358,-0.0052743602063506,-0.0171340901523828,-0.0153559911996126,0.0220949407666921,0.0013491786085069,0.0726002658791502,0.0533126476049603,2.117013809176668,-11.054647445678713,-22.06862449645996,-34.88043212890625,-0.05302776772463128,1014.5396216763237
1.2971767578125,0.0535735866142436,0.0023152181398123,0.0103863694578409,-0.0208873786032199,0.021439803764224,-0.0023464900441467,0.0724276912746235,0.0535714255382642,2.117027963431092,-10.882843017578123,-21.993518829345703,-35.334930419921875,-0.05329206789071885,1014.5396583065124
1.30724658203125,0.0372108826931565,-0.0051993222087621,0.0044505496680736,-0.0248154811561107,0.0165187083184719,-0.0050006913952529,0.0721948651608326,0.0537903562594312,2.117008512157,-10.828553199768066,-21.88121223449707,-34.9737548828125,-0.05355639369088489,1014.5396949402538
1.31731591796875,0.0260384043589234,-0.0202476921282708,-0.0123486094415187,-0.0251856595277786,0.008075688034296,-0.0129891093820333,0.0719414371389157,0.0539220970695525,2.11692850260931,-11.086819648742676,-21.888338088989254,-34.967041015625,-0.05382070667401169,1014.5397315722188
1.327384765625,0.0554394900839775,-0.0338549233287572,0.0008078092515468,-0.0222985595464706,0.0045942338183522,-0.0164168365299701,0.0716823670314079,0.0540056293014522,2.1167952760283577,-11.035654067993164,-22.054183959960938,-34.867645263671875,-0.05408500684009926,1014.5397682024075
1.337454833984375,0.0591048076584935,-0.044709787081182,0.0240992529898881,-0.0222327783703804,0.0168463736772537,-0.0205868147313594,0.0714446312492377,0.0541350175197844,2.116613482525173,-11.078444480895996,-21.948604583740234,-34.914947509765625,-0.054349339048784924,1014.539804837037
1.34752392578125,0.0459273827100172,-0.0334498496592044,0.0097913261741399,-0.0237835552543401,0.0214893575757741,-0.0217666663229465,0.0711883526636233,0.054364779301932,2.1164081438717823,-10.96448802947998,-22.171152114868164,-34.8848876953125,-0.054613645623392104,1014.5398414681139
1.35759375,0.0408002489546313,0.0118323304824531,-0.0729319652199745,-0.0139817912131547,0.0125094447284936,-0.0225685443729162,0.0709835664707414,0.0545825068544792,2.1161938644700973,-10.661437034606934,-21.830467224121094,-34.7225341796875,-0.054877971423558145,1014.5398781018553
1.36766259765625,0.0607383636770769,0.0375716788295656,-0.1213058277666568,-0.0029510166496038,0.0222283769398927,-0.0215504765510559,0.0708919540467609,0.0547775972414514,2.1159810401006403,-10.72079372406006,-21.71837615966797,-34.951385498046875,-0.055142271589645714,1014.5399147320439
1.37773193359375,0.0356840019194409,0.0363948170699179,-0.0794353557646274,0.0047314027324318,0.0387948378920555,-0.0228674095124006,0.0708940226947527,0.0551059730001114,2.115762355973784,-10.753975868225098,-21.78621482849121,-34.80340576171875,-0.05540658457277252,1014.539951364009
1.387801513671875,0.037499746104516,0.0181334764532744,-0.04906827455163,0.0077457446604967,0.0463773272931575,-0.0175465568900108,0.0709699371150305,0.0555791605387804,2.115567141913187,-10.954601287841797,-21.70163345336914,-34.887969970703125,-0.05567090396441894,1014.5399879968621
1.397870849609375,0.0775430026793852,-0.0255864228077232,-0.0451671754598617,0.0049286531284451,0.0353403873741626,-0.0137342428788542,0.0710438007841164,0.0560145500039201,2.1154070677472925,-10.851497650146484,-21.745939254760746,-34.580718994140625,-0.055935216947545746,1014.5400246288272
1.40794091796875,0.0837331625564023,-0.0301138371042907,-0.036373043629527,0.0014357101172208,0.0223946552723646,-0.0171205475926399,0.0710704769811541,0.0563154519500105,2.115270627263889,-10.808934211730955,-21.77367782592773,-34.5006103515625,-0.056199549156231404,1014.5400612634568
1.418009765625,0.0807985338766127,-0.0128398270245641,0.0037789340168237,-0.0065076993778347,0.0082777701318264,-0.0195765141397714,0.0710618970406135,0.0565086477319654,2.115084919005464,-10.98114776611328,-21.927846908569336,-34.49090576171875,-0.056463849322318974,1014.5400978936455
1.42807861328125,0.0809380519451573,-0.0460644165605306,-0.0211252056151628,-0.0163380168378353,-0.0116709694266319,-0.0202386640012264,0.0709390007065539,0.0565091886364304,2.114886002028359,-10.884224891662598,-21.862695693969727,-34.577545166015625,-0.05672814948840654,1014.5401345238341
1.43814892578125,0.096145156090334,-0.0483553039766848,-0.0074497314840555,-0.0250369645655155,-0.0150688961148262,-0.0181885622441768,0.07072010570427,0.0564067867435183,2.1147155185150464,-10.791646003723145,-21.84269142150879,-34.82373046875,-0.05699248810561182,1014.5401711593519
1.4482177734375,0.1017799836395308,-0.0279429958712309,-0.0032891046732664,-0.028342131525278,-0.01666078902781,-0.0177781917154788,0.0704357638335116,0.0562730303612467,2.114545781132358,-10.871007919311523,-21.94983673095703,-35.084564208984375,-0.05725678827169938,1014.5402077895405
1.45828759765625,0.1030213620027527,-0.0283295109707862,0.0095423198491334,-0.0284028500318527,-0.0034629618749022,-0.0106084290891885,0.0701209121625144,0.0561906428531537,2.114414760803488,-10.737420082092283,-21.856903076171875,-34.66497802734375,-0.05752111407186542,1014.5402444232819
1.46835693359375,0.1110178041167557,-0.0242179109334945,-0.0215337864160537,-0.0261520072817802,-0.0031417654827237,-0.0062119467183947,0.0698375842298992,0.0561828070835695,2.114341723901345,-10.745290756225586,-21.79447364807129,-35.0115966796875,-0.05778542705499223,1014.540281055247
1.47842578125,0.1005800697978585,-0.0081352295301854,-0.0411339744210243,-0.0183726474642753,-0.0066297072917222,-0.0008025337010622,0.0696307452046132,0.0561628970080035,2.1143232595959285,-10.797406196594238,-21.65399932861328,-34.626861572265625,-0.05804972722107979,1014.5403176854356
1.488495849609375,0.0905484685944393,0.0001958878982812,-0.005606149443984,-0.0009469026699662,-0.0026891662273555,0.002031035721302,0.0695493008154207,0.0561478586227731,2.114336736933053,-10.71352481842041,-21.69960021972656,-35.1011962890625,-0.0581312179565429,1014.5403289794922
1.49856494140625,0.0890036503052339,0.0056860828123986,0.0212725051313638,0.0086511299014091,0.0038792537525296,0.0053706392645835,0.069590440305061,0.0561989387796246,2.1143871297960275,-10.722421646118164,-21.65472412109375,-34.727203369140625,-0.0581312179565429,1014.5403289794922
1.508634765625,0.0976005425304174,-0.017687632381916,0.0347591786921024,0.0119362901896238,0.0021428260952234,0.0097065810114145,0.0697250162278707,0.0562691495925545,2.114451960908931,-10.882416725158691,-21.85940933227539,-34.66497802734375,-0.0581312179565429,1014.5403289794922
1.51870361328125,0.1143209007827565,-0.042458135696873,0.057891632476449,0.0013494258746504,-0.0070570637471973,0.0126493740826845,0.0698238810352721,0.0562582180436451,2.1145609065710413,-11.095938682556152,-21.78252601623535,-34.828094482421875,-0.0581312179565429,1014.5403289794922
1.52877294921875,0.1243772345686331,-0.0536821250226348,0.0852010796844959,-0.0169902555644512,-0.0153407100588083,0.0111885275691747,0.0697778680918081,0.0561783014299886,2.114683249573937,-11.046065330505373,-21.77371025085449,-34.580291748046875,-0.0581312179565429,1014.5403289794922
1.538842529296875,0.1255250163642689,-0.0467049064211547,0.0659779082983732,-0.0279430374503135,-0.0234937109053134,0.006642245221883,0.0695733193561595,0.0560140244107902,2.114786411105676,-11.034173965454102,-21.725605010986328,-34.59130859375,-0.0581312179565429,1014.5403289794922
1.548911865234375,0.1117582837531343,-0.0147151924423873,0.039219080710411,-0.030771404504776,-0.0281855501234531,0.003679109737277,0.0692793585174312,0.0557831009964756,2.1148540997491128,-10.987977027893066,-21.720088958740234,-34.68524169921875,-0.0581312179565429,1014.5403289794922
1.558981689453125,0.104828484489955,-0.0071158964198082,0.0139864397764205,-0.0263297855854034,-0.0340096168220043,0.0013680183328688,0.0689854562218537,0.0554956639093814,2.1148943971950738,-11.048904418945312,-21.43827438354492,-34.5728759765625,-0.0581312179565429,1014.5403289794922
1.56905078125,0.11327340102382,-0.024156024678424,0.0058656771630048,-0.0120179876685142,-0.0242186747491359,0.000696129631251,0.0688038139990916,0.055243196918901,2.114900508628212,-11.170165061950684,-21.7095947265625,-34.748687744140625,-0.0581312179565429,1014.5403289794922
1.57911962890625,0.1280615125719457,-0.0403362481720745,0.0239379249483346,-0.0011035557836294,-0.0103489309549331,0.006050148513168,0.0687406564841741,0.0551077515011508,2.1149387799705752,-11.151439666748049,-21.575666427612305,-34.897430419921875,-0.0581312179565429,1014.5403289794922
1.58918994140625,0.1160728590166196,-0.0295536459382623,0.0758382080554962,0.0040343049913644,0.0013600708916783,0.0071786325424909,0.0687874175764013,0.055094413341156,2.115000233723474,-11.226037979125977,-21.774677276611328,-34.774261474609375,-0.0581312179565429,1014.5403289794922
1.599258544921875,0.1315254623554647,-0.0464968896936625,0.1396697519749403,-0.0089944116771221,0.0097961667925119,0.0060787471011281,0.0687992191662551,0.0551976010120726,2.1150618135667805,-10.817134857177734,-21.811199188232425,-34.554931640625,-0.0581312179565429,1014.5403289794922
1.609328857421875,0.1144896814784035,-0.0569282673370093,0.2250163776099681,-0.0292281024158,0.0016320887953042,0.0049091824330389,0.0686354055950282,0.0553018660265764,2.115132448546508,-11.234090805053713,-21.765966415405277,-34.87860107421875,-0.0581312179565429,1014.5403289794922
1.61939794921875,0.0865093858040869,-0.060308630490303,0.2157376771330833,-0.0576799847185611,-0.0171272177249193,0.0014081909321248,0.0682287191147649,0.0552541684034072,2.115195252708787,-11.13792324066162,-21.459835052490234,-34.90350341796875,-0.0581312179565429,1014.5403289794922
1.629466796875,0.083515756946057,-0.0765576814364641,0.2020680482208728,-0.0803594589233398,-0.0268435850739479,0.003532369621098,0.0675467589292881,0.0550832043059352,2.115256296327781,-11.5054931640625,-21.63385009765625,-35.248809814453125,-0.0581312179565429,1014.5403289794922
1.639536865234375,0.085637096481584,-0.0747285663131624,0.1782768382668495,-0.0988929346203804,-0.0394981242716312,-0.0045641725882887,0.06664788438661,0.0547861748767543,2.115272834807521,-11.16183090209961,-21.650300979614254,-35.279754638671875,-0.0581312179565429,1014.5403289794922
1.64960595703125,0.0896908288517966,-0.0839336170319467,0.1299473993837833,-0.1100099086761474,-0.0506281368434429,-0.0084992256015539,0.0656001276137697,0.0543674926311918,2.1152587403604635,-11.06522274017334,-21.54843139648437,-35.051666259765625,-0.0581312179565429,1014.5403289794922
1.659676025390625,0.0961609016487374,-0.1005965825412422,0.127122405090928,-0.1068900153040885,-0.0452288426458835,-0.0086470311507582,0.0645243176625701,0.0539312660031526,2.115236725942228,-11.313148498535156,-21.37666893005371,-35.02056884765625,-0.0581312179565429,1014.5403289794922
1.66974462890625,0.1028930959805846,-0.1190007656946778,0.1209182897537946,-0.1024451479315757,-0.0296190977096557,-0.0149654764682054,0.0634999996695377,0.0535756998281283,2.115170533586812,-11.288981437683104,-21.567848205566406,-35.083892822265625,-0.0581312179565429,1014.5403289794922
1.67981396484375,0.111309736268036,-0.0931254064103588,0.1026169093877077,-0.0962985679507255,-0.0247582979500293,-0.0146791860461235,0.0625355662994236,0.0533696177653033,2.1150533288429703,-11.077733993530272,-21.43791007995605,-35.220458984375,-0.0581312179565429,1014.5403289794922
1.689883544921875,0.1244135114584118,-0.0972036886999383,0.0718821639060974,-0.1059586256742477,-0.0272640753537416,-0.0139721846207976,0.0615685217908927,0.0531739713875555,2.1149562676453946,-11.12318992614746,-21.571664810180664,-35.508697509765625,-0.0581312179565429,1014.5403289794922
1.699952880859375,0.1079429632486775,-0.102407358290255,0.0491126982152462,-0.1113038584589958,-0.0235018283128738,-0.0161490514874458,0.0605324216662067,0.0529726572909289,2.1148521443389683,-10.982877731323242,-21.40045166015625,-35.11077880859375,-0.0581312179565429,1014.5403289794922
1.710022705078125,0.0847158169182017,-0.0939377091739326,0.0720925917863845,-0.1037903428077697,-0.0188980922102928,-0.0193495862185955,0.0595021462215366,0.0528197140000286,2.114733708787032,-11.085047721862791,-21.380409240722656,-35.28131103515625,-0.0581312179565429,1014.5403289794922
1.720091796875,0.0667563087923452,-0.0848539102146402,0.02972819878757,-0.0883709043264389,-0.0090230908244848,-0.0239270273596048,0.0585805156666097,0.0527253035680649,2.114568805708052,-10.983386039733888,-21.30156898498535,-35.63043212890625,-0.0581312179565429,1014.5403289794922
1.73016064453125,0.0724825774846598,-0.1002851785045117,-0.0575216301202774,-0.0636379495263099,-0.0147175192832946,-0.0283470954746007,0.0578449519288361,0.0526883322697638,2.11434530009135,-11.050643920898438,-21.30653953552246,-35.3736572265625,-0.0581312179565429,1014.5403289794922
1.74023095703125,0.0880084287228062,-0.1036133730791509,-0.1449468155950307,-0.0492409020662307,-0.0400234088301658,-0.0316787101328372,0.0573215957305819,0.0524608935966466,2.114068887908263,-10.837580680847168,-21.094087600708008,-34.965667724609375,-0.0581312179565429,1014.5403289794922
1.750299560546875,0.1154677327303215,-0.0993255396921187,-0.1228080490231513,-0.0412440486252307,-0.0575940273702144,-0.0352626293897628,0.0569189458025624,0.0520387337452478,2.1137462695917577,-10.882749557495115,-21.344772338867188,-35.05792236328125,-0.0581312179565429,1014.5403289794922
1.760369873046875,0.1302256318032741,-0.0885068066990003,-0.0648550417482852,-0.0350631177425384,-0.0716445967555046,-0.0363752953708171,0.0565720052662412,0.0514466130130492,2.113414532684536,-10.97710418701172,-21.48277282714844,-35.11962890625,-0.0581312179565429,1014.5403289794922
1.770438720703125,0.1170633678913116,-0.0861298849672079,-0.0351917248904705,-0.0284259282052516,-0.0675738006830215,-0.0364361107349395,0.0562798603340024,0.050802438920623,2.11306406949521,-10.931715965270996,-21.363800048828125,-34.87744140625,-0.0581312179565429,1014.5403289794922
1.7805078125,0.1477584754822775,-0.1077661088444292,-0.0145773914068937,-0.0272650569677352,-0.0543717108666896,-0.0347599163651466,0.0560263017093041,0.0502488431317383,2.112729616852179,-10.75994873046875,-21.44558334350586,-34.60638427734375,-0.0581312179565429,1014.5403289794922
1.79057763671875,0.1355518317947164,-0.1107302924122661,-0.0125683896720409,-0.0356405824422836,-0.0444437526166439,-0.0408234111964702,0.0557388527806938,0.0498283847996296,2.1123790309891373,-10.854312896728516,-21.357362747192383,-34.933868408203125,-0.0581312179565429,1014.5403289794922
1.80064697265625,0.162770385848917,-0.0996040643725544,-0.0370341378867626,-0.037766583263874,-0.0424538403749465,-0.0414404645562171,0.055392773907933,0.049446480579579,2.1119647779649955,-11.060355186462402,-21.08279228210449,-34.840545654296875,-0.0581312179565429,1014.5403289794922
1.810717041015625,0.2058781080283224,-0.1596970062855631,-0.0402437475830316,-0.0453976616263389,-0.0390870533883571,-0.0395614691078662,0.0550017100684216,0.0490922631468035,2.111581767419535,-11.012839317321776,-21.20944023132324,-34.8560791015625,-0.0581312179565429,1014.5403289794922
1.82078564453125,0.1990345988091081,-0.2123704291896894,0.0238543383181095,-0.0511650033295154,-0.011188575066626,-0.0363150760531425,0.0545278732046316,0.0488880164416357,2.111220848768063,-11.141180038452148,-21.18201065063477,-34.5963134765625,-0.0581312179565429,1014.5403289794922
1.830854736328125,0.199690286238864,-0.1957886756904423,0.0798573805689811,-0.038292221724987,0.0131073361262679,-0.0322306901216506,0.0540971339236112,0.0489728248176269,2.110884782313953,-11.168384552001951,-21.138431549072266,-35.04327392578125,-0.0581312179565429,1014.5403289794922
1.840924560546875,0.2329957224586978,-0.1460110107604414,0.0929255364567041,-0.0202418472617864,0.0118705639615654,-0.0246204417198896,0.0538168045035849,0.0491774978503599,2.110623684631327,-10.839380264282228,-21.07179832458496,-35.2152099609375,-0.0581312179565429,1014.5403289794922
1.850993896484375,0.260426567556709,-0.1349399104414507,0.0814981335133314,0.006159458309412,0.0082891210913658,-0.0200228970497846,0.0537707466548987,0.0493408431079432,2.110413664340743,-10.734563827514648,-21.068574905395508,-34.865570068359375,-0.0581312179565429,1014.5403289794922
1.861063720703125,0.2520573466075584,-0.1685794739864766,0.1182861876845359,0.0273600853979587,0.0063455458730459,-0.0147618222981691,0.0539723503720004,0.0494780087805447,2.110219338858059,-10.911590576171877,-21.277362823486328,-34.974822998046875,-0.0581312179565429,1014.5403289794922
1.8711328125,0.2385740340476855,-0.1968108948776498,0.1449696119487285,0.0364924743771553,-0.0022986005060374,-0.01218316052109,0.054359494931262,0.0495724773695915,2.1100662559047194,-11.015560150146484,-21.074726104736328,-34.72064208984375,-0.0581312179565429,1014.5403289794922
1.88120166015625,0.2072990807421505,-0.1843715018801391,0.1806833148866891,0.0386024974286556,-0.0191558767110109,-0.0102925822138786,0.0547740886770173,0.0495277703533117,2.109926966642643,-10.932716369628906,-21.15219497680664,-34.663787841796875,-0.0581312179565429,1014.5403289794922
1.89127197265625,0.2044809911141172,-0.1795137961832806,0.2216021852523088,0.0240260437130928,-0.041577760130167,-0.0120772887021303,0.0551479271374067,0.049281415854005,2.109795047077051,-10.813176155090332,-21.14273834228516,-35.06292724609375,-0.0581312179565429,1014.5403289794922
1.901340576171875,0.193480069954507,-0.1930456605926156,0.2346650804430246,0.0062752775847911,-0.0398443080484867,-0.006920076906681,0.0553705765084006,0.0489380239100935,2.109696018968494,-10.826431274414062,-21.211753845214844,-34.7947998046875,-0.0581312179565429,1014.5403289794922
1.911410888671875,0.1781720627181232,-0.1847296311354264,0.2180132208496332,-0.0116279507055878,-0.0276804771274328,-0.0095759415999054,0.0554099201398238,0.0486673190774266,2.109618314746375,-10.997065544128418,-21.1533260345459,-34.865325927734375,-0.0581312179565429,1014.5403289794922
1.921479736328125,0.1922581634767353,-0.1522585633805021,0.1687660825997591,-0.0209287740290164,-0.0159311424940824,-0.0115823671221733,0.0552876327815677,0.0485272277029637,2.10952760207671,-11.133601188659668,-21.21295547485352,-35.033203125,-0.0581312179565429,1014.5403289794922
1.931548828125,0.2144949105303734,-0.1184554067716002,0.1350385850429535,-0.0274575110524892,0.0026666079647839,-0.0033411309123039,0.0550874408479261,0.0485633453211556,2.1094501535484325,-10.77626895904541,-21.00041961669922,-35.45684814453125,-0.0581312179565429,1014.5403289794922
1.94161865234375,0.1945204093202948,-0.1088624161811545,0.0787929662078619,-0.0334086120128631,0.0258824471384286,-0.0042569921351969,0.0548445811680212,0.0487996270094454,2.1094266086496942,-10.84233283996582,-21.0596981048584,-35.104034423828125,-0.0581312179565429,1014.5403289794922
1.95168798828125,0.1234905148619785,-0.0835119940863922,0.0040717794835567,-0.0301789939403533,0.0312051270157098,-0.0078032994642853,0.0545910924967803,0.049191845914872,2.109376094256408,-10.782877922058104,-20.913047790527344,-34.542510986328125,-0.0581312179565429,1014.5403289794922
1.9617578125,0.0516012636279687,-0.066550045630522,-0.0251765268325805,-0.0230126939713954,0.0237956792116165,-0.0118417162448167,0.0543825547970415,0.0495649495634399,2.1092906731866465,-10.890475273132324,-21.04337882995605,-34.87457275390625,-0.0581312179565429,1014.5403289794922
1.97182666015625,-0.0063992360504344,-0.1034734896844252,-0.0026648352950811,-0.009749561548233,0.0152912996709346,-0.0165888965129852,0.0542793690208433,0.0498493530938331,2.109138544142528,-10.937341690063477,-21.078201293945312,-34.63299560546875,-0.0581312179565429,1014.5403289794922
1.981895751953125,-0.0850935641894116,-0.1595409754736348,0.0609966127544641,-0.0043180435895919,-0.0019539985805749,-0.0240508075803518,0.0542841293780657,0.0500161329165723,2.108921850880935,-10.871320724487305,-21.07234001159668,-34.832855224609375,-0.0581312179565429,1014.5403289794922
1.991965576171875,-0.1511412863209843,-0.1780207446139305,0.1018564464092254,-0.0129902670159935,-0.0195715390145778,-0.0290139969438314,0.0542765370165413,0.0500066921121301,2.1086522013740296,-11.097681999206545,-21.19186019897461,-34.9002685546875,-0.0581312179565429,1014.5403289794922
2.00203466796875,-0.1863546385213732,-0.1681343240348622,0.1123579666793346,-0.0351464338600635,-0.0302132628858089,-0.0388173572719097,0.0540942161186679,0.0498428559313345,2.108316916772299,-10.92520809173584,-21.107973098754883,-35.3157958984375,-0.0581312179565429,1014.5403289794922
2.012104736328125,-0.2241647657493129,-0.1541694385031238,0.0863917507737875,-0.0663854032754898,-0.0348265431821346,-0.0422502756118774,0.0536101901664516,0.0496071322589086,2.107928500844027,-10.626056671142578,-20.9716739654541,-35.062591552734375,-0.0581312179565429,1014.5403289794922
2.022173583984375,-0.2228566422928124,-0.1261252472797408,-0.0046352585852146,-0.0997244566679,-0.040420513600111,-0.0492482632398605,0.0528066518904736,0.0493335774999408,2.107508781228908,-10.65322971343994,-20.93268585205078,-34.671051025390625,-0.0581312179565429,1014.5403289794922
2.03224267578125,-0.2131310382986441,-0.0596648892266675,-0.1563753875821828,-0.1262246370315551,-0.0411707833409309,-0.0531512014567852,0.0516781304284991,0.0489942035274495,2.1070418599515874,-10.93503189086914,-20.883045196533203,-34.769805908203125,-0.0581312179565429,1014.5403289794922
2.04231298828125,-0.211614423190616,0.0225559690706431,-0.3312117300063371,-0.1351353079080581,-0.0422195382416248,-0.0571030676364898,0.0503560167990885,0.0486217092480499,2.1065535423499075,-10.711573600769045,-20.6289176940918,-34.748931884765625,-0.0581312179565429,1014.5403289794922
2.052381591796875,-0.2512984545316547,0.0670992039458826,-0.4746610005199909,-0.1258802562952041,-0.0361046642065048,-0.0714751482009887,0.0490524352444736,0.0482698387633926,2.10597571985552,-10.911367416381836,-20.59596443176269,-34.620941162109375,-0.0581312179565429,1014.5403289794922
2.062451904296875,-0.3139946012130007,0.0760531659804284,-0.5370037671864032,-0.0898775085806846,-0.0291420929133892,-0.0856168046593666,0.0479805794523827,0.0479612404964142,2.105239894737677,-10.377904891967772,-20.52606773376465,-34.677581787109375,-0.0581312179565429,1014.5403289794922
2.072520263671875,-0.3826296364240348,0.047524296512641,-0.5283516741752624,-0.036477867513895,-0.0315870605409145,-0.1019755899906158,0.0473595545766624,0.0476795637512267,2.1043293090310167,-10.328872680664062,-20.39192771911621,-34.57452392578125,-0.0581312179565429,1014.5403289794922
2.082589111328125,-0.4394444334492087,-0.0142459674954414,-0.4524140973985195,0.0164796207100152,-0.0426924414932727,-0.1109754741191864,0.0472404204714943,0.0473227036922197,2.103243991636162,-10.44216537475586,-20.53845977783203,-35.003631591796875,-0.0581312179565429,1014.5403289794922
2.0926591796875,-0.4164841578939929,-0.0914065832611173,-0.309796017012,0.0584850311279296,-0.0412310659885406,-0.1144913434982299,0.0476276651780654,0.0469039397795878,2.102069413178182,-10.49033546447754,-20.78500366210937,-34.84429931640625,-0.0581312179565429,1014.5403289794922
2.102728271484375,-0.3702630894670263,-0.1861605772539973,-0.1275567048549652,0.0730405375361442,-0.0239724498242139,-0.1032783687114715,0.0482964197129962,0.0465860210497615,2.1009352390352785,-10.498980522155762,-20.865148544311523,-34.72607421875,-0.0581312179565429,1014.5403289794922
2.112797119140625,-0.3115471349956467,-0.2868858276762068,0.0052115971684455,0.0515197105705738,0.0103772990405559,-0.0899535715579986,0.0489055351103779,0.0465202969101114,2.099923570992708,-10.580723762512209,-21.03588104248047,-35.177459716796875,-0.0581312179565429,1014.5403289794922
2.1228671875,-0.2392842281436547,-0.3619589696433395,0.0739192226916551,0.0138889783993363,0.0485180243849754,-0.0754350796341896,0.0492003876906486,0.0468127869693506,2.0990797819679123,-10.514618873596191,-20.9018497467041,-35.385650634765625,-0.0581312179565429,1014.5403289794922
2.132936279296875,-0.185100327611342,-0.3249363395312801,0.060269467523694,-0.0329623483121395,0.0676296651363372,-0.0638889595866203,0.0490386882774069,0.0473767587642192,2.09838570158104,-10.471277236938477,-20.810312271118164,-35.579559326171875,-0.0581312179565429,1014.5403289794922
2.143006103515625,-0.1337441613182425,-0.2896350898517295,-0.024153613525629,-0.0761564224958419,0.0724260210990905,-0.0505989864468574,0.0484415368123071,0.0480452052900893,2.097840157780773,-10.699016571044922,-20.756925582885746,-35.52215576171875,-0.0581312179565429,1014.5403289794922
2.1530751953125,-0.0829507800070568,-0.2838569813743233,-0.1723258209079504,-0.0989321321249008,0.0724821388721466,-0.0414261370897293,0.0475190574956042,0.0487092394682822,2.0974126917443745,-10.72024631500244,-20.62935256958008,-34.9490966796875,-0.0581312179565429,1014.5403289794922
2.163144287109375,-0.0377466335376724,-0.2878998270243406,-0.3096709293276071,-0.1069700866937637,0.0681443810462951,-0.030358038842678,0.0464647663261523,0.049363057422656,2.097105449341569,-10.722893714904783,-20.73628234863281,-35.2099609375,-0.0581312179565429,1014.5403289794922
2.173214111328125,0.009098558137007,-0.2863859153300523,-0.3642892392218113,-0.0904541090130806,0.0653034672141075,-0.0186060089617967,0.0454584146682822,0.0499869228635968,2.096918156913938,-10.666217803955078,-20.93051147460937,-35.35223388671875,-0.0581312179565429,1014.5403289794922
2.183283203125,0.0688155428770929,-0.2855013875804841,-0.3638169455349445,-0.060497011989355,0.0681077763438224,-0.0032382379285991,0.0447086145355507,0.0506110732105358,2.096849392157192,-10.535819053649902,-20.874555587768555,-35.40789794921875,-0.0581312179565429,1014.5403289794922
2.193353271484375,0.1152376503014937,-0.3115709542626514,-0.3074567604094743,-0.0217911340296268,0.0863478332757949,0.0101403072476387,0.044338712978208,0.0513408174223837,2.0968919382530364,-10.708675384521484,-20.96146011352539,-35.354217529296875,-0.0581312179565429,1014.5403289794922
2.203422119140625,0.1385955468721687,-0.3429113374872133,-0.1506312909722328,0.0170121863484382,0.081773854792118,0.0185572281479835,0.0443625071926865,0.0521958735711682,2.0970281206019075,-10.415884971618652,-20.99888801574707,-35.355255126953125,-0.0581312179565429,1014.5403289794922
2.2134912109375,0.1327083519970998,-0.4110879979388788,0.006654197192192,0.0437956042587757,0.0826426744461059,0.0258320029824972,0.0447502870168756,0.0529973771079695,2.0972427986524096,-10.454266548156738,-20.9849796295166,-35.649322509765625,-0.0581312179565429,1014.5403289794922
2.223561279296875,0.1085646388109773,-0.511019869493693,0.1881108345389366,0.0557209700345993,0.0776519104838371,0.0314355604350566,0.0453333702007127,0.0537536126413323,2.0975188537527747,-10.222528457641602,-20.931058883666992,-35.487701416015625,-0.0581312179565429,1014.5403289794922
2.233630126953125,0.0934510581681504,-0.5738804129565135,0.4080249205738306,0.0514444932341575,0.0688310638070106,0.0316690094769001,0.0459736059889025,0.0544435812718511,2.097813493639018,-10.363835334777832,-21.141639709472656,-35.4102783203125,-0.0581312179565429,1014.5403289794922
2.2437001953125,0.1074383747274056,-0.6295517025023698,0.5505342798888683,0.0341882742941379,0.0545756965875625,0.0262500084936618,0.0464770625133189,0.0550342210495582,2.0980800348523574,-10.411661148071287,-21.126264572143555,-35.35906982421875,-0.0581312179565429,1014.5403289794922
2.253769287109375,0.0985605466689914,-0.689924484270066,0.6317459976762533,0.0081962393596768,0.0277957897633314,0.016553446650505,0.0467449929004218,0.0554377089587136,2.0983019336841884,-10.227038383483888,-20.706884384155277,-35.191436767578125,-0.0581312179565429,1014.5403289794922
2.263838134765625,0.0516538705980405,-0.7150939968399703,0.6512643526166677,-0.0105580072849988,0.0017476789653301,-0.0019792248494923,0.0467571699892885,0.0555826001963885,2.0983820519756606,-10.197667121887209,-20.731386184692383,-34.98651123046875,-0.0581312179565429,1014.5403289794922
2.273908203125,0.0112569782799109,-0.6868295139294117,0.6154945355772972,-0.0303140766918659,-0.0235742107033729,-0.0186323747038841,0.0465721221811642,0.055474488157624,2.0982839186332027,-10.36037254333496,-20.653356552124023,-35.413177490234375,-0.0581312179565429,1014.5403289794922
2.283977294921875,-0.0170279628967866,-0.6599899492554366,0.5378647679299116,-0.0398010574281215,-0.0414110012352466,-0.0322935916483402,0.0462263529184901,0.055152679322407,2.098048048995882,-10.184212684631348,-20.72394561767578,-35.633514404296875,-0.0581312179565429,1014.5403289794922
2.294047119140625,-0.0540663750998675,-0.6375191742502152,0.4434305804759264,-0.0459749437868595,-0.0553021728992462,-0.0449209362268447,0.045816495774697,0.0546853695859719,2.097688101082248,-10.397565841674805,-20.65992927551269,-35.475677490234375,-0.0581312179565429,1014.5403289794922
2.3041162109375,-0.1157866990189999,-0.5859386246167123,0.335911870521307,-0.0507768876850605,-0.0667905211448669,-0.0586886815726757,0.0453384408413094,0.0541100047227004,2.0971899648313808,-10.599628448486328,-20.74091339111328,-35.479461669921875,-0.0581312179565429,1014.5403289794922
2.314185302734375,-0.1790536678582429,-0.5020595507835969,0.1913040776222944,-0.0372516699135303,-0.0719264522194862,-0.0701972022652626,0.0449038513073714,0.0534481565387076,2.0965636136170813,-10.242351531982422,-20.63521957397461,-35.134552001953125,-0.0581312179565429,1014.5403289794922
2.324255126953125,-0.1994789815757423,-0.4241421983664855,0.0828489636003971,-0.0334817022085189,-0.0675633996725082,-0.080345444381237,0.0445786252304762,0.0527972950119587,2.095831499905124,-10.268634796142578,-20.88130187988281,-35.36370849609375,-0.0581312179565429,1014.5403289794922
2.33432421875,-0.2220047747038304,-0.3719035501504317,-0.0176905549913644,-0.0368313565850257,-0.0746703073382377,-0.0764135643839836,0.0442746922518483,0.0521471003043368,2.095051971523341,-10.410393714904783,-20.7906436920166,-35.22637939453125,-0.0581312179565429,1014.5403289794922
2.344394287109375,-0.2544979446927085,-0.3295993994388729,-0.1525917773902416,-0.0382170006632804,-0.0871208533644676,-0.0812863484025001,0.0439648024803836,0.0513839147300974,2.094271284563614,-10.355802536010742,-20.917808532714844,-35.286163330078125,-0.0581312179565429,1014.5403289794922
2.354463134765625,-0.2966542113661766,-0.2631729801880195,-0.2199526644796132,-0.0408439487218856,-0.0940968468785286,-0.0850020796060562,0.0436274938802831,0.0505224902254616,2.0934430693748,-10.370732307434082,-20.87886619567871,-35.041107177734375,-0.0581312179565429,1014.5403289794922
2.3645322265625,-0.3091815749080851,-0.277914220387116,-0.1969318543761968,-0.0429909899830818,-0.0840418115258216,-0.0799335464835167,0.0432683751838785,0.0496610217976165,2.092618844390105,-10.526320457458496,-20.577089309692383,-35.024810791015625,-0.0581312179565429,1014.5403289794922
2.37460205078125,-0.2664928087931126,-0.3461227007491514,-0.1798398497998714,-0.0358595177531242,-0.0616856664419174,-0.0655920282006263,0.0429197748410671,0.0489678655964882,2.091897056720656,-10.373863220214844,-20.5490665435791,-35.1905517578125,-0.0581312179565429,1014.5403289794922
2.384671142578125,-0.2009384962016716,-0.3772975181484594,-0.1521463717103004,-0.0266516394913196,-0.0270467288792133,-0.0425234623253345,0.0426702887765748,0.0485378618496686,2.0913729332369138,-10.363373756408691,-20.603355407714844,-35.358551025390625,-0.0581312179565429,1014.5403289794922
2.394740234375,-0.1315887368500232,-0.384684523127228,-0.1908095721036195,-0.008181283250451,0.0081700310111045,-0.0267782807350158,0.0425425208385304,0.0484542452219062,2.0910302456108294,-10.496390342712402,-20.618654251098636,-35.18316650390625,-0.0581312179565429,1014.5403289794922
2.404810302734375,-0.0993062870023772,-0.4207469299050048,-0.2431640287190675,0.0039773788303136,0.0459914468228817,-0.0076959319412708,0.0425730886158971,0.048702969564294,2.0908585764676717,-10.485650062561035,-20.727245330810547,-35.22943115234375,-0.0581312179565429,1014.5403289794922
2.414879150390625,-0.0793126792330294,-0.4537056350464001,-0.2806383115887642,0.0225710049271583,0.0801580250263214,0.0220068618655204,0.0427524407520574,0.0493056062747083,2.0909283359131527,-10.519937515258787,-20.64487648010254,-35.162567138671875,-0.0581312179565429,1014.5403289794922
2.42494921875,-0.0728135264720767,-0.504206572749652,-0.2363239535659551,0.0444557964801788,0.0913382470607757,0.0407041162252426,0.0431573478027407,0.0501408998796878,2.0912318290461864,-10.289772987365724,-20.776472091674805,-35.233734130859375,-0.0581312179565429,1014.5403289794922
2.43501806640625,-0.0702965386824682,-0.5400153335599228,-0.164265848571062,0.0713186264038086,0.0759221687912941,0.0566523633897304,0.0438094622520505,0.0509250121260842,2.0916919226494533,-10.261642456054688,-20.609643936157227,-35.654205322265625,-0.0581312179565429,1014.5403289794922
2.445087158203125,-0.0428748998042196,-0.6041201049301773,-0.0441559525907039,0.0811299830675125,0.0529169850051403,0.0717237219214439,0.044704505691497,0.0514431521897939,2.092310788791218,-10.238255500793455,-20.83704948425293,-35.523162841796875,-0.0581312179565429,1014.5403289794922
2.4551572265625,-0.0348961394773796,-0.6724275521546602,0.0881850639313459,0.0776999443769455,0.0164137072861194,0.0843506008386612,0.0456593772310947,0.0516698986537651,2.0930542928342555,-10.425762176513672,-20.534744262695312,-35.626861572265625,-0.0581312179565429,1014.5403289794922
2.465226318359375,-0.0439552423868328,-0.7082929385229945,0.1672895803064107,0.0707206055521965,-0.0108314957469701,0.0914641693234443,0.0465501862107362,0.0515732184551075,2.093891352331796,-10.456204414367676,-20.628053665161133,-35.276458740234375,-0.0581312179565429,1014.5403289794922
2.475296142578125,-0.0284634760813787,-0.7417552092723548,0.2357639815956354,0.0642741620540618,-0.0355587601661682,0.1057605966925621,0.0473808419494231,0.0512306360845132,2.09484639226026,-10.454968452453612,-20.53379249572754,-35.4923095703125,-0.0581312179565429,1014.5403289794922
2.485365234375,-0.0281328558875247,-0.773705029632151,0.2853057188779115,0.0593483783304691,-0.0392136834561824,0.1159519851207733,0.0481826210171309,0.0507552086345015,2.0959382728643563,-10.573690414428713,-20.606603622436523,-35.420440673828125,-0.0581312179565429,1014.5403289794922
2.495434326171875,-0.0353413990268483,-0.7964318252250552,0.3345394131243229,0.0534444712102413,-0.025004144757986,0.1275573670864105,0.0489330356598353,0.0503314012111861,2.097140117526396,-10.524821281433104,-20.6700439453125,-35.76995849609375,-0.05783849509950741,1014.5402914737778
2.505504150390625,-0.0377624886939302,-0.7860222940873354,0.3694564127266407,0.0562479831278324,0.0049399058334529,0.1450309008359909,0.0496597021846384,0.0501218025186303,2.098486707420866,-10.558866500854492,-20.381807327270508,-35.596649169921875,-0.05741568914064465,1014.5402373008999
2.5155732421875,-0.0221015033014118,-0.7377499191537499,0.3870896845728159,0.0695949494838714,0.0357598699629306,0.1513226181268692,0.0504785298267979,0.0502667500983501,2.099947258252456,-10.39634609222412,-20.600017547607425,-35.40362548828125,-0.05699291393428821,1014.5401831319623
2.52564306640625,0.0016352365190163,-0.6930960269782692,0.3396002036452293,0.0785788521170616,0.0540683045983314,0.1579573601484298,0.0514168347573342,0.0506420032833943,2.101457936699153,-10.474925994873049,-20.279396057128903,-35.0552978515625,-0.056570107975425436,1014.5401289590845
2.535712158203125,0.0158067140061408,-0.6992633905015886,0.2991331687003374,0.081968292593956,0.0735761299729347,0.1618924140930175,0.0524678305301154,0.0512000761824084,2.1030251708425114,-10.548672676086426,-20.546167373657227,-35.159576416015625,-0.056147332769069,1014.540074790147
2.54578125,0.0190271008247509,-0.69510159464702,0.2985509848982096,0.0714024677872657,0.0847148001194,0.1605091691017151,0.0534887376094164,0.0518987124178343,2.104615021560101,-10.324368476867676,-20.633750915527344,-35.003173828125,-0.05572455756271256,1014.5400206212094
2.555851318359375,0.0112065632669255,-0.6774078247852623,0.2968278143674135,0.051151867955923,0.0710140392184257,0.1538022458553314,0.0543634883093221,0.0526091029201907,2.1061598213797974,-10.44292449951172,-20.48905372619629,-35.070404052734375,-0.05530174135301434,1014.5399664470182
2.565920166015625,-0.00489084078148,-0.658226738975197,0.2909212206721305,0.038262702524662,0.0483705103397369,0.1439093947410583,0.055099816162561,0.0531403507601309,2.107640430985501,-10.51262378692627,-20.45140838623047,-35.13311767578125,-0.054878976397493354,1014.5399122793939
2.575990234375,-0.0110092505965381,-0.6725937025018036,0.2899725416451692,0.0402699559926986,0.0290937405079603,0.1347118318080902,0.0557414914952918,0.0534313149005408,2.109024452248311,-10.742146492004396,-20.299976348876957,-35.20379638671875,-0.05445616018779514,1014.5398581052027
2.58605908203125,-0.0282449379598721,-0.7028815809987485,0.2838455831974744,0.0539703220129013,0.0158527679741382,0.1218575537204742,0.0564229794260117,0.0535586010808569,2.110284544346605,-10.700002670288086,-20.503610610961918,-34.81292724609375,-0.05403339523227415,1014.5398039375785
2.596128173828125,-0.0594735313730314,-0.7333494191724806,0.2897720506370067,0.0672542303800582,0.0262466315180063,0.1079267635941505,0.057208380442909,0.0536940805526892,2.111419531433806,-10.587624549865724,-20.48686981201172,-35.1448974609375,-0.05361062002591771,1014.539749768641
2.606197998046875,-0.0864237898798659,-0.7934386347584426,0.3075263185143471,0.0762706324458122,0.0457177981734275,0.1060633510351181,0.0580862257452137,0.0539892123655484,2.112450468574554,-10.490002632141112,-20.4626522064209,-35.152740478515625,-0.05318781406705494,1014.5396955957632
2.616267333984375,-0.1308818306896835,-0.8544459150373935,0.3251256880909204,0.0770904198288917,0.0702778249979019,0.1036427542567253,0.0590079051392741,0.054514202069645,2.113452354068461,-10.606037139892578,-20.60331153869629,-35.365692138671875,-0.052765028609863054,1014.5396414255122
2.626337158203125,-0.1776975040089339,-0.8405848552063107,0.3428986606687307,0.0667336508631706,0.0981696397066116,0.1018078401684761,0.0598735511058918,0.0553109525581264,2.1144536302249493,-10.557486534118652,-20.526073455810547,-35.484588623046875,-0.05234222265100026,1014.5395872526343
2.63640625,-0.1921377519674599,-0.8241433504279703,0.3239607359647751,0.0535356402397155,0.1077181845903396,0.1067549437284469,0.0606206920351848,0.0563010186349924,2.115471514874545,-10.701120376586914,-20.512311935424805,-35.26068115234375,-0.05191944744464384,1014.5395330836967
2.64647509765625,-0.2382146626833826,-0.8635241975713521,0.2413777298241853,0.0344583503901958,0.095273233950138,0.1059775725007057,0.0611989310526054,0.0572664925825195,2.116517928751683,-10.5494966506958,-20.339414596557617,-35.301300048828125,-0.051496682489122855,1014.5394789160725
2.656545166015625,-0.29754191745352,-0.8664920344009995,0.1472550925374031,0.0268786996603012,0.0828168392181396,0.0997354537248611,0.061660098898752,0.0581022813598652,2.1175348577923065,-10.4434232711792,-20.32172203063965,-35.298583984375,-0.05107386627942462,1014.5394247418814
2.6666142578125,-0.3235019228139892,-0.8674149944648146,0.0373532868385314,0.0306790303438901,0.0669209659099578,0.1002172157168388,0.0621161720673468,0.0587851973861531,2.1185177735300798,-10.564715385437012,-20.446706771850582,-35.057769775390625,-0.0506510910730682,1014.5393705729438
2.676684326171875,-0.3390377474568784,-0.848351251424104,-0.056220484393835,0.0387075394392013,0.0593352429568767,0.1051788404583931,0.062657382466414,0.0593358377317878,2.119522572800273,-10.442754745483398,-20.52519989013672,-35.1231689453125,-0.05022827486336996,1014.5393163987526
2.686753173828125,-0.3376743136165663,-0.8270365876514464,-0.1528705943316221,0.0528619736433029,0.0654914006590843,0.1092223152518272,0.0633674350095594,0.059842232579639,2.12057386664252,-10.54287815093994,-20.40101432800293,-35.181884765625,-0.049805509907848974,1014.5392622311284
2.696822265625,-0.3419516621422022,-0.8110619697324931,-0.2241588839977979,0.0758392587304115,0.0815340131521225,0.1146226599812507,0.0643269649556334,0.0604522755309663,2.121674106275921,-10.539161682128906,-20.210302352905277,-35.15692138671875,-0.049382734701492556,1014.5392080621908
2.706892333984375,-0.3215214895864948,-0.7635635748460888,-0.279480373725295,0.1107232049107551,0.1053021922707557,0.1272971779108047,0.0656331738401314,0.0612459306448336,2.122828658729886,-10.50293254852295,-19.96291923522949,-35.464324951171875,-0.04895991849179432,1014.5391538879995
2.716961181640625,-0.3064501406501978,-0.8732633551668375,-0.3509726615309715,0.1425347626209259,0.1197300180792808,0.1567148268222808,0.0672067222778664,0.0622219746948357,2.1241697748062927,-10.45120620727539,-20.16032600402832,-35.54388427734375,-0.04853715353627333,1014.5390997203754
2.7270302734375,-0.3708240478180348,-1.2079210609085858,-0.3044593321591615,0.1616882085800171,0.1613536328077316,0.1878293454647064,0.069050376464364,0.0634282435198346,2.1257967053061773,-10.248149871826172,-20.17864227294922,-35.213470458984375,-0.048114378329916906,1014.5390455514378
2.73710009765625,-0.327269787447527,-1.3369757492363452,-0.0840291132956743,0.1555620580911636,0.2141273766756057,0.2212100028991699,0.0709861397994366,0.0651067253767456,2.127757018969586,-10.29037094116211,-20.24361991882324,-35.225555419921875,-0.04769157237105412,1014.53899137856
2.747169189453125,-0.1650401939444243,-1.1346600098647175,-0.0315337869048118,0.0968904793262481,0.2201956510543823,0.2483609169721603,0.0726389381846911,0.0670594241740993,2.130037211342419,-10.453169822692873,-20.23560905456543,-35.541717529296875,-0.04726879716469768,1014.5389372096224
2.757239013671875,-0.0066267246633768,-0.8819409479454159,-0.2139426104098558,-0.0157277360558509,0.2030560225248336,0.2798271775245666,0.0734478879953247,0.0688937279020146,2.13268011432773,-10.449007034301758,-20.216289520263672,-35.560333251953125,-0.046845991205834915,1014.5388830367446
2.767308349609375,0.0858497528515756,-0.6808293236665427,-0.5887380460768937,-0.1563005596399307,0.1649728119373321,0.2934178113937378,0.0729275640904123,0.0704707246014653,2.135636426130096,-10.429526329040527,-20.299449920654297,-35.189453125,-0.046423205748643025,1014.5388288664936
2.777376953125,0.1551382470026612,-0.4310990682996809,-1.1005208627671004,-0.2676717042922973,0.0995794907212257,0.2931369245052337,0.0710596321089841,0.0715340940409854,2.1387608290353857,-10.500197410583496,-20.27364730834961,-35.2353515625,-0.04600045104395749,1014.5387747001828
2.787447265625,0.2141314840454608,-0.1186035830706357,-1.6478507936567066,-0.323244959115982,-0.0055330782197415,0.2812621295452118,0.0683117006429207,0.0717926739220427,2.14187790759472,-10.709430694580078,-19.88968086242676,-35.383819580078125,-0.04557762458342382,1014.5387205246782
2.79751611328125,0.2281836094692349,0.1348807641327381,-2.2441683350771666,-0.3171798586845398,-0.1045788899064064,0.2604969143867492,0.0652835299703401,0.0709976632541304,2.144832413282177,-10.657004356384276,-19.819936752319336,-35.51580810546875,-0.04515485962790283,1014.538666357054
2.80758642578125,0.1199420651327818,0.2878890133693814,-2.583469263514876,-0.2581322491168976,-0.1572559475898742,0.2289661467075348,0.062524069201513,0.0694732766088499,2.1475151574016125,-10.9231595993042,-19.697629928588867,-35.953521728515625,-0.044732033167369165,1014.5386121815494
2.817655029296875,-0.0302634016428142,0.4196151493960991,-2.7484043896496293,-0.1450939774513244,-0.2172358781099319,0.1840921491384506,0.0606177028601144,0.0674393566995875,2.1497415568559264,-10.876224517822266,-19.556171417236328,-35.90545654296875,-0.04430927846268362,1014.5385580152387
2.827724365234375,-0.1341007927361875,0.6113315341463312,-2.9196435843646524,-0.0137330228462815,-0.257000595331192,0.1251188516616821,0.0599023628048974,0.0649381783616034,2.151341748871737,-10.737736701965332,-19.34877586364746,-35.84375,-0.04388649300549173,1014.5385038449876
2.8377939453125,-0.1691676126053556,0.7981510502330958,-2.7738521346390246,0.1172446087002754,-0.2333351075649261,0.0692163333296775,0.0604905801455456,0.0623877025013889,2.152272670205,-10.869134902954102,-19.272884368896484,-35.26251220703125,-0.04346369729746442,1014.5384496734232
2.84786328125,-0.17462277273871,0.899297594807297,-2.443264674010873,0.2251095622777938,-0.1681598275899887,0.0113224051892757,0.0622477830425175,0.0603182867756178,2.1525654745329263,-10.973752975463867,-19.29173851013184,-35.3604736328125,-0.043040911840272526,1014.5383955031722
2.857933349609375,-0.2410135361542925,0.8840158545233309,-2.028937438422441,0.312505841255188,-0.1000680923461914,-0.0596098713576793,0.064952150452624,0.0590063694358928,2.152163152124196,-11.039813041687012,-19.38520812988281,-35.522491455078125,-0.04261809563057431,1014.538341328981
2.868002197265625,-0.3459635281320661,0.7861169135682284,-1.5711340492010115,0.3862634003162384,-0.0466003380715847,-0.1341765224933624,0.0683893517889747,0.0583819780323967,2.150966623238087,-11.23580265045166,-19.35089874267578,-35.70758056640625,-0.04219533067505332,1014.5382871613568
2.878071044921875,-0.3406369262818247,0.6193427354380489,-1.180737139776349,0.4686431288719177,-0.0536785274744033,-0.2043768614530563,0.0726032964109539,0.0580224253477124,2.14901977547824,-11.193263053894045,-19.61317253112793,-35.2266845703125,-0.041772565719532334,1014.5382329937327
2.88814111328125,-0.2443160117657855,0.4708354508824646,-0.8023276052653789,0.5356721878051758,-0.0398756302893161,-0.280775249004364,0.0775389830291564,0.0577420644383055,2.146281957709665,-11.250221252441406,-19.762920379638672,-35.4361572265625,-0.04134974950983411,1014.5381788195414
2.898210205078125,-0.2207224798083305,0.3168107911448926,-0.1578238328248262,0.5486312508583069,0.0014982130378484,-0.3498531579971313,0.0828306937368083,0.0577870366527807,2.1427791014298463,-11.305401802062988,-19.97129821777344,-35.323455810546875,-0.04092697430347768,1014.5381246506039
2.908280029296875,-0.3398453375127166,0.0619672844175249,0.5601169317483902,0.5087687969207764,0.061355423182249,-0.3914320170879364,0.0879446674381752,0.0584733111659588,2.138704205578365,-11.23500156402588,-20.268354415893555,-35.05462646484375,-0.040504168344614885,1014.538070477726
2.918349365234375,-0.3063025488730519,-0.1669308299966156,1.1005892518281937,0.5485140085220337,-0.1226300522685051,-0.4079884886741638,0.0928217102651417,0.0590800807386683,2.1343571796165057,-11.417271614074709,-20.459888458251957,-35.062042236328125,-0.040081382887423016,1014.538016307475
2.928418212890625,-0.1034999758325517,-0.1554004781354218,0.1239291620075702,0.7032926678657532,-0.4584490656852722,-0.456726461648941,0.0989695941807717,0.0562383953580679,2.1296291539217225,-11.127476692199709,-20.66650390625,-34.76617431640625,-0.03965861793190203,1014.5379621398508
2.93848828125,0.1480522342644631,0.1630091265082359,0.5097106865912675,0.6508453488349915,-0.3879900872707367,-0.4754636585712433,0.1056247398518723,0.0524032113406175,2.1245123170624822,-11.103300094604492,-21.00775909423828,-34.913726806640625,-0.03923580172220379,1014.5379079656597
2.94855712890625,-0.0168239282246679,-0.0072859192244708,2.499265962696075,0.4927241802215576,-0.3496834337711334,-0.4210009574890136,0.1111495789989939,0.0494036701939734,2.1195962012660674,-11.445905685424805,-21.444862365722656,-34.941009521484375,-0.0388130367666828,1014.5378537980355
2.958626220703125,-0.1400991563681513,-0.5325461301904172,2.9356209056973457,0.3186455368995666,-0.3448700308799743,-0.2764010429382324,0.1150622907577222,0.046193598529296,2.115840193345476,-11.423666000366213,-21.79830551147461,-34.4649658203125,-0.03839026156032638,1014.5377996290979
2.968696044921875,0.5631869868434966,-0.6137995682276784,3.293881970670819,0.1356032639741897,-0.154815137386322,-0.1168776750564575,0.1172590729102654,0.0438534110735988,2.1137390114527728,-11.264458656311035,-21.836917877197266,-34.26959228515625,-0.0379674556014636,1014.53774545622
2.978765380859375,1.0623917692504825,-0.2659519068494439,3.038091684612632,-0.0193781834095716,0.0041018575429916,0.0838021710515022,0.1177753417815669,0.0433010059962962,2.1135067147482287,-11.021403312683104,-21.741432189941406,-34.253753662109375,-0.03754467014427172,1014.5376912859691
2.9888349609375,1.201700871219486,-0.3000113397743553,1.810447832232713,-0.0705212578177452,0.0728164762258529,0.3095559477806091,0.1173664328006565,0.0433915453656975,2.1155231429920422,-11.351654052734377,-21.65662002563477,-34.05670166015625,-0.03712187443624439,1014.5376371144047
2.998904296875,1.1178428767070174,-0.3955735083449632,1.2679121498823165,-0.0917950198054313,0.214889571070671,0.5350459218025208,0.1167269379570765,0.0442864763267318,2.1198573288454585,-11.593111038208008,-21.877241134643555,-33.912139892578125,-0.0366990889790525,1014.5375829441537
3.00897314453125,0.8385391747228801,-0.0451444521714001,0.7251543492138386,-0.10430708527565,0.4714366793632507,0.7034317851066589,0.1159872460996597,0.0469051137436012,2.126220084287622,-11.46884822845459,-21.823219299316406,-34.07415771484375,-0.03627632402353151,1014.5375287765295
3.019043212890625,0.2351210805822163,0.392638697002083,0.2164770973235368,-0.0798289626836776,0.8049505352973938,0.7807368636131287,0.1153823490553938,0.0524621167967342,2.1338417336090787,-11.35288906097412,-21.5288200378418,-33.8280029296875,-0.03585350781383329,1014.5374746023383
3.029112060546875,-0.2658412860818207,1.023226391488686,-0.1399427236974239,0.0193040147423744,1.0975160598754885,0.7904952168464661,0.1154914043816084,0.0611379715220549,2.1418441490316487,-11.587764739990234,-21.26787567138672,-34.078033447265625,-0.035430742858312304,1014.5374204347141
3.039182373046875,-0.3855944775789975,1.5922645155131816,-0.3550789278060197,0.1675824075937271,1.3468352556228638,0.7850765585899353,0.1169473606938345,0.0725628813151213,2.149762782235628,-11.052614212036133,-21.076004028320312,-34.094512939453125,-0.035007916397778636,1014.5373662592094
3.0492509765625,-0.3485536907557398,1.937787679466605,-0.4547457552164792,0.3223024606704712,1.536462426185608,0.7383290529251099,0.1200063218803479,0.0862106212893772,2.1572737951295884,-10.745301246643066,-21.20890617370605,-34.324615478515625,-0.0345851616930931,1014.5373120928987
3.0593203125,-0.4601589393716305,2.104856164368242,-0.4494686915963888,0.4497194588184356,1.7358660697937012,0.6469303965568542,0.124564399953808,0.101841900605098,2.163925552773369,-10.395231246948242,-21.22902488708496,-34.631011962890625,-0.03416237623590121,1014.5372579226477
3.06939013671875,-0.7069330483466386,2.073138399198651,-0.2067792946517467,0.4413509964942932,2.001250982284546,0.602418839931488,0.1298259837684011,0.1198739210480281,2.169645992305912,-9.751697540283203,-21.2805118560791,-34.579498291015625,-0.033739570277038444,1014.5372037497699
3.079459228515625,-0.4748163372121751,1.9046825515918435,-0.198688342654705,0.4726380705833435,1.5421241521835327,0.6810041666030884,0.1350173307376772,0.1379979275655749,2.1754426688505526,-9.170031547546388,-21.50735092163086,-34.407989501953125,-0.033316795070682,1014.5371495808323
3.089529296875,1.616046080856025,1.793042085532099,-2.826666025459766,0.4566588401794433,1.3323285579681396,0.5885266661643982,0.1407006491522283,0.1513166979147728,2.1812889718078763,-8.518733024597168,-21.43745803833008,-34.0513916015625,-0.03289397886098379,1014.5370954066411
3.099598388671875,0.5689950886003673,1.9190316872008144,-1.278047759449482,0.3850230574607849,0.8321576118469238,0.3690181970596313,0.1456488118222736,0.1617183881622296,2.185493440663464,-8.4771089553833,-21.749303817749023,-34.624847412109375,-0.03247120365462734,1014.5370412377035
3.109667236328125,0.2346823238387703,1.6198953036300836,-1.611320513638854,0.261395126581192,0.4181273579597473,0.1128767281770706,0.1493037195560251,0.167690820158992,2.1873377286087266,-8.217272758483887,-21.619922637939453,-34.226104736328125,-0.032048438699106355,1014.5369870700794
3.1197373046875,0.31906054283306,1.2708213153272867,-0.8462135087430477,0.0717624053359031,0.1348300278186798,-0.0536010302603244,0.1510198657310937,0.1703827509778557,2.1872743994817934,-8.168962478637695,-21.74371910095215,-34.416259765625,-0.03162562248940814,1014.5369328958881
3.129806396484375,0.5786000984221696,0.7414512578897178,-0.0393225410848855,-0.1293611079454422,-0.0410033166408538,-0.094057910144329,0.1505772085119936,0.1709278564975605,2.1864974783474143,-7.985447883605957,-21.689189910888672,-34.136932373046875,-0.0312028472830517,1014.5368787269505
3.139875244140625,0.6895768398761749,0.217577167519927,0.5679886880367994,-0.2741464376449585,-0.1573180556297302,0.0147142158821225,0.1484484881275015,0.1698293249030842,2.186388511612668,-7.976455688476562,-21.653715133666992,-34.26568603515625,-0.03078008232753071,1014.5368245593263
3.149945556640625,0.5028732417866587,-0.085862027811259,0.9273457315534352,-0.3524540364742279,-0.2227782905101776,0.2269551008939743,0.1454895302039075,0.1676689797805995,2.188125419654084,-8.32800006866455,-21.30455780029297,-34.719390869140625,-0.030357255866997043,1014.5367703838217
3.160014404296875,0.0100384328030049,-0.0156159406743943,0.8245797690838574,-0.373725563287735,-0.2321236580610275,0.3980167210102081,0.1423818540554205,0.1647406273537981,2.191955724855658,-8.453509330749512,-21.423131942749023,-34.902862548828125,-0.029934490911476055,1014.5367162161975
3.170084716796875,-0.2395224573463201,0.3385216146282852,0.5466419486254454,-0.3442489206790924,-0.1620998233556747,0.4523103237152099,0.1394480391679825,0.1619974566056506,2.196887811302667,-8.473467826843262,-21.24039459228516,-34.79168701171875,-0.029511664450942388,1014.5366620406929
3.1801533203125,-0.5321630491569638,0.6636503714591264,0.3866629835933446,-0.2186146825551986,-0.0957939997315406,0.4250637888908386,0.137318520177665,0.1600866439125445,2.201796674934659,-8.716341972351074,-21.121416091918945,-34.8765869140625,-0.029088909746256848,1014.5366078743821
3.19022265625,-0.3115177262380719,0.6226603355534375,0.285593888169527,-0.078838400542736,-0.0626885071396827,0.3520364463329315,0.1364724669413989,0.1587179705714022,2.205950388031283,-8.721945762634277,-20.88446044921875,-34.976287841796875,-0.02866612428906496,1014.5365537041312
3.200292236328125,0.4315712158560753,0.7052778284855187,0.2190203520655632,0.0423924215137958,-0.0548570305109024,0.2705240547657013,0.1367977149942691,0.1577436660218047,2.2091062606386966,-9.068780899047852,-20.89511489868164,-34.95355224609375,-0.028243328581037622,1014.5364995325667
3.210361572265625,0.9229825679078698,0.5778922424137592,0.2908919945776462,0.1255861073732376,-0.0849209204316139,0.1957038789987564,0.1380255099101549,0.1567410793010686,2.211300267762692,-9.036534309387209,-20.811538696289062,-34.641998291015625,-0.027820543123845753,1014.5364453623157
3.220431396484375,1.0798980537161231,0.3604368015773594,0.2913479216516018,0.1540470570325851,-0.0917304754257202,0.1330826878547668,0.1397015861147675,0.1556450457178285,2.2127139791062747,-9.29965591430664,-20.72651481628418,-34.55419921875,-0.027397737164982963,1014.536391189438
3.23050048828125,0.9961470267094672,0.2981504412733018,0.4444751210927963,0.1353213191032409,-0.1095070764422416,0.0815736949443817,0.1413312898997363,0.1545376481960381,2.2135516712804733,-9.274421691894531,-20.97927665710449,-34.596923828125,-0.026974961958626545,1014.5363370205004
3.2405693359375,0.6872283770538866,0.3788854814596474,0.58421326212883,0.0888815224170684,-0.161074548959732,0.0477403253316879,0.142541841657733,0.1531363820723248,2.2140161443920823,-9.47628116607666,-20.828767776489254,-34.491668701171875,-0.026552197003105557,1014.5362828528762
3.250639404296875,0.3674684537798166,0.4955604345552623,0.585671644243598,0.0410018861293792,-0.2478581815958023,0.032058835029602,0.1432466140350222,0.1510760416814031,2.2142814814269456,-9.41244411468506,-20.96815299987793,-34.900360107421875,-0.02612938079340732,1014.5362286786849
3.260708251953125,0.3423207146503031,0.6155018421009183,0.4971346981346607,0.0041967630386352,-0.4453816413879394,0.0530796274542808,0.1435325362256441,0.1474505964019524,2.2146702894283594,-9.367193222045898,-20.679065704345703,-34.539093017578125,-0.025706615837886332,1014.5361745110607
3.2707783203125,0.5831523548990488,0.6866776113033294,0.3695961134582757,-0.0519578568637371,-0.4102124869823456,0.0353869199752807,0.1433575956906701,0.1430773893752874,2.2151841102695253,-9.427669525146484,-20.825828552246094,-34.420196533203125,-0.025283799628188115,1014.5361203368695
3.280847412109375,0.5440177376016974,0.4783157236352562,0.2103974851489067,-0.1174750626087188,-0.306199699640274,-0.002523893257603,0.1425337379649458,0.1394095935424769,2.2154735331636486,-9.749285697937012,-20.86197662353516,-34.5517578125,-0.024861024421831676,1014.536066167932
3.290916259765625,0.3184760209433734,0.3813745217964053,0.049657472616434,-0.1872770488262176,-0.2450849264860153,-0.0347912870347499,0.1409794461712244,0.1366594615158482,2.2154914702290656,-9.442648887634276,-20.76193618774414,-34.600616455078125,-0.02443825946631068,1014.5360120003078
3.300986328125,0.2802193555243313,0.3613996552601456,-0.0799766230344772,-0.2300985008478164,-0.2575702965259552,-0.0487578809261322,0.1387992117062914,0.1341552203107149,2.215337008610737,-9.876462936401367,-20.79556655883789,-34.730682373046875,-0.024015443256612465,1014.5359578261166
3.311055419921875,0.3669762863487005,0.3200244194291531,-0.023370354193449,-0.2314167618751526,-0.2671177387237549,-0.052910815924406,0.1363729743323478,0.1315183330281517,2.215135332582342,-9.74460506439209,-20.879430770874023,-34.6768798828125,-0.023592668050256026,1014.535903657179
3.321124267578125,0.3891388721875846,0.26004706671983,0.1609469332814216,-0.1955083459615707,-0.2628471553325653,-0.0616958700120449,0.1341428663523362,0.128883263080686,2.214850108906957,-10.186049461364746,-20.70012092590332,-34.83447265625,-0.023169903094735038,1014.5358494895548
3.3311943359375,0.3311334040731191,0.2648115046426654,0.2849585128754377,-0.1303668916225433,-0.2449669390916824,-0.0808892697095871,0.1324007369590914,0.1263797597747822,2.2143489144810866,-10.122689247131348,-20.71767234802246,-34.53228759765625,-0.02274708688503682,1014.5357953153635
3.341263427734375,0.2690677738476544,0.2950288021214306,0.31458909650743,-0.0543133616447448,-0.2464087307453155,-0.1161315962672233,0.1313376795722149,0.124046924293745,2.2134860670665546,-10.033090591430664,-20.50976181030273,-34.240142822265625,-0.022324311678680382,1014.535741146426
3.35133349609375,0.3491623972386121,0.2473354691848158,0.2516197223752737,0.0184932053089141,-0.2717255353927612,-0.1589118242263794,0.1309879146848721,0.1216335146562983,2.212116457735672,-9.984055519104004,-20.310623168945312,-34.37738037109375,-0.021901495468982166,1014.5356869722348
3.36140234375,0.4268386343762278,0.1337745564565062,0.2016249806284904,0.0909787341952323,-0.291581928730011,-0.2007937878370285,0.131297169631315,0.1190014475090597,2.210251262906068,-10.135618209838867,-20.45945167541504,-34.18585205078125,-0.021478730513461178,1014.5356328046106
3.371471435546875,0.3736615362662822,-0.0895168970569968,0.3115519207686185,0.16505828499794,-0.2401190102100372,-0.2354026287794113,0.1323251482370963,0.1165898939925626,2.2078921974573738,-10.35633659362793,-20.542821884155277,-34.24273681640625,-0.02105595530710474,1014.535578635673
3.381541748046875,0.2288228572208434,-0.2793500253438949,0.4040951799094677,0.2335283458232879,-0.1535923480987548,-0.2441581040620803,0.1340244817486725,0.1149724039146946,2.205217236184712,-10.529122352600098,-20.58936309814453,-34.15869140625,-0.02063312884657107,1014.5355244601684
3.3916103515625,0.1073405769087374,-0.3465728191368281,0.422917953801155,0.2871958613395691,-0.0516800917685031,-0.2197488993406295,0.1363461114759341,0.1142777842677414,2.202553976686886,-10.205135345458984,-20.719432830810547,-34.369354248046875,-0.020210374141885527,1014.5354702938575
3.401680419921875,0.1210622282691299,-0.2181662194542586,0.4654676402390003,0.323776364326477,0.0118227656930685,-0.1726202666759491,0.1391823993199157,0.11445166002799,2.200201658550128,-10.30856227874756,-20.944021224975582,-34.32769775390625,-0.01978755793218731,1014.5354161196664
3.411749267578125,0.2009166862286627,0.0413901411391794,0.5258101729989052,0.3396717011928558,-0.0317156538367271,-0.0887501239776611,0.1423504195586949,0.1146948663235686,2.1984700358349074,-10.233390808105469,-21.222309112548828,-34.17791748046875,-0.019364792976666323,1014.5353619520422
3.421818603515625,0.0699492961473763,0.2940203557312488,0.5314981555074453,0.3525547683238983,-0.1027554050087928,-0.0068411859683692,0.1457313913950157,0.1140719051926491,2.1976004804510336,-10.36896800994873,-21.19928550720215,-34.40966796875,-0.018942007519474433,1014.5353077817912
3.431888427734375,-0.1787201250549405,0.3753706052064895,0.397913860926032,0.3967355489730835,-0.1715416461229324,0.0498141050338745,0.1494746151754047,0.1128281791016408,2.197384923599813,-10.050994873046877,-21.3874626159668,-34.5162353515625,-0.018519201560611667,1014.5352536089134
3.441957275390625,-0.5432151890471577,0.4001847284674644,-0.0363484937101602,0.4463492631912231,-0.2619176506996155,0.0953351035714149,0.1537631198744574,0.1106005284898567,2.197643747261766,-10.498000144958496,-21.606779098510746,-34.16094970703125,-0.01809643660509068,1014.5351994412893
3.45202734375,-0.3869781139571219,0.1761617458090186,-0.3559685701221227,0.4656926095485687,-0.3627148270606994,0.1237547621130943,0.1584727676706868,0.1073702620849124,2.1982656604442963,-10.436986923217772,-21.7606201171875,-33.69659423828125,-0.017673620395392442,1014.535145267098
3.462096435546875,0.0776269911684095,-0.0894534764319658,-0.5142576823711394,0.4035278260707855,-0.3992075324058532,0.1348461210727691,0.1630165762610136,0.1033154287009461,2.19914753348446,-10.513859748840332,-21.850425720214844,-33.915130615234375,-0.017250845189036017,1014.5350910981604
3.472165283203125,0.6487752392146736,-0.210602067810297,-0.3823544727444649,0.2801142632961273,-0.3310308754444122,0.0922605693340301,0.1665647969155935,0.0994281187128804,2.199963510682826,-11.10904598236084,-21.94722366333008,-33.647003173828125,-0.01682808023351503,1014.5350369305362
3.4822353515625,0.7125002540197223,-0.2829839979320764,-0.0869517227441072,0.1300083100795745,-0.2367047816514969,0.0455962903797626,0.1686893913886581,0.096542146053883,2.2004313368032715,-11.388540267944336,-22.26715850830078,-34.02386474609375,-0.01640526402381679,1014.534982756345
3.492304443359375,0.430415689145401,-0.3464693587623536,0.1759381661862135,-0.0332115031778812,-0.2421991527080536,0.044995479285717,0.1692116288194067,0.0941733725136365,2.2008189712240878,-11.463611602783203,-21.9999942779541,-33.764434814453125,-0.015982488817460373,1014.5349285874074
3.502373291015625,0.131495432543382,-0.2613948280669748,0.2876373766958713,-0.1952568888664245,-0.3734807968139648,0.0665474906563758,0.1681055226103852,0.0909323162391375,2.201468781374436,-11.211543083190918,-21.942012786865234,-33.82177734375,-0.0158538818359375,1014.534912109375
3.512443359375,0.2074331554505974,-0.0734236942596733,0.4496989932209253,-0.3476245999336242,-0.4956109821796417,0.1145416498184204,0.1654313320993295,0.0863798773532474,2.20262669992949,-11.12769603729248,-21.737842559814453,-33.422119140625,-0.0158538818359375,1014.534912109375
3.522512451171875,0.588201966438815,-0.1027440428987145,0.6716477999538183,-0.4763248264789581,-0.6178621053695679,0.1569521427154541,0.1613495070902401,0.0804636088128275,2.204367709461444,-11.601754188537598,-21.632762908935547,-33.464935302734375,-0.0158538818359375,1014.534912109375
3.53258251953125,0.7118178247135132,-0.206728441247344,0.6795195562422275,-0.5508347749710083,-0.71370929479599,0.1903838664293289,0.1562668203746676,0.0734091596440029,2.2065358962225634,-11.65201187133789,-21.5811767578125,-33.5374755859375,-0.0158538818359375,1014.534912109375
3.5426513671875,0.7461771173678338,-0.2139168914467096,0.7029729125440121,-0.5751897692680359,-0.8172865509986877,0.2147275358438491,0.1507076980518851,0.0653533879296583,2.20898618506209,-11.862312316894531,-21.21320915222168,-33.270355224609375,-0.0158538818359375,1014.534912109375
3.552720458984375,0.6677977734621614,-0.1974623079910874,0.6034405251681805,-0.5620678663253784,-0.9627023339271544,0.2286798357963562,0.1450761709416592,0.0560566523416715,2.21159740675355,-12.13891315460205,-21.275814056396484,-33.478973388671875,-0.0158538818359375,1014.534912109375
3.562790283203125,0.6820102770794183,-0.1996688781246542,0.4439338538229465,-0.4660564959049225,-1.036792874336243,0.2295906990766525,0.1399622862456671,0.0455855028782109,2.2141933041780923,-12.581740379333496,-20.9383487701416,-33.199554443359375,-0.0158538818359375,1014.534912109375
3.572859375,0.7636965535759925,-0.476214367441833,0.2877221323698758,-0.351962149143219,-1.180289626121521,0.1937149912118911,0.1359091729972836,0.0341557599109715,2.216529425438794,-12.854668617248535,-20.61582946777344,-33.6815185546875,-0.0158538818359375,1014.534912109375
3.582929443359375,0.4875609602339565,-0.5989562193609774,0.1777542756974697,-0.2382097691297531,-1.3387187719345093,0.1350140571594238,0.1329641941321267,0.0212265663994355,2.2182962921858778,-13.432114601135254,-20.467185974121094,-32.978424072265625,-0.0158538818359375,1014.534912109375
3.592998291015625,0.2856643413235433,-0.6192451202824711,0.2435948213517665,-0.130900353193283,-1.425655722618103,0.0777289345860481,0.131108033140988,0.0071254056557955,2.219405784174678,-14.280779838562012,-20.266925811767575,-32.7725830078125,-0.0158538818359375,1014.534912109375
3.6030673828125,0.2307734798319637,-0.5947855095475911,0.1985807906270027,-0.0662651434540748,-1.458672046661377,0.0182349160313606,0.130130125989794,-0.0074823976542503,2.2198990607834337,-14.5415678024292,-20.288066864013672,-33.16729736328125,-0.0158538818359375,1014.534912109375
3.613137451171875,0.083964907219354,-0.501653052341938,0.1833808834075927,-0.0382614731788635,-1.4586535692214966,-0.0650109723210334,0.1295974975945329,-0.0221313833273849,2.219622703893127,-15.271262168884276,-20.0578727722168,-32.7674560546875,-0.0158538818359375,1014.534912109375
3.623206298828125,-0.1317399088237434,-0.6246541397191584,0.2404769815921783,0.0188114568591117,-1.3329594135284424,-0.0615034587681293,0.1294591104200062,-0.0361779825698531,2.218937227045945,-15.692948341369627,-20.071029663085938,-32.390228271484375,-0.0158538818359375,1014.534912109375
3.633275390625,-0.1847832975514233,-0.8291881396621466,0.2497282095402479,0.0531454645097255,-1.0207821130752563,-0.1545124948024749,0.1299074856736567,-0.048017007415724,2.217960645300646,-16.465412139892578,-20.31195640563965,-32.57012939453125,-0.0158538818359375,1014.534912109375
3.643345458984375,-0.187578992684558,-0.5478061700992286,0.5565548553526402,-0.0165449790656566,-0.6718252301216125,-0.2941271662712097,0.1302525382398112,-0.0561759966061111,2.215991104561432,-16.94448471069336,-20.4529972076416,-32.392303466796875,-0.0158538818359375,1014.534912109375
3.653414306640625,0.284522642208822,-0.795489429808408,0.6255611715614795,-0.3346787691116333,-0.3545255362987518,-0.2271840870380401,0.1287257805036379,-0.0610963388571161,2.2130982203094085,-16.93572998046875,-20.2291259765625,-32.407440185546875,-0.0158538818359375,1014.534912109375
3.663484375,0.2819335390310734,-1.2698068775877356,0.4947743987441063,-0.4490630030632019,0.1722258180379867,-0.1048350110650062,0.1247452784724475,-0.0618310235974229,2.2112494720500173,-16.895706176757812,-20.299325942993164,-32.233917236328125,-0.0158538818359375,1014.534912109375
3.673553466796875,0.5245248824287205,-1.024421665687859,0.920816622045636,-0.4032278656959533,0.4445247054100036,-0.1231706067919731,0.1204383974395572,-0.0583212188672903,2.209862078607875,-16.83940887451172,-20.11271095275879,-32.3057861328125,-0.0158538818359375,1014.534912109375
3.683622314453125,0.2154639747582376,-0.8199316510170698,0.435840563738346,-0.2742787003517151,0.5401683449745178,-0.1524713188409805,0.1170510168261857,-0.0531520019960628,2.208256195562305,-16.536579132080078,-19.987716674804688,-32.548736572265625,-0.0158538818359375,1014.534912109375
3.6936923828125,-0.1124025730060413,-0.705182989808917,-0.0960416226506233,-0.1116724610328674,0.6774292588233948,-0.1902115046977996,0.1152205084125979,-0.0468030519978904,2.206425296087905,-16.423656463623047,-19.93246078491211,-32.575927734375,-0.0158538818359375,1014.534912109375
3.703761474609375,-0.1921758920207619,-0.4421593184310942,-0.3101929073750972,0.0083857141435146,0.7211138606071472,-0.2411653697490692,0.1148171083383486,-0.039373421980044,2.204241550738599,-15.978358268737791,-20.011070251464844,-32.947662353515625,-0.0158538818359375,1014.534912109375
3.71383154296875,-0.2839521488444879,-0.726483259730041,0.0200309806376695,0.0715851858258247,0.6292534470558167,-0.2791745364665985,0.1153227267394207,-0.0322387450753869,2.201588443279473,-15.923165321350098,-19.848678588867188,-32.809295654296875,-0.0158538818359375,1014.534912109375
3.723900390625,-0.225515394906979,-0.9245502556160092,0.2055617355555296,0.1262343078851699,0.5672576427459717,-0.2761833965778351,0.1163881495252347,-0.0259340029068776,2.198774358681948,-15.495673179626465,-19.71424865722656,-32.95831298828125,-0.0158538818359375,1014.534912109375
3.733969482421875,-0.0237918492748402,-0.801314628830552,0.2307803479641675,0.1773827075958252,0.504406750202179,-0.251088947057724,0.1179638926697204,-0.0202071570998291,2.1961415192480827,-15.2210054397583,-19.923791885375977,-33.012237548828125,-0.0158538818359375,1014.534912109375
3.744039306640625,0.0968034921349026,-0.5747855816353112,0.1336076754570007,0.2275434136390686,0.4228838980197906,-0.2188605815172195,0.1200362232661191,-0.0152304098281885,2.193767156930601,-15.009133338928224,-19.978899002075195,-32.88470458984375,-0.0158538818359375,1014.534912109375
3.7541083984375,0.1025102250096853,-0.5158279273625463,0.0025403321325778,0.2747274041175842,0.333345502614975,-0.2023085057735443,0.1226033537310097,-0.0112088904805301,2.1917094238502663,-14.83361530303955,-20.28034210205078,-32.7928466796875,-0.0158538818359375,1014.534912109375
3.764177490234375,0.1135741375360637,-0.536494210229069,-0.0438280358105897,0.3032422065734863,0.2722556293010711,-0.2336911559104919,0.1255540682029075,-0.0078898631445427,2.18955011186794,-14.67164134979248,-20.21628189086914,-33.114166259765625,-0.0158538818359375,1014.534912109375
3.774247314453125,0.0899563113875687,-0.6416719100154936,-0.0237286661118268,0.3082300424575805,0.1980216056108474,-0.2781433165073395,0.1286632191520762,-0.005187571192236,2.1869923304049026,-14.642996788024902,-20.348613739013672,-33.1866455078125,-0.0158538818359375,1014.534912109375
3.78431640625,0.1070959636310581,-0.7440566180825233,-0.0940951647579669,0.2858920991420746,0.0911751165986061,-0.3161598443984985,0.1316915002402796,-0.0033201096751002,2.183990722911674,-14.204808235168455,-20.634767532348636,-32.941436767578125,-0.0158538818359375,1014.534912109375
3.794386474609375,0.1618144002983346,-0.7038857896052301,-0.2272428214877843,0.2357639521360397,-0.0370065569877624,-0.3493646681308746,0.1343309889654947,-0.0025771660939547,2.180610242144223,-14.11398983001709,-20.736820220947266,-32.5477294921875,-0.0158538818359375,1014.534912109375
3.804455322265625,0.2197540366349741,-0.5896110295191407,-0.3849246154934168,0.1577581614255905,-0.1676658689975738,-0.3639248013496399,0.1363279630918643,-0.0031354016800441,2.177009567881558,-14.078198432922363,-20.94303131103516,-32.808349609375,-0.0158538818359375,1014.534912109375
3.8145244140625,0.248424817057792,-0.3570025893449783,-0.474869674834609,0.0531955361366272,-0.2256591171026229,-0.3669150173664093,0.1374135333963831,-0.0046393368187446,2.173262011479579,-13.98991870880127,-20.883893966674805,-32.83544921875,-0.0158538818359375,1014.534912109375
3.824594482421875,0.1814671404744498,-0.0441420701958239,-0.6448270130455493,-0.0819526687264442,-0.3007688820362091,-0.3438935875892639,0.1373024170020656,-0.0067732511736786,2.169636764313822,-13.840458869934082,-21.029634475708008,-32.59930419921875,-0.0158538818359375,1014.534912109375
3.834663330078125,0.2780345588311553,0.209709649015218,-0.9144979404181242,-0.2363275736570358,-0.3444401919841766,-0.3212732076644897,0.135692046717098,-0.0096261786214212,2.166237234708648,-13.997149467468262,-20.96430015563965,-32.21441650390625,-0.0158538818359375,1014.534912109375
3.8447333984375,0.3793106480691581,0.4532841582313179,-1.1447867054730654,-0.3774462342262268,-0.2871802449226379,-0.2946187555789947,0.1326089519587251,-0.0124211058902943,2.163079194861636,-14.159375190734863,-20.68386459350586,-32.321624755859375,-0.0158538818359375,1014.534912109375
3.854802490234375,0.1885061539994552,0.6623578474305569,-1.5598130292415615,-0.4928079843521118,-0.1831992417573928,-0.2620866596698761,0.1282414296198977,-0.0144433084302266,2.1601811933836523,-14.169939994812012,-20.54632568359375,-32.22064208984375,-0.0158538818359375,1014.534912109375
3.864871337890625,-0.0596230593789368,0.7730866785380989,-1.931930185610056,-0.5716660022735596,-0.0231709033250808,-0.2425498068332672,0.1228889234066625,-0.0151839096797597,2.1575338041853698,-14.102679252624512,-20.360132217407227,-32.61224365234375,-0.0158538818359375,1014.534912109375
3.87494140625,-0.2056955362693406,0.7916448832094669,-2.089388107731938,-0.5838590264320374,0.1540257185697555,-0.2364900559186935,0.1170489179001524,-0.0142025036191448,2.1550229896725828,-14.062785148620604,-20.2827091217041,-32.6461181640625,-0.0158538818359375,1014.534912109375
3.885010498046875,-0.3543916761942207,0.7037896357543766,-2.1427064409434795,-0.5145542621612549,0.281057745218277,-0.238302931189537,0.1114871248634232,-0.0116796309164931,2.1525324633775647,-14.067793846130373,-20.126407623291016,-32.98651123046875,-0.0158538818359375,1014.534912109375
3.895079345703125,-0.4115819920009002,0.5108988003972917,-2.0343623860806224,-0.3681432604789734,0.3370682895183563,-0.2239263951778412,0.107034708710152,-0.0082485125502658,2.150109180283968,-13.876093864440918,-19.928136825561523,-33.083984375,-0.0158538818359375,1014.534912109375
3.9051494140625,-0.3285380903502926,0.2821431631937622,-1.7181471496760845,-0.1990427672863006,0.333003968000412,-0.2048353403806686,0.104184799477384,-0.0046247259114002,2.147952571043354,-13.71996021270752,-20.020896911621094,-33.263275146484375,-0.0158538818359375,1014.534912109375
3.915218505859375,-0.2028869633883237,0.244275643222779,-1.2759732912629842,-0.0457730516791343,0.2803663313388824,-0.1923088878393173,0.1029565766393875,-0.0012754402183545,2.1459252779192184,-13.378870964050291,-19.94529914855957,-32.749664306640625,-0.0158538818359375,1014.534912109375
3.925288330078125,-0.1367717837774194,0.2289197417240589,-0.8423346214830875,0.0734259709715843,0.1906195878982544,-0.1604779362678527,0.1031157987824713,0.0012888902138347,2.144126192945705,-13.259535789489746,-19.79927444458008,-33.282928466796875,-0.0158538818359375,1014.534912109375
3.935357421875,0.0041062502920278,0.1246255467738956,-0.4841805240154266,0.1352541893720626,0.1229388043284416,-0.1162092760205268,0.1041900003733932,0.0030156045766925,2.1427077998733943,-13.436774253845217,-19.99908828735352,-33.168365478515625,-0.0158538818359375,1014.534912109375
3.945426513671875,0.1140682046633213,0.0547279808137565,-0.1150175412774086,0.1397566348314285,0.0962877050042152,-0.067408986389637,0.1055998536787934,0.004199791261476,2.1417624075201576,-13.2370023727417,-19.930849075317383,-33.10064697265625,-0.0158538818359375,1014.534912109375
3.955496337890625,0.1423564703082665,0.0268252438876777,0.1772246988654136,0.1058740392327308,0.0956038013100624,-0.0206960756331682,0.1068509710027799,0.0051971806280775,2.1413102490258997,-13.37899112701416,-19.776342391967773,-32.903778076171875,-0.0158538818359375,1014.534912109375
3.9655654296875,0.1055266958871856,0.0822367499861866,0.3430003674775362,0.0572170913219451,0.133105456829071,0.0318898521363735,0.1076690319823973,0.0063046268825992,2.1413667386700426,-13.165888786315918,-19.911073684692383,-33.065826416015625,-0.0158538818359375,1014.534912109375
3.975634521484375,0.1053855612502899,0.1327582920860499,0.430437827911973,0.0003727152943611,0.2060755342245102,0.0567099787294864,0.107939559756946,0.0079462311335259,2.1418216758919053,-12.981003761291504,-19.850128173828125,-32.858367919921875,-0.0158538818359375,1014.534912109375
3.985704345703125,0.1029026035944465,0.225767342107743,0.4742869065105914,-0.0402470380067825,0.2780902683734894,0.0621942169964313,0.1077333055756246,0.0103341599657906,2.1424390592454707,-13.057541847229004,-19.919553756713867,-32.40081787109375,-0.0158538818359375,1014.534912109375
3.9957734375,0.0851071817228104,0.2486394644554704,0.3748544723778962,-0.0665268376469612,0.3186004161834717,0.0614922083914279,0.1071938561554617,0.0132945426729901,2.143079951863338,-12.94919490814209,-19.654613494873047,-32.427154541015625,-0.0158538818359375,1014.534912109375
4.005843505859375,0.1305598869926296,0.2761753408305347,0.191157362627983,-0.058894108980894,0.3323843479156494,0.0576495006680488,0.1065495719705306,0.0165050630268779,2.1436895791400885,-12.856398582458496,-19.924131393432617,-32.6114501953125,-0.0158538818359375,1014.534912109375
4.015912109375,0.1552773997450247,0.3677079616241157,0.2051496476233005,-0.0428110137581825,0.3355132937431335,0.0344826616346836,0.1060538477420795,0.0198318068145976,2.144174743598376,-12.976656913757324,-19.74698829650879,-32.728912353515625,-0.0158538818359375,1014.534912109375
4.0259814453125,0.169513613031432,0.5584112238090485,0.268922739353776,-0.0401652976870536,0.3287928104400635,0.014364224858582,0.105646197489067,0.0231439761340229,2.144423562267111,-12.6183443069458,-19.702423095703125,-32.84600830078125,-0.0158538818359375,1014.534912109375
4.03605126953125,0.1339142389218323,0.7473758986983448,0.2426023031830787,-0.0555533058941364,0.3094137907028198,0.0029829386621713,0.1051676949854843,0.0263644613959436,2.144511509863564,-12.51293659210205,-19.664119720458984,-32.9638671875,-0.0158538818359375,1014.534912109375
4.046120361328125,0.0559558055756613,0.8698903716024011,0.1855652417093515,-0.063811644911766,0.2750823497772217,-0.0253091175109148,0.1045500113835437,0.0293400838933641,2.144426853758351,-12.530028343200684,-19.807580947875977,-33.288299560546875,-0.0158538818359375,1014.534912109375
4.0561904296875,-0.0296764320677146,0.9276019713368266,0.1815554215461015,-0.0552940629422664,0.2234702557325363,-0.0723440051078796,0.1039160076256865,0.0319054280146876,2.143970636569174,-12.402373313903809,-19.62116241455078,-33.10498046875,-0.0158538818359375,1014.534912109375
4.066259521484375,-0.0819266245910897,0.9920794850096106,0.1698041934758424,-0.0195846110582351,0.1559194177389145,-0.1368199437856674,0.1035001284523894,0.0339328779848926,2.1429328577245434,-12.088818550109863,-19.734323501586918,-33.099945068359375,-0.0158538818359375,1014.534912109375
4.076327880859375,-0.1175589693885296,1.0708668982595204,0.1525952845215797,0.0290159471333026,0.0875606089830398,-0.2067854404449463,0.1034774491836085,0.0353315591305751,2.141192363233746,-12.118781089782717,-19.99151992797852,-33.01116943359375,-0.0158538818359375,1014.534912109375
4.08639794921875,-0.1565981269547715,1.1341847935684024,0.2167085679918527,0.0654928833246231,0.0270185768604278,-0.2757035493850708,0.1038631419551818,0.0361602791812026,2.138717739591233,-11.92226219177246,-19.74941062927246,-32.974212646484375,-0.0158538818359375,1014.534912109375
4.096466796875,-0.1915032899888232,1.17387675248757,0.3280722629368305,0.0756933242082595,-0.0254512894898653,-0.3309252560138702,0.1044500409947113,0.0364889677217285,2.135600809884155,-11.958331108093262,-19.93456268310547,-33.132598876953125,-0.0158538818359375,1014.534912109375
4.106535888671875,-0.2509619891189039,1.1684119112104177,0.4298813630729913,0.0611120983958244,-0.0660616904497146,-0.3577355146408081,0.1050097386861757,0.036404386089888,2.1320775809501145,-12.029976844787598,-19.797048568725582,-33.151519775390625,-0.0158538818359375,1014.534912109375
4.116605712890625,-0.3216025919986888,1.1110869727060195,0.4962485629498958,0.0387577936053276,-0.0980518534779548,-0.3677726984024048,0.10537657414496,0.0359617291945691,2.128381622486087,-11.913077354431152,-19.86584854125977,-33.177703857421875,-0.0158538818359375,1014.534912109375
4.126675048828125,-0.453147270511277,1.0399486859697848,0.4592892438650131,0.007003572769463,-0.1249832138419151,-0.3645810186862945,0.105477792222738,0.0352264877000519,2.124664672378127,-11.801648139953612,-19.81241226196289,-33.230621337890625,-0.0158538818359375,1014.534912109375
4.13674462890625,-0.5893839427649974,0.9784425893232226,0.3626350422739982,-0.0297967866063117,-0.1584210693836212,-0.3521011769771576,0.1052317737257748,0.0341730408791121,2.1210245980076694,-11.948410987854004,-19.76588630676269,-33.255035400390625,-0.0158538818359375,1014.534912109375
4.14681396484375,-0.6627377866588533,0.9074228874653576,0.2337058800220489,-0.0725396871566772,-0.1846950948238372,-0.3213891088962555,0.1045933244378674,0.0327923550930973,2.117618635741256,-11.862817764282228,-19.75882148742676,-32.973907470703125,-0.0158538818359375,1014.534912109375
4.156882568359375,-0.6655820701740681,0.7894966921996325,0.1116787522435188,-0.1159803792834281,-0.1906035840511322,-0.2861000895500183,0.1035335310479669,0.0312079214855124,2.1145680573122254,-12.00062084197998,-19.99148368835449,-32.97515869140625,-0.0158538818359375,1014.534912109375
4.166952880859375,-0.6384156846985221,0.6552431931197643,0.0561503417670726,-0.1573105156421661,-0.1692924946546554,-0.254989743232727,0.1020733223640737,0.0296448858851567,2.1118860586073414,-11.95469570159912,-19.761201858520508,-33.39971923828125,-0.0158538818359375,1014.534912109375
4.177021728515625,-0.6227304051149636,0.5480981387831271,0.0040174189478158,-0.1986355781555175,-0.1242704167962074,-0.2264286577701568,0.100217057902776,0.0284146581886406,2.1094952867552994,-11.478164672851562,-19.394926071166992,-33.28179931640625,-0.0158538818359375,1014.534912109375
4.187091064453125,-0.603568608527258,0.4953015644233673,-0.0413595998704433,-0.2210633009672165,-0.0867769569158554,-0.1918202340602874,0.098026902657286,0.0275640226524975,2.107422444841025,-11.888120651245115,-19.68856811523437,-33.1058349609375,-0.0158538818359375,1014.534912109375
4.19716064453125,-0.5745051572587341,0.4487998524241149,-0.1144090539902448,-0.2353040277957916,-0.0461432449519634,-0.1531388908624649,0.0956696331014603,0.0270635420134277,2.105737021505698,-11.837237358093262,-19.736631393432617,-33.132049560546875,-0.0158538818359375,1014.534912109375
4.20722998046875,-0.5406141397032886,0.4503673209365457,-0.1594762762069702,-0.2245759516954422,0.003794667776674,-0.1117028445005416,0.0933012051443502,0.0269580111385894,2.104457630363184,-11.693489074707031,-19.793537139892575,-33.24322509765625,-0.0158538818359375,1014.534912109375
4.2172998046875,-0.5495835550352931,0.4589077702667564,-0.1341413439422845,-0.1961906552314758,0.0600832365453243,-0.0713101476430893,0.0911416624368548,0.027365570849767,2.1035824608224702,-11.830223083496094,-19.47183990478516,-33.0726318359375,-0.0158538818359375,1014.534912109375
