Timestamp,Acc x (m/s^2),Acc y (m/s^2),Acc z (m/s^2),Gyro x (rad/s),Gyro y (rad/s),Gyro z (rad/s),Beccheggio/Pitch (rad/s),Rollio/Roll (rad/s),Imbardata/Yaw (rad/s),Mag x (microTesla),Mag y (microTesla),Mag z (microTesla),Altitudine (m),Pressione (milliBar)
0.032539306640625,-0.4398191119804978,-0.018182868552953,0.1422948397815227,-0.1150211244821548,0.0815199092030525,-0.0997192710638046,0.1319204890976883,0.1475213003085404,2.0427233370713087,-5.862493515014648,-22.81671905517578,-38.10919189453125,0.0,1011.9933426972577
0.04260693359375,-0.3290368701852857,0.0918754428818821,0.0192313546925783,-0.0607112683355808,0.0525308661162853,-0.1258134543895721,0.1308969504031517,0.1483673425602048,2.041696431011912,-5.891157150268555,-22.94519805908203,-38.26031494140625,0.0,1011.9933442282576
0.0526748046875,-0.172346133043617,0.1384578919671475,-0.0107253921538591,-0.0185075905174016,0.0204744804650545,-0.1271615177392959,0.1303783379449026,0.1489463856525732,2.040454784875788,-5.822561264038086,-23.26915740966797,-38.6356201171875,0.0,1011.9933457592945
0.062742919921875,-0.0124589379481971,0.1208735738292336,0.0480547135949134,0.0038073025643825,-0.0278222113847732,-0.1054168120026588,0.1302165633078436,0.1491066532629353,2.0392887456813766,-5.821939468383789,-24.11564826965332,-38.91571044921875,0.0,1011.9933472903685
0.07281201171875,0.0763553637973964,0.09936272989735,0.1610854649692773,-0.0018141437321901,-0.0843145996332168,-0.0802803039550781,0.1301895626717591,0.148677733965804,2.0383572011705997,-5.945582389831543,-24.3630313873291,-38.9237060546875,0.0,1011.9933488215911
0.082880126953125,0.1471504631191492,0.0659055737145245,0.2579460027873516,-0.0314167775213718,-0.1365407854318618,-0.0592096410691738,0.130057416323772,0.1476154009797952,2.0377085877795027,-6.0881853103637695,-24.210128784179688,-39.2142333984375,0.0,1011.9933503526652
0.092947998046875,0.207466984654963,0.0332132644243538,0.2690367211222648,-0.0714655965566635,-0.1725268959999084,-0.0436779297888278,0.1295884321801828,0.1460183675145355,2.037291499733065,-6.063908576965332,-24.076250076293945,-38.89007568359375,0.0,1011.9933518837021
0.10301708984375,0.2146514893315732,0.0269525965943932,0.2603331901848316,-0.1085666269063949,-0.1841265559196472,-0.0316090174019336,0.1286984718573942,0.1441663496342868,2.037050915473072,-5.98277473449707,-24.37257194519043,-38.862396240234375,0.0,1011.9933534149247
0.1130849609375,0.1781970510289073,0.0707623660959303,0.1827653818577528,-0.1387145519256591,-0.1863365173339843,-0.0185636393725872,0.1274334215455262,0.1422094887349851,2.036989891031586,-6.051668167114258,-24.30304336547852,-38.84735107421875,0.0,1011.9933549459616
0.123153076171875,0.1340532272674143,0.1263508361965417,0.0327723887890577,-0.1503720134496688,-0.1747288703918457,-0.0017987752798944,0.1259488454471369,0.1403027061696992,2.0370949243028957,-6.260286331176758,-24.12796401977539,-38.558197021484375,0.0,1011.9933564770357
0.133221923828125,0.0620706717267632,0.1693846528895199,-0.0735083038032054,-0.1362958401441574,-0.1456704884767532,0.0263721905648708,0.1245122331019922,0.1386318611854528,2.037421752330845,-6.138182640075684,-23.969074249267575,-38.70864868164063,0.0,1011.9933580082211
0.1432900390625,0.0434501424089074,0.2064358149763196,-0.1379337219625711,-0.10701385140419,-0.1380498558282852,0.0502908378839492,0.1233375409964002,0.1371745837577824,2.037970463531303,-6.29386043548584,-23.846391677856445,-38.87423706054688,0.0,1011.9933595392952
0.15335791015625,0.0188115218453109,0.2266393026366829,-0.2532482003599405,-0.0584919154644012,-0.1401804983615875,0.0515876188874244,0.1225844231805474,0.1357752718947961,2.038595478881811,-6.010022163391113,-23.93336296081543,-39.14743041992188,0.0,1011.9933610703322
0.163426025390625,-0.0462993943601846,0.2380233048297464,-0.3135872259885072,-0.0108383735641837,-0.1302168220281601,0.0347638987004756,0.1223088822347273,0.1344537743641908,2.0390645431892627,-6.0448503494262695,-23.808862686157227,-39.568939208984375,0.0,1011.9933626014063
0.1734951171875,-0.0697366763100028,0.2025743903078138,-0.3576099075883627,0.0252280533313751,-0.0917998403310775,0.0085701439529657,0.1224334310068612,0.1334417286986722,2.039247380301674,-6.355542182922363,-23.785425186157227,-39.521575927734375,0.0,1011.9933641326288
0.18356298828125,-0.0510826831139624,0.1609891649879515,-0.3357487889140844,0.0344689562916755,-0.0238245241343975,-0.0035437776241451,0.122773111223217,0.1330027655243358,2.0392011447389278,-6.215463638305664,-23.961410522460938,-38.94189453125,0.0,1011.9933656636657
0.193630859375,-0.001102116023004,0.1426579009402543,-0.2829518492281436,0.0259860977530479,0.0399205684661865,0.0018277200870215,0.1230728506399638,0.1332092084091687,2.0391242156009035,-6.264636993408203,-23.96167755126953,-38.91079711914063,0.0,1011.9933671947026
0.203699951171875,0.0263965701468288,0.1183886982109397,-0.2347662027299404,0.0056989360600709,0.1030729040503501,0.0226467158645391,0.1232083496559972,0.1340062242567918,2.039226337035357,-6.408816337585449,-23.964624404907227,-38.79266357421875,0.0,1011.9933687259253
0.21376806640625,0.0045110476836562,0.1118176492575555,-0.1112093811661004,-0.0270898304879665,0.1535527557134628,0.0432745553553104,0.1230866945454676,0.1352959910475994,2.039579880709718,-6.533478736877441,-23.859479904174805,-38.80230712890625,0.0,1011.9933702569994
0.2238359375,-0.0339069457769393,0.1223720687586814,-0.0149953245580196,-0.0445380620658397,0.1670568585395813,0.0491233877837657,0.122710521925204,0.1368839680943891,2.040081813301982,-6.48546314239502,-23.712949752807617,-38.61148071289063,0.0,1011.9933717880363
0.233905029296875,-0.0713613549023866,0.1012226785503327,0.0016015899777412,-0.056549958884716,0.1434171199798584,0.0493380911648273,0.1221672494101804,0.138384887907507,2.040671354185518,-6.319311141967773,-23.88197898864746,-38.85052490234375,0.0,1011.9933733192588
0.243972900390625,-0.0807194042257964,0.0439454516451805,-0.0306675254642963,-0.0500949919223785,0.0873554572463035,0.0477985180914402,0.1215711989879551,0.1394230157376778,2.041251075586376,-6.419857978820801,-23.619997024536133,-38.9937744140625,0.0,1011.9933748502957
0.254041015625,-0.0852826204881072,-0.0394581501632928,-0.078906363454461,-0.023310050368309,0.0283084791153669,0.044187743216753,0.1211350905315975,0.139842353976704,2.041781869226171,-6.329031944274902,-23.629945755004883,-38.94586181640625,0.0,1011.9933763813698
0.264110107421875,-0.0716658908069133,-0.0864611627481877,-0.1344979022949934,0.0142391892150044,-0.0260777976363897,0.0378323756158351,0.1210718832936023,0.1397326441309439,2.042209549928784,-6.427711486816406,-23.662851333618164,-39.345489501953125,0.0,1011.9933779125925
0.274177734375,-0.0884871156178414,-0.0868316034957766,-0.0968529390335082,0.0431000776588916,-0.0642807036638259,0.0215799901634454,0.121356631352915,0.1392006477575584,2.042482665585697,-6.448079109191895,-23.818294525146484,-39.305908203125,0.0,1011.9933794435922
0.284245849609375,-0.1428051273912191,-0.0612501491241157,-0.0321218159258365,0.0528107620775699,-0.0873114541172981,0.00135488063097,0.1218324919110396,0.138386076661183,2.0425313771318545,-6.3087263107299805,-23.75139808654785,-39.2952880859375,0.0,1011.9933809746663
0.29431396484375,-0.1448445242643356,-0.0726537328004837,0.0013578443497419,0.0538363717496395,-0.0776500031352043,-0.0184818133711814,0.1223058599659629,0.1375502551941512,2.042359968970944,-6.210598945617676,-23.549537658691406,-38.853271484375,0.0,1011.9933825057403
0.304383056640625,-0.1317120709687471,-0.0990631624288856,0.0374719447821378,0.0442782863974571,-0.0502295643091201,-0.0342306792736053,0.1227288130572104,0.1369093141415408,2.042017989568632,-6.238528251647949,-23.780651092529297,-38.627044677734375,0.0,1011.9933840369629
0.314450927734375,-0.1271818801932036,-0.0909929609589278,0.0495469979792833,0.030849240720272,-0.0193681269884109,-0.0425514504313468,0.1230045077689283,0.1365838160648591,2.0415829845415328,-6.162380218505859,-23.863882064819336,-38.85943603515625,0.0,1011.9933855679999
0.324519287109375,-0.1039490347743034,-0.0365326181054115,0.0513297897428274,0.0164069198071956,0.0109247975051403,-0.0439605303108692,0.123142093282425,0.1365821356481815,2.0411144538684787,-6.14461612701416,-24.097322463989254,-38.93902587890625,0.0,1011.993387099111
0.334587890625,-0.0744828479237854,0.0408055461842566,0.063917468637228,-0.0059654703363776,0.0518198013305664,-0.0350555926561355,0.1231395712885683,0.1369093044859834,2.040704946677789,-6.603358268737793,-23.98805809020996,-38.772796630859375,0.0,1011.9933886302593
0.344656005859375,-0.0876100405223667,0.0675813249070197,0.1055868651092052,-0.0284987390041351,0.081714317202568,-0.0221168901771307,0.122954112336939,0.1375848073516703,2.040442634206836,-6.324254989624023,-23.86022186279297,-38.9166259765625,0.0,1011.9933901613334
0.354723876953125,-0.0765589235454797,0.0362021440420299,0.1185907235890626,-0.0392720252275466,0.0927097126841545,-0.0153780272230505,0.1226204674687015,0.1384506166403089,2.040319249546916,-6.316755294799805,-23.844087600708008,-39.26995849609375,0.0,1011.9933916923703
0.36479296875,-0.0267773861579596,-0.0233885474372655,0.0782353323251009,-0.0301253981888294,0.081512451171875,-0.0189218949526548,0.122278655407448,0.1392724288586108,2.040202548649535,-6.219717979431152,-23.913036346435547,-39.26031494140625,0.0,1011.993393223593
0.37486083984375,-0.001605681630969,-0.0539087003201246,0.0178103819787502,-0.0067108049988746,0.067264437675476,-0.0287816766649484,0.122094778718013,0.139964457304811,2.039997756475296,-6.163172721862793,-23.817344665527344,-39.285064697265625,0.0,1011.9933947546299
0.3849287109375,-0.0128401923507452,-0.0170155783392488,0.0425701447039842,0.0149468192830681,0.0503102205693721,-0.0312437694519758,0.1221493531137031,0.140525558543133,2.039677567731486,-6.139230728149414,-23.801942825317383,-39.25485229492188,0.0,1011.9933962856668
0.394998046875,0.0010297814391553,0.0483578612599521,0.0882078602850437,0.030145650729537,0.0035065482370555,-0.0245586428791284,0.1223780797024562,0.1407672289600995,2.0393771866978008,-6.020319938659668,-23.588594436645508,-39.43145751953125,0.0,1011.9933978169265
0.40506640625,0.0564683216750621,0.0607745675016194,0.0871983909815549,0.0262265428900718,-0.0515854656696319,-0.011838587000966,0.1226698649679214,0.1404853041138667,2.0391524714262923,-6.237260818481445,-23.592374801635746,-39.330810546875,0.0,1011.9933993480378
0.415134033203125,0.097145346108824,0.0282183056812733,0.0869657512694597,0.0095631647855043,-0.0841849073767662,-0.007727051153779,0.1228302597256714,0.1397453505076719,2.0390411839230813,-6.2354841232299805,-23.88027000427246,-39.43084716796875,0.0,1011.9934008790375
0.425203369140625,0.0814911192506551,0.0370333341691642,0.0770306327104568,-0.0082374028861522,-0.0897905975580215,-0.0094647631049156,0.1228134807181499,0.1388075678839782,2.038969041677811,-6.015993118286133,-23.70965385437012,-39.104766845703125,0.0,1011.9934024102972
0.435271240234375,0.0453964541710913,0.0863896318819373,0.03149988463521,-0.0214506387710571,-0.0638185665011406,-0.0146059673279523,0.1226265226471583,0.1380004984977036,2.038865533598297,-6.003355026245117,-23.73745346069336,-39.25323486328125,0.0,1011.9934039413341
0.445339111328125,0.0529093140192329,0.1376591428048908,-0.0047112464308738,-0.0388512015342712,-0.0402839481830596,-0.0142144821584224,0.1223286418819444,0.1374800073234967,2.038755207883576,-6.1038970947265625,-23.86827850341797,-39.17926025390625,0.0,1011.9934054723711
0.4554072265625,0.0593183042787015,0.1462022955488413,-0.0177887546688318,-0.0610389560461044,-0.0046426090411841,-0.0076571572571992,0.1218534877436474,0.1372728320255226,2.0387133440070797,-6.191501617431641,-23.832658767700195,-39.305419921875,0.0,1011.9934070034452
0.46547607421875,0.069982467764616,0.1288438951212912,0.0132370827138423,-0.0817426368594169,0.0259896013885736,0.0140521330758929,0.121161696854144,0.1373966916510653,2.0388377184532707,-6.360668182373047,-23.90846443176269,-39.5172119140625,-5.736326284780065e-06,1011.9934083687352
0.475544189453125,0.0969926397651433,0.1007846524592488,0.0221574712723493,-0.0795370191335678,0.031576070934534,0.0350491441786289,0.1203698808668383,0.1376859073632981,2.0391857086533505,-6.301936149597168,-23.8984375,-39.399993896484375,-3.222981487902903e-05,1011.993409133614
0.485612060546875,0.1242456806108355,0.0912154446031898,-0.0365583370685577,-0.0593718327581882,0.0247788876295089,0.0494877398014068,0.1197097709433694,0.137967691534237,2.039706943257072,-6.330761909484863,-23.78323554992676,-39.44683837890625,-5.872266103557113e-05,1011.9934098984743
0.495681396484375,0.1413036367870867,0.0788880971454083,-0.0929261209785938,-0.0271578766405582,0.011745267547667,0.0589004345238208,0.1193504416608347,0.1381324617706779,2.0403089365543576,-6.459478378295898,-23.825910568237305,-39.410247802734375,-8.521936181835445e-05,1011.9934106634458
0.5057490234375,0.1063726086594164,0.0754961896847933,-0.1073503676503896,0.0111074857413768,0.003032736480236,0.0644318163394928,0.1193401746692117,0.1381856223252389,2.040941368608424,-6.193084716796875,-23.64001846313477,-39.37472534179688,-0.00011171156553718952,1011.9934114282875
0.515817138671875,0.0642760728165507,0.076876465062052,-0.0490133294939994,0.0294025857001543,-0.0202835481613874,0.0621453486382961,0.1196202604265296,0.1380711957971618,2.0415525033605544,-6.353543281555176,-23.624902725219727,-39.54425048828125,-0.0001382050541314385,1011.9934121931663
0.52588623046875,0.0515106992676854,0.0649429392274469,-0.0187631526589393,0.035706553608179,-0.0587891265749931,0.0552304536104202,0.119977583748207,0.1376319699764223,2.042094297951288,-6.329807281494141,-23.606103897094727,-39.338226318359375,-0.00016470111247651522,1011.9934129581193
0.535954345703125,0.0820104669496417,0.0128809627525508,-0.0312041165590286,0.0376489534974098,-0.0644930154085159,0.0457552894949913,0.120363059247759,0.1369739632496846,2.042534616988944,-6.36632251739502,-23.760225296020508,-38.949493408203125,-0.0001911946010707639,1011.993413722998
0.546022216796875,0.0842306272171437,-0.0081334759645164,0.0044739305436611,0.0272509083151817,-0.0454266518354415,0.041294228285551,0.1206945078787302,0.1364079609997928,2.0429191684200125,-6.416012763977051,-23.880512237548828,-39.65240478515625,-0.00021768744722730615,1011.9934144878582
0.55609130859375,0.0249180220268666,0.030250834422186,0.0419452908039092,0.0105026643723249,-0.017443286255002,0.0400919802486896,0.1208715074432037,0.1360909239341047,2.043295622557082,-6.371994972229004,-23.74489402770996,-39.75094604492188,-0.0002441835055723826,1011.9934152528112
0.5661591796875,0.0405073669552803,0.0620862346220761,0.0059901803255081,0.0019294153898954,0.007566459942609,0.0475142076611518,0.1209445199495626,0.1360583068095715,2.0437097270452944,-6.172268867492676,-23.82059860229492,-39.4063720703125,-0.00027067635172892455,1011.9934160176714
0.57622705078125,0.0723005354486405,0.0489639373943209,-0.0271042800247669,0.0027151592075824,0.0089321173727512,0.0605123862624168,0.1209953414795351,0.136144985116506,2.044238420201144,-6.328548431396484,-23.73994827270508,-39.36676025390625,-0.00029716919788546676,1011.9934167825317
0.58629541015625,0.0653472091794014,0.0339254312817007,-0.0400859266728162,0.0014632064849138,0.0056266016326844,0.077848769724369,0.1210645206451005,0.1361689027052134,2.0449387983773177,-6.30794620513916,-23.791584014892575,-39.21270751953125,-0.00032366332891742245,1011.993417547429
0.596364013671875,0.0405424382686614,0.027903175317496,-0.0122352121949195,-0.0007220357656478,-0.0048750233836472,0.0863865315914154,0.1211222277529251,0.1361041668886657,2.0457503491305564,-6.190695762634277,-23.895233154296875,-38.96014404296875,-0.0003501581023870852,1011.9934183123448
0.60643212890625,-0.0036526772886514,-0.0141330817054957,-0.0115080669641494,0.0055289352312684,-0.0213972739875316,0.075041726231575,0.121231055073355,0.1359096914642436,2.0465520389230267,-6.528413772583008,-23.96949958801269,-39.003173828125,-0.00037665159098133416,1011.9934190772236
0.6165,-0.0746650726228952,-0.0511387972153723,-0.0089057755112648,-0.0001802295446395,-0.043103389441967,0.0573347024619579,0.1213493808633209,0.1355325250484366,2.0472153838545672,-6.665073394775391,-23.918132781982425,-38.972442626953125,-0.0004031444371378764,1011.9934198420839
0.6265693359375,-0.1237109892122447,-0.0732264181219041,0.0107294838070869,-0.0069297458976507,-0.0485942922532558,0.0371215753257274,0.1213707781353556,0.1350327734295151,2.047691770700535,-6.417510986328125,-23.792409896850582,-39.04244995117188,-0.00042964113792065957,1011.9934206070553
0.63663720703125,-0.1484654912404716,-0.074374930569902,0.0198842656433582,-0.0114815030246973,-0.0284592173993587,0.0197860673069953,0.1212989106737661,0.1346194215961259,2.04797192430913,-6.691353797912598,-24.00493431091309,-39.330963134765625,-0.0004561339840772018,1011.9934213719156
0.646705322265625,-0.1571880191393196,-0.0948937677897512,0.0299783741563558,-0.0077887643128633,-0.0111553277820348,0.0081379329785704,0.1211894166007863,0.1344359998842642,2.0481207654796525,-6.860879898071289,-23.79746437072754,-39.2313232421875,-0.00048262747267145077,1011.9934221367944
0.656774169921875,-0.1316844523094594,-0.0829457019731402,0.017141104415059,-0.0095148654654622,-0.0061230049468576,0.0027292291633784,0.1210794581190764,0.1343963884699114,2.0481845817900486,-6.460162162780762,-23.71385765075684,-38.986419677734375,-0.0005091228885788202,1011.9934229017288
0.66684228515625,-0.1118916643418371,-0.044642567063868,0.032635610666871,-0.0151610327884554,-0.0092173321172595,0.0044693388044834,0.120940697496222,0.1343433803373835,2.048227230069947,-6.541138648986816,-23.8760929107666,-38.56411743164063,-0.0005356163771730692,1011.9934236666076
0.67691015625,-0.08609320621863,-0.0119512806870043,0.0438601845145225,-0.0195788145065307,-0.0095573933795094,0.0070658712647855,0.1207634592414038,0.1342721120069626,2.0483142183504737,-6.542561531066895,-23.90582656860352,-38.83197021484375,-0.0005621092233296111,1011.9934244314678
0.686979248046875,-0.0605063450194895,-0.0187254509970545,0.0329138430863618,-0.0222214683890342,-0.0218034051358699,0.0076522999443113,0.1205748635319881,0.1341140594242174,2.048424153942217,-6.799491882324219,-23.869991302490234,-38.95037841796875,-0.0005886052816746879,1011.9934251964207
0.697047119140625,-0.0346847982816398,-0.0122618810061365,-0.0301829568177461,-0.023188728839159,-0.0292924828827381,0.0136097911745309,0.1203780492248944,0.1337919727411657,2.048552848848009,-6.765606880187988,-23.734542846679688,-39.00579833984375,-0.0006150981278312298,1011.993425961281
0.707114990234375,-0.0559179943159222,0.0128673726186156,-0.0392827935963869,-0.0216883048415184,-0.0194038972258567,0.0140875615179538,0.1202079663563552,0.1334619553005555,2.048730324028573,-6.594614028930664,-23.821407318115234,-38.81536865234375,-0.0006415909739877718,1011.9934267261413
0.717183349609375,-0.0815342277400195,0.0374229910738766,0.0047626843571662,-0.0164448171854019,-0.0207573119550943,0.0159731023013591,0.1200865545706715,0.1331837821527018,2.048914364535687,-6.462887763977051,-23.640832901000977,-38.902862548828125,-0.0006680851050197277,1011.9934274910386
0.727252197265625,-0.0806692814737558,0.0348205534905195,-0.0246083715558052,-0.0109909316524863,-0.0342574082314968,0.0107234790921211,0.1200190569314524,0.1328139402595079,2.049070662370099,-6.434577941894531,-23.554431915283203,-39.027923583984375,-0.0006945805209270971,1011.993428255973
0.7373203125,-0.0551676143400371,0.0203838857285678,-0.0407920291155576,-0.0038601942360401,-0.0386064238846302,0.0053983675315976,0.120011720225173,0.1323731159591513,2.0491563376269823,-6.373064994812012,-23.419906616210938,-39.54608154296875,-0.0007210740095213461,1011.9934290208517
0.74738818359375,-0.0502922633886337,0.0134206225872039,-0.0011585223853588,-0.0044175945222377,-0.0410778373479843,-4.14056703448e-05,0.120003506874129,0.1319298405046389,2.0491782239036573,-6.572273254394531,-23.4029598236084,-39.518096923828125,-0.0007475668556778884,1011.993429785712
0.757457275390625,-0.085479750495404,-0.0020207652378827,0.0488502478867769,-0.0127099240198731,-0.0397716350853443,-0.0091877747327089,0.1199390827865917,0.1314970716381593,2.0491641344359914,-6.391022682189941,-23.71038818359375,-39.399993896484375,-0.0007740629140229648,1011.9934305506649
0.767525146484375,-0.1398662974603474,-0.0242665723808109,0.09155307905972,-0.0295083448290824,-0.0258467644453048,-0.0258690174669027,0.1197290668953094,0.1311752373442889,2.0490145653761624,-6.450343132019043,-23.435518264770508,-39.042877197265625,-0.0008005557601795068,1011.9934313155252
0.77759326171875,-0.1729167725384235,-0.0255477712977677,0.1092944874554872,-0.0387705191969871,-0.0177685115486383,-0.0384540222585201,0.1193362260194427,0.1309964763266345,2.048733841775966,-6.670296669006348,-23.57878303527832,-38.9560546875,-0.0008270492487737558,1011.993432080404
0.787662109375,-0.153119746787101,-0.0126790104396641,0.0918377412199974,-0.0485637560486793,-0.0214471369981765,-0.052815917879343,0.1188290805561021,0.1308288496271024,2.04833629400669,-6.364177703857422,-23.713436126708984,-38.820098876953125,-0.0008535446646811255,1011.9934328453384
0.797730224609375,-0.0944188437543809,-0.0046929801218211,0.0649970805674791,-0.0568633377552032,-0.0257627293467521,-0.0603051781654357,0.1182047221533075,0.130613114981144,2.047828779962887,-6.454219818115234,-23.867982864379883,-38.89010620117188,-0.0008800381532753745,1011.9934336102172
0.807798095703125,-0.0262808348126709,-0.0079780662070959,0.0174497319728136,-0.0631119087338447,-0.0290986038744449,-0.0632325261831283,0.1175139926211093,0.1303799596097967,2.0472884650881733,-6.697948455810547,-23.70812225341797,-39.111602783203125,-0.0009065309994319164,1011.9934343750774
0.817867431640625,-0.0096510409206151,0.0122652420070022,-0.0124164139807224,-0.0631286278367042,-0.0292580053210258,-0.0623854845762252,0.11681158058039,0.13013462889995,2.046732132935687,-6.70998477935791,-23.58243560791016,-39.38351440429688,-0.0009330277002146998,1011.9934351400489
0.827935302734375,0.0307407368309795,0.0593417582195252,-0.0238923322409391,-0.0659172236919403,-0.0257769897580146,-0.0510851591825485,0.116114167102193,0.1298926202377277,2.046248337808591,-6.569733619689941,-23.648401260375977,-39.45037841796875,-0.0009595205463712418,1011.9934359049091
0.8380029296875,0.0610151713244616,0.0681935385212302,-0.0171247378021478,-0.0612132214009761,-0.0066708112135529,-0.0310084726661443,0.1154406309892086,0.1297535407731026,2.0459170648088563,-6.784137725830078,-23.364999771118164,-39.587738037109375,-0.000986012750090077,1011.9934366697508
0.8480712890625,0.0542037377439439,0.0720734486944973,-0.0003027823388576,-0.0483466945588588,-0.0006525996141135,-0.0125138852745294,0.1149019153767635,0.1297069830541204,2.045777070690308,-6.267692565917969,-23.55984878540039,-39.33126831054688,-0.0010125068811220328,1011.9934374346482
0.85814013671875,0.0729201286517083,0.0955843073371797,0.012687632137537,-0.0356785506010055,-0.0124229304492473,-0.0023622997105121,0.1145197440470763,0.1295916010306421,2.0457692182115266,-6.337433815002441,-23.500141143798828,-39.5682373046875,-0.0010390022970294024,1011.9934381995826
0.868208251953125,0.1065583404898643,0.0975241162933409,-0.008315992924571,-0.0315884687006473,-0.0286277346312999,-0.0021809383761137,0.1142119962435243,0.1293113242943979,2.045797947747935,-6.471977233886719,-23.425281524658203,-39.502838134765625,-0.0010654957856236515,1011.9934389644613
0.8782763671875,0.1114373447030782,0.0646618572637438,-0.0065285249859094,-0.0347695238888263,-0.0300800632685422,0.0045446273870766,0.1139107762913881,0.1289877110161862,2.045849479485033,-6.360905647277832,-23.47058486938477,-39.432861328125,-0.0010919892742179004,1011.9934397293401
0.88834521484375,0.0745642425969243,0.067200216634944,-0.0060837038278579,-0.0355863124132156,-0.0306675564497709,0.0070629124529659,0.1136030633694537,0.1286643957475115,2.04595307011227,-6.530879020690918,-23.41196823120117,-39.466217041015625,-0.0011184846901252697,1011.9934404942745
0.8984130859375,-0.0227994224376976,0.0908073021937161,-0.0479611900925636,-0.0429464466869831,-0.0232122242450714,-0.0055540692992508,0.1132154579940461,0.1283902046632439,2.046032344400571,-6.35421085357666,-23.765043258666992,-39.4296875,-0.001144977536281812,1011.9934412591348
0.9084814453125,-0.0731798025012016,0.0818962659854441,-0.0838256996780633,-0.0382459685206413,-0.0044752894900739,-0.0197945237159729,0.1127616592008514,0.1282702778405865,2.045961133380671,-6.355420112609863,-23.66540908813477,-39.57736206054688,-0.0011714716673137677,1011.9934420240321
0.918550048828125,-0.0538768438771367,0.0629461393870413,-0.1252554421752691,-0.0304974280297756,0.0152903292328119,-0.025170587003231,0.1123525780505474,0.1283727225889484,2.045761503045566,-6.371800422668457,-23.247657775878903,-39.518096923828125,-0.0011979664407834306,1011.993442788948
0.9286181640625,-0.0069061261266469,0.0782773448359221,-0.1144774430513382,-0.01673474162817,0.0201210360974073,-0.0147070288658142,0.1120678144824719,0.1286178902874705,2.045575315872472,-6.5348968505859375,-23.55820655822754,-39.0657958984375,-0.0012244599293776794,1011.9934435538268
0.938686279296875,0.0722629799172282,0.1078915618550032,-0.1039642323434352,0.0021631019189953,0.0063214055262506,0.0032655703835189,0.1119588906358875,0.1288010057629603,2.045520863331699,-6.570967674255371,-23.1729793548584,-39.275787353515625,-0.0012509534179719283,1011.9934443187055
0.94875537109375,0.1227133564770221,0.1097245494358241,-0.1148217264443635,0.0184715017676353,-0.0191120486706495,0.0221361964941024,0.1120548542937985,0.1287845895325215,2.045640127947728,-6.470829010009766,-23.28139877319336,-39.23748779296875,-0.0012774494763170049,1011.9934450836585
0.9588232421875,0.1377919754043221,0.0781198892518878,-0.0786298846006393,0.0177058428525924,-0.0438865795731544,0.0326934233307838,0.11226662940073,0.1284970713425425,2.045882972694682,-6.528783798217773,-23.53856658935547,-39.38739013671875,-0.001303942322473547,1011.9934458485187
0.96889111328125,0.1050837378926575,0.057292424474284,-0.0234258837729692,0.005588193424046,-0.046393945813179,0.0370045490562915,0.1124019817127858,0.1280281156108403,2.0462078537204245,-6.815110206604004,-23.62938690185547,-39.223663330078125,-0.001330435168630089,1011.993446613379
0.978960205078125,0.0459160941310226,0.0343958983376622,-0.0139507839411497,-0.0006627207621932,-0.0231956113129854,0.0357627049088478,0.1124324912850437,0.1276013544195938,2.046580737668251,-6.58640193939209,-23.59237098693848,-39.564300537109375,-0.0013569312269751655,1011.9934473783319
0.989028076171875,0.0079093118198215,0.0341088980898261,-0.0480249029785394,0.0043714521452784,0.0064134141430258,0.0310835279524326,0.1124490985430889,0.1274311856118832,2.046920893703526,-6.732861518859863,-23.67929458618164,-39.604827880859375,-0.0013834240731317078,1011.9934481431922
0.99909619140625,-0.0278944074891507,0.0423840475473552,-0.0753285049676895,0.0001202728599309,0.0356962345540523,0.0229482352733612,0.1124690848356294,0.1275904584431157,2.04718986096184,-6.939409255981445,-23.35714530944824,-39.758056640625,-0.0014099175617259564,1011.993448908071
1.009164306640625,-0.0562104013912379,0.0572406212218105,-0.0213566762834787,-0.0076010292395949,0.0538928173482418,0.0199668258428573,0.1124273675703412,0.1280268975182611,2.0474115653063376,-6.604247093200684,-23.534984588623047,-39.577392578125,-0.0014364110503202055,1011.9934496729497
1.019233154296875,-0.0538154690787196,0.0677614307142794,0.0253624047935009,-0.0123964985832571,0.0561279579997062,0.0200341660529375,0.1122939021873614,0.128597750138773,2.047622056161518,-6.519270896911621,-23.70542335510254,-39.02749633789063,-0.0014629064662275754,1011.9934504378841
1.029301025390625,-0.0306765855535864,0.0307139949545264,0.0563940873950719,-0.0162540860474109,0.0286662448197603,0.0154932104051113,0.1121160824937648,0.1290653735659112,2.047804329207884,-6.65233039855957,-23.632667541503903,-39.09356689453125,-0.001489399312384117,1011.9934512027444
1.039369384765625,-0.0141658879965543,-0.0060940790913999,0.067293082550168,-0.0244477167725563,-0.011115332134068,-0.0030158793088048,0.111886040766983,0.1291651683131881,2.047881398443691,-6.705341339111328,-23.568384170532227,-39.02310180664063,-0.0015158934434160727,1011.9934519676417
1.049438232421875,-0.0310113704659044,-0.0111988548845052,0.0424748676359653,-0.0222167856991291,-0.0193032212555408,-0.0101105403155088,0.1116079001877596,0.1290306501735567,2.047840421828516,-6.643831253051758,-23.563644409179688,-39.25924682617188,-0.0015423888593234425,1011.9934527325761
1.05950634765625,-0.0366067062549293,0.0094061993140727,0.0296837751239538,-0.0061765760183334,-0.0147372232750058,-0.005950663704425,0.1114344028885435,0.1288793961119411,2.047780771936832,-6.834176063537598,-23.40749740600586,-39.345977783203125,-0.0015688823479176918,1011.9934534974549
1.06957421875,-0.032680326591432,0.0316533216312527,-0.002064531314373,0.0073376353830099,-0.0016504502855241,-0.0071706576272845,0.1114140217630008,0.1287979808764802,2.047721167790462,-6.892061233520508,-23.48750877380371,-39.349456787109375,-0.0015953751940742333,1011.993454262315
1.079643310546875,-0.0150645904019474,0.0600917728692293,-0.017189619731903,0.0234165415167808,0.0115331653505563,-0.0042280708439648,0.1115376139531814,0.1288195560029978,2.0476573942665053,-6.734240531921387,-23.55180549621582,-39.58981323242188,-0.00162187125241931,1011.993455027268
1.089711181640625,0.0043185938514769,0.0868554958280175,0.0062239890813827,0.0243547745048999,0.0196954868733882,0.0053204270079731,0.1117503665954494,0.1289382199488314,2.047633381203834,-6.573406219482422,-23.77577209472656,-39.708526611328125,-0.0016483640985758524,1011.9934557921283
1.099779296875,-0.0149139298848807,0.0868919553808867,0.0563894112199544,0.0164494756609201,0.0181602127850055,0.0116743240505456,0.111938370232056,0.1291039845393563,2.047702073443124,-6.735177040100098,-23.510202407836918,-39.18450927734375,-0.001674857587170101,1011.9934565570071
1.10984814453125,-0.0105187636658549,0.0906450973693281,0.0804354727178811,-0.0021425830200314,0.0027743317186832,0.0095837414264678,0.1120163942077357,0.1291922373078431,2.047814644622892,-6.8085527420043945,-23.469091415405277,-39.872406005859375,-0.0017013530030774706,1011.9934573219415
1.119916015625,-0.0123930331051349,0.0702056089960038,0.0515314497947692,-0.0169357098639011,-0.007646472658962,0.0067244148813188,0.1119458726306971,0.1291529036942054,2.047918263230113,-6.758252143859863,-23.50718879699707,-39.606353759765625,-0.001727845849234013,1011.9934580868018
1.129984130859375,-0.0119308224208652,0.065139850039035,0.0496013585150241,-0.0272269621491432,-0.0005384958349168,0.0019363178871572,0.1117331464687153,0.1290864762176183,2.047980963713406,-6.606274604797363,-23.355863571166992,-39.201751708984375,-0.0017543393378282616,1011.9934588516804
1.14005224609375,-0.0109789285235106,0.0616875176280736,0.0441886858165264,-0.0271942801773548,0.0088945180177688,0.0033226991072297,0.111455683440848,0.1291078327101737,2.048028176436026,-6.804438591003418,-23.33080673217773,-39.377197265625,-0.001780832826422511,1011.9934596165592
1.150121337890625,-0.0024282500602304,0.0754290427327156,-0.0077630352169275,-0.0155520047992467,0.0157841145992279,0.0069451313465833,0.1112227973759301,0.1292106239956412,2.048121526169975,-6.837292671203613,-23.26027488708496,-39.4490966796875,-0.001807328884767587,1011.9934603815123
1.16018896484375,-0.0104513975180685,0.1098942069143056,-0.0256388836473226,0.0032589025795459,0.0085809426382184,0.0095828352496027,0.1111510039553277,0.1293275179679094,2.048217019276682,-6.618978500366211,-23.24020195007324,-39.34030151367188,-0.0018338210884864222,1011.9934611463539
1.17025732421875,-0.0192234636470675,0.1303711777538061,0.0057850131422281,0.0185861941426992,-0.0019912743009626,0.0127876820042729,0.1112407272513525,0.1293694111511426,2.048318200582273,-6.666059494018555,-23.38705062866211,-39.388580322265625,-0.001860315219518378,1011.9934619112512
1.180326171875,-0.0108078097403049,0.0984479531399905,0.0294318461894989,0.0267031528055667,-0.010887942276895,0.0182403903454542,0.1114658660379311,0.1292915520177225,2.048445584871825,-6.849267959594727,-23.67545890808105,-39.021484375,-0.0018868106354257477,1011.9934626761857
1.190394287109375,-0.0192446525655686,0.0314982772000134,0.0568523525565862,0.0244961902499198,-0.0100983157753944,0.0129492226988077,0.1117205605046106,0.1291618285799807,2.048586852674315,-6.785151481628418,-23.15089607238769,-39.37335205078125,-0.0019133041240199963,1011.9934634410645
1.20046240234375,-0.0622637100808322,-0.0328820597086101,0.0711830757260322,0.0192537475377321,0.005963915027678,0.0020363139919936,0.1119318142698421,0.1291260239278058,2.048637880028311,-6.761384010314941,-23.36174201965332,-39.06512451171875,-0.0019397976126142456,1011.9934642059432
1.21053125,-0.1305325057953596,-0.0413631070017814,0.1442699392467737,-0.0021101301535964,0.0180341601371765,-0.0178921204060316,0.1119828265931543,0.1292696295574236,2.048549870783724,-6.827287673950195,-23.383708953857425,-38.920654296875,-0.0019662930285216152,1011.9934649708777
1.22059912109375,-0.1492535728782415,-0.0393689375098794,0.1869867989450693,-0.0262313894927501,0.0200361870229244,-0.0353377759456634,0.1117882399679739,0.1295007610610646,2.0483120324996857,-6.705959320068359,-23.473926544189453,-38.814544677734375,-0.001992785874678157,1011.9934657357378
1.230667236328125,-0.0965804057024419,-0.0299292743176221,0.1418985339403152,-0.0467523783445358,0.009812575764954,-0.0420950166881084,0.11132889043514,0.1296952724569445,2.0479683622954195,-6.609807014465332,-23.39084815979004,-38.88653564453125,-0.002019279363272406,1011.9934665006166
1.240736328125,-0.0036148294962942,-0.0328569983325898,0.0303624050378799,-0.0408877432346344,-0.0025350141804665,-0.0326524898409843,0.1107674875711541,0.1297448296214634,2.047642402773911,-6.590224266052246,-23.429597854614254,-39.2261962890625,-0.0020457754216174824,1011.9934672655696
1.250803955078125,0.0640736821122467,-0.0007842822454869,-0.0628922172427177,-0.0252166353166103,-0.0197382345795631,-0.0203249864280223,0.1103427758771344,0.1296558496252421,2.047417243068257,-6.435319900512695,-23.411602020263672,-39.30889892578125,-0.0020722676253363175,1011.9934680304112
1.260872314453125,0.0821472450718283,0.0519751019090414,-0.1070522614866495,0.0039924625307321,-0.0516413561999797,-0.0073567610234022,0.110198180032747,0.129316548018805,2.047290537591088,-6.787374496459961,-23.270553588867188,-39.1708984375,-0.0020987617563682738,1011.9934687953086
1.270941162109375,0.071422145178914,0.0976577526103705,-0.1691612193971872,0.0264106877148151,-0.0647153481841087,-0.0088782254606485,0.1103407784952709,0.1287252716842619,2.047187006171466,-6.877333641052246,-23.425729751586918,-39.333099365234375,-0.002125257172275643,1011.993469560243
1.28100927734375,0.0641267274737358,0.0590050736110657,-0.1932850223064422,0.0422643013298511,-0.0564716346561908,-0.0102025754749774,0.1106891496554836,0.1280917815272857,2.047045684860253,-6.7856550216674805,-23.46759033203125,-39.40573120117188,-0.0021517506608698922,1011.9934703251218
1.2910771484375,0.0507708406858146,0.0308401786174625,-0.1521715061515569,0.0450241342186927,-0.0380255170166492,-0.0076733720488846,0.1111617037817905,0.1275916701619552,2.046909921447416,-6.752008438110352,-23.466012954711918,-39.132720947265625,-0.0021782435070264346,1011.993471089982
1.301145263671875,0.0274884570367634,0.0375006594199687,-0.0973521207273006,0.0264544934034347,-0.0258076507598161,-0.0180141516029834,0.1115226826341705,0.1272344940033696,2.046743855870781,-6.810122489929199,-23.39138984680176,-39.0802001953125,-0.0022047369956206832,1011.9934718548608
1.311214111328125,0.0261424492552876,0.0282755888264626,-0.0675239686965942,0.0006215646862983,-0.0040490925312042,-0.0211952961981296,0.1116509027976712,0.1270814631837121,2.046533809616279,-6.725503921508789,-23.365413665771484,-39.516143798828125,-0.002231232411528053,1011.9934726197952
1.3212822265625,0.0268101193837821,0.0292511558603495,-0.0477893406569957,-0.0217475742101669,0.0203112717717885,-0.0200469028204679,0.1115360426672075,0.1271965059429127,2.046334636791609,-6.788923263549805,-23.42709732055664,-39.3524169921875,-0.0022577259001223017,1011.993473384674
1.331350341796875,0.0303996683083474,0.0412387499697506,-0.0366337403923273,-0.0345637686550617,0.0306214336305856,-0.0157301854342222,0.1112306685432918,0.1275173728463352,2.0462002429963184,-6.7643022537231445,-23.361068725585938,-39.29513549804688,-0.002284219388716551,1011.9934741495528
1.341419189453125,0.0646060354232788,0.0516681548517197,-0.0942465559273958,-0.0281241349875926,0.0216262750327587,-0.0057636704295873,0.1108575463019658,0.1278433801598694,2.046119889241154,-6.76479434967041,-23.22739601135254,-39.022552490234375,-0.0023107148046239206,1011.9934749144873
1.351487060546875,0.1171354102142155,0.0556355971779674,-0.1552688876450061,-0.0073938239365816,0.0093807931989431,0.0063174939714372,0.1106197887771843,0.1280250524044633,2.046136166989202,-6.691109657287598,-23.32675170898437,-39.526885986328125,-0.002337207650780462,1011.9934756793474
1.36155517578125,0.1275898764722049,0.0535625902961939,-0.1643412518948316,0.0204001571983099,-0.0048279101029038,0.0183430761098861,0.1106680962735531,0.1280587881806103,2.0462448831226085,-6.677680969238281,-23.20293617248535,-39.184661865234375,-0.0023637011393747116,1011.9934764442262
1.371624267578125,0.1249041445195674,0.0773138335660099,-0.1679202794253826,0.0391874276101589,-0.023669509217143,0.0297539234161376,0.1109709360202999,0.1279075158620576,2.046438109046297,-6.697765350341797,-23.13397789001465,-39.116973876953125,-0.0023901971977197877,1011.9934772091792
1.381692138671875,0.1090158166445791,0.0791398068841546,-0.1701408780843019,0.0513936281204223,-0.036721371114254,0.0330596528947353,0.1114500102058328,0.1275920831872948,2.0466934164731807,-6.771815299987793,-23.46142578125,-39.17669677734375,-0.00241669004387633,1011.9934779740394
1.39176025390625,0.0819344791039824,0.044323710373044,-0.1665671112507581,0.0608326718211174,-0.034707486629486,0.0328439399600029,0.1120539087887549,0.127197962225064,2.0469509469271387,-6.473172187805176,-23.458221435546875,-39.611236572265625,-0.0024431835324705787,1011.9934787389182
1.401829345703125,-0.004625029452145,0.0396038422442972,-0.138976509013772,0.058935634791851,-0.0064298985525965,0.0272617973387241,0.112675168712066,0.1269663822815179,2.04717511843361,-6.825557708740234,-23.513702392578125,-39.29071044921875,-0.0024696795908156553,1011.9934795038712
1.4118974609375,-0.0758121968314051,0.0697680943615734,-0.0674023881435394,0.0467274412512779,0.027595181018114,0.0182797536253929,0.1132062321456522,0.1270627725775379,2.0473105826013147,-6.748967170715332,-23.440711975097656,-39.488372802734375,-0.002496173079409904,1011.9934802687499
1.42196533203125,-0.0694832860708236,0.050495823136717,0.0012017770051956,0.0428094342350959,0.0498638190329074,0.014003811404109,0.1136394224318169,0.1274670829830197,2.0474031573367006,-6.852811813354492,-23.37845802307129,-39.13278198242188,-0.0025226659255664463,1011.9934810336101
1.432034423828125,-0.0331190102696418,-0.0023786387648433,0.0505856933772563,0.0393273495137691,0.0685384348034858,0.0140325743705034,0.1140179975040732,0.128091774219277,2.047480004489553,-6.713277816772461,-23.557435989379883,-39.34146118164063,-0.002549161983911523,1011.9934817985632
1.442102294921875,0.0037831718005239,-0.0314150558959692,0.1365875680506229,0.0421657301485538,0.0773467943072319,0.019314806908369,0.1144012752926484,0.128862308734427,2.0475864077406047,-6.654582977294922,-23.46035385131836,-39.16107177734375,-0.0025756548300680648,1011.9934825634233
1.45217041015625,0.0477079459838569,-0.0592746843326836,0.2298217320650815,0.0373651161789894,0.0633739903569221,0.0210626386106014,0.1147671316267182,0.1296028790207203,2.047734017492613,-6.807392120361328,-23.501930236816406,-39.34259033203125,-0.002602148318662314,1011.9934833283021
1.4622392578125,0.0696180183663964,-0.0827883194543421,0.3071954791247844,0.0259232409298419,0.0205458104610443,0.0163387730717659,0.115056868266438,0.1300499397045486,2.047879473944818,-6.755913734436035,-23.394670486450195,-39.115966796875,-0.0026286437345696837,1011.9934840932366
1.4723076171875,0.0696837770789861,-0.0851037567898631,0.3560995030254125,0.0092742219567298,-0.022444799542427,0.0048847822472453,0.1152031886314368,0.1300608257482258,2.0479778847922456,-6.721013069152832,-23.50439071655273,-39.2939453125,-0.0028304833366321626,1011.9935072779439
1.482375244140625,0.0057918812744319,-0.0689332509726285,0.3499251983046531,-0.008089018985629,-0.0511016584932804,-0.0131682232022285,0.1151581026633937,0.1296570431854708,2.047949677236123,-6.561160087585449,-23.39748764038086,-39.5926513671875,-0.0032284103371294174,1011.9935555347313
1.492443115234375,-0.0745537212029099,-0.0396719390444457,0.3044587476372719,-0.0116062555462121,-0.0551038570702075,-0.0291567780077457,0.114982196847377,0.1290802682533977,2.0477453577391773,-6.782560348510742,-23.69100570678711,-38.89132690429688,-0.003626346987382964,1011.9936037926889
1.502512451171875,-0.106598087978363,-0.0131819915257394,0.2198223160982131,-0.0099935941398143,-0.0414919257164001,-0.0395568832755088,0.1147982913617334,0.1285996381995481,2.0474046607802734,-6.88348388671875,-23.43149757385254,-39.054962158203125,-0.004024341536174316,1011.9936520576678
1.512580322265625,-0.0935557971842586,0.0183182584356516,0.1558639309287071,-0.007982375100255,-0.0255478471517562,-0.0443769395351409,0.1146525337860259,0.1283007470979999,2.0469936797832857,-6.908758163452148,-23.399009704589844,-39.20574951171875,-0.004422278186427871,1011.9937003156253
1.5226484375,-0.0672765698067843,0.0538287669517099,0.1286111823439598,-0.0124363359063863,-0.0093573722988367,-0.040073212236166,0.1145344219760286,0.1281810012196133,2.046556302159538,-6.894577980041504,-23.447433471679688,-39.20770263671875,-0.004820224486437719,1011.9937485747532
1.53271728515625,-0.0337120077267289,0.0741421447273343,0.1336924311310053,-0.0206332802772521,0.0006872727535665,-0.0342057384550571,0.1143616369903273,0.1282201635857341,2.046185117744916,-7.075241088867188,-23.68967628479004,-39.1868896484375,-0.005218199735716468,1011.9937968373918
1.542785400390625,-0.0148757898315787,0.089009239795804,0.1232201369553804,-0.0231766626238822,0.0160623788833618,-0.0255253203213214,0.1141520470674901,0.1284047740930358,2.045908704499544,-6.864315032958984,-23.532791137695312,-39.30029296875,-0.005616146035726317,1011.9938450965195
1.552853271484375,0.0285056712552905,0.0616556611850857,0.0775444274514913,-0.0266606099903583,0.0140522252768278,-0.015250046737492,0.1139247596766291,0.1286350970004512,2.045726756515243,-6.886787414550781,-23.396358489990234,-39.21994018554688,-0.006014082685979872,1011.9938933544771
1.56292236328125,0.025940204681456,0.0475351467002183,0.0509375755548477,-0.0341778770089149,0.0026188273914158,-0.0183427464216947,0.1136427128412457,0.1287415641699238,2.0455970005722754,-6.826889991760254,-23.593923568725582,-39.22186279296875,-0.006412067585014914,1011.9939416182858
1.572990234375,0.0055117491587996,0.0368489905782043,0.0468032522290945,-0.0442864373326301,-0.0131121985614299,-0.0244009047746658,0.1132524251079702,0.1286819025594006,2.0454442238437243,-7.072274208068848,-23.58010482788086,-39.601409912109375,-0.006810004235268469,1011.9939898762434
1.583058349609375,0.0158738609582185,0.0099224052079021,0.0312765972733497,-0.0507607646286487,-0.0298910159617662,-0.034541118890047,0.1127618479576868,0.1284850641698901,2.04522256680431,-6.785519599914551,-23.60123634338379,-39.630950927734375,-0.007207950535278326,1011.9940381353713
1.59312744140625,0.0376909943602979,-0.0236633457906544,0.0017757775008678,-0.0478651113808155,-0.0433101505041122,-0.0425324663519859,0.1122175272077875,0.1281395984445955,2.044910174960492,-6.757329940795898,-23.578737258911133,-39.70501708984375,-0.007605935434313368,1011.99408639918
1.603195556640625,0.0478854945078492,-0.0127897773377597,-0.0500555320233106,-0.0462358370423316,-0.0537610091269016,-0.0514386184513568,0.1116749797817926,0.1276962802019006,2.0445030792121925,-6.599145889282227,-23.461612701416016,-39.28802490234375,-0.008003881734323225,1011.9941346583078
1.613263427734375,0.0901382438257336,0.0352441126648336,-0.1212450374901294,-0.0394833907485008,-0.0681063905358314,-0.0454686097800731,0.1111683136281962,0.1271415644686212,2.04406944039804,-6.683065414428711,-23.432567596435547,-39.22955322265625,-0.008401818384576772,1011.9941829162653
1.623332275390625,0.1338183955982327,0.083669632333517,-0.1736310582876205,-0.0325706079602241,-0.0743682384490966,-0.0339308492839336,0.1107325605808737,0.1264403209588366,2.0437016795583087,-6.55545711517334,-23.33545684814453,-39.528594970703125,-0.008799793633855522,1011.9942311789039
1.633400390625,0.1890320410370826,0.096143767850846,-0.2111930194407701,-0.0273039396852254,-0.0650168135762214,-0.018986253067851,0.1103850283484197,0.1257702769957252,2.0434665898650684,-6.908468246459961,-23.680587768554688,-39.46652221679688,-0.009197739933865377,1011.9942794380318
1.64346826171875,0.2076655029017478,0.0951010538648814,-0.2446931379824876,-0.0196151807904243,-0.0439473427832126,8.414499461650848e-07,0.1101245177787508,0.1252478852480964,2.0434019779168437,-6.750470161437988,-23.340669631958008,-39.312103271484375,-0.009595676584118924,1011.9943276959893
1.653537353515625,0.2092242766510695,0.0853325971096754,-0.2658896552681922,-0.0054194666445255,-0.0109742134809494,0.0123014505952596,0.1099820555048203,0.1249609607925832,2.0434906172638847,-6.764798164367676,-23.26141357421875,-39.5123291015625,-0.009993661483153976,1011.994375959798
1.663605224609375,0.1921765496078878,0.0638801323015242,-0.2426847207695245,0.0049565210938453,0.0284901838749647,0.02114874497056,0.1100071850546663,0.1250530108723751,2.04366829187688,-6.467114448547363,-23.39480209350586,-39.509063720703125,-0.010391598133407532,1011.9944242177556
1.67367333984375,0.169875797407329,0.0035727439202368,-0.1553425374031067,0.006026579067111,0.0532160364091396,0.0215098708868026,0.1101142967324992,0.1254882301428765,2.043880608621649,-6.565146446228027,-23.183422088623047,-39.22628784179688,-0.010789544433417378,1011.9944724768834
1.6837412109375,0.1311776718311011,-0.065099298832938,-0.0814151314049959,-0.0024224109947681,0.0537231713533401,0.0140424668788909,0.1101768963322842,0.1260401701041531,2.044043307122192,-6.404866218566895,-23.283660888671875,-39.06509399414063,-0.011187481083670934,1011.994520734841
1.693810546875,0.1137920911356806,-0.1141675733845681,-0.0059621232748031,-0.0071154329925775,0.0398917756974697,0.003734434954822,0.1101321594034415,0.1265376057622807,2.044136946644474,-6.65667724609375,-23.50539207458496,-39.287353515625,-0.011585475632462277,1011.99456899982
1.70387841796875,0.1141556637510657,-0.129004638640955,0.0600303980708122,-0.0147301750257611,0.02001428976655,-0.006436145864427,0.1099916428936873,0.1269003859914413,2.0441316074741964,-6.712407112121582,-23.45809364318848,-39.2421875,-0.011983412282715832,1011.9946172577776
1.7139462890625,0.1048809087969362,-0.1343294869255274,0.0495890835553407,-0.0183403566479682,-0.0009730160236358,-0.0127915134653449,0.1097677463679743,0.1270671929439733,2.0440513962152145,-6.847078323364258,-23.310585021972656,-38.993743896484375,-0.01238134893296938,1011.9946655157352
1.724015380859375,0.1054912957802414,-0.1100287200141698,0.0053361003309488,-0.0078542474657297,-0.0074401800520718,-0.0150223858654499,0.1095589231265184,0.1270939690244523,2.043921368069153,-6.662175178527832,-23.286962509155277,-39.20965576171875,-0.012779333832004431,1011.9947137795439
1.73408349609375,0.1214883447267115,-0.0981424673873931,-0.0265016379565,0.0109082553535699,-0.0011961325071752,-0.0154831130057573,0.1094888291607106,0.1271254155147571,2.0437642731842227,-6.693952560424805,-23.25232696533203,-39.29095458984375,-0.013177280132014278,1011.9947620386718
1.7441513671875,0.1367258074775338,-0.0819460234113037,-0.0206225167900323,0.0177570115774869,-0.0131855765357613,-0.0112297963351011,0.1095845872881077,0.1271293971272792,2.043613225134738,-6.628984451293945,-23.14491081237793,-39.51632690429688,-0.013575216782267833,1011.9948102966293
1.754220458984375,0.1380320677705109,-0.0542379322744905,-0.0024567455023527,0.0254697911441326,-0.017879132181406,-0.004875760525465,0.1097867292649881,0.1270281016882839,2.043504872080564,-6.447432518005371,-23.099353790283203,-39.220245361328125,-0.013973201681302885,1011.994858560438
1.764288330078125,0.0966094856664538,-0.0706605862218886,0.0312327581316232,0.0280717834830284,-0.0183876305818557,-0.0079354271292686,0.1100669011226952,0.1268899687280283,2.0434038576426063,-6.505215644836426,-23.284088134765625,-38.91769409179688,-0.01437113833155643,1011.9949068183956
1.774356201171875,0.0571593726791441,-0.0850450123399496,0.0715910720050335,0.0187270175665617,-0.0134208360686898,-0.0084715215489268,0.1103566143349344,0.1267955964689129,2.043287939847644,-6.721467971801758,-23.33059501647949,-39.2408447265625,-0.014769074981809986,1011.9949550763532
1.784425537109375,0.0088749419815838,-0.1188836421210318,0.0765460640639066,0.0102293193340301,-0.0097005637362599,-0.0138799082487821,0.1105540802571462,0.1267314366077628,2.0431552929555035,-6.891421318054199,-23.30661964416504,-38.811065673828125,-0.01516706953060133,1011.9950033413321
1.794493408203125,-0.0480579284653067,-0.1219064240083098,0.100044428551197,0.0033594295382499,0.002820820081979,-0.0179273802787065,0.1106431221582844,0.1267709650193944,2.04297953650272,-6.699389457702637,-23.278705596923828,-39.114654541015625,-0.015565006180854884,1011.9950515992897
1.804561279296875,-0.0749418437376618,-0.1091534715496003,0.1061649572581052,0.0016068201512098,0.0045460578985512,-0.0218809619545936,0.1106772884930017,0.1268745172527726,2.042784240817607,-6.9124603271484375,-23.30880355834961,-38.890625,-0.01596294283110844,1011.9950998572473
1.814630126953125,-0.0555514990910887,-0.1078288718823343,0.0867629221737384,0.0023085633292794,-0.0088999755680561,-0.0315639488399028,0.110690369980668,0.1269430994982038,2.0425075032097157,-6.563490867614746,-23.394514083862305,-38.909576416015625,-0.016360918080387192,1011.9951481198858
1.824698486328125,-0.0352145212441682,-0.1381901809416711,0.0977232921272516,0.0022747404873371,-0.0227175205945968,-0.0421201847493648,0.110707274782804,0.1268983306573349,2.0421349648907023,-6.8289289474487305,-23.213031768798828,-38.94692993164063,-0.01675887403015334,1011.9951963801839
1.834766357421875,-0.0359856517471373,-0.1420235485594719,0.1314928752601146,-0.0047530755400657,-0.0343435518443584,-0.046800423413515,0.1106670943413383,0.1267298874067748,2.041686349012595,-6.780905723571777,-23.426868438720703,-39.1422119140625,-0.017156810680406896,1011.9952446381415
1.844835205078125,-0.0322742300085723,-0.1332143652904778,0.1508820508629083,-0.0128496345132589,-0.0541196949779987,-0.0512517839670181,0.1105576276609244,0.1263909079704496,2.0412035938577104,-6.499829292297363,-23.542570114135746,-38.973419189453125,-0.017554785929685637,1011.99529290078
1.8549033203125,-0.0022036475241184,-0.1458048206638544,0.1235451311260461,-0.0136427227407693,-0.0615784078836441,-0.0580481700599193,0.1104019577909855,0.1258787199890612,2.040669172067569,-6.44032096862793,-23.27696990966797,-38.678985595703125,-0.017952732229695494,1011.9953411599078
1.864971435546875,0.0197561092190444,-0.1502739289019256,0.0800946964561939,-0.0100002232939004,-0.0672089755535125,-0.0643582418560981,0.1102658455373246,0.1253081004973163,2.040083885180079,-6.419389724731445,-23.288028717041016,-39.04254150390625,-0.01835067852970534,1011.9953894190356
1.875040283203125,0.0406944870252162,-0.1412794521939009,0.0362912105649709,-0.0096055418252944,-0.0524108484387397,-0.0718180239200592,0.1101446968850734,0.1247659941572625,2.03941780963504,-6.57707405090332,-23.542200088500977,-38.990753173828125,-0.018748653778984093,1011.9954376816742
1.885108642578125,0.0737087948113679,-0.1428879103038459,-0.0099357030808925,-0.0054833311587572,-0.0391247645020484,-0.0754138380289077,0.1100257300962111,0.1243678366736869,2.038685180397549,-6.631590843200684,-23.57870101928711,-38.94476318359375,-0.01914660972875024,1011.9954859419721
1.89517626953125,0.0997572821728885,-0.1369710144102573,-0.0393967753648757,-0.0034060645848512,-0.0161438155919313,-0.0740455090999603,0.1099419380959464,0.1241798370468785,2.03793947112825,-6.324342727661133,-23.137266159057617,-39.05874633789063,-0.019544536729247493,1011.9955341987595
1.905244140625,0.1078982107914984,-0.1219829233106225,-0.0328349326312541,-0.0061334427446126,-0.0095198191702365,-0.0769912675023078,0.1098830265820235,0.1241263588585039,2.037193805282038,-6.467333793640137,-23.33870506286621,-39.0301513671875,-0.01994247337950105,1011.9955824567171
1.9153134765625,0.1196983195047825,-0.0986794968735426,-0.0212719206094741,-0.015952518209815,-0.0163910407572984,-0.0764304026961326,0.1097561073672836,0.1240803981102315,2.03643843498605,-6.568930625915527,-23.468584060668945,-39.3714599609375,-0.020340467928292392,1011.9956307216961
1.92538134765625,0.116768914989382,-0.1034988798540085,-0.0383697704046964,-0.0254314560443162,-0.0261063929647207,-0.0759593769907951,0.1095226683547753,0.1239468855711347,2.0357090663358526,-6.502047538757324,-23.29357147216797,-39.68603515625,-0.02073840457854595,1011.9956789796537
1.935449462890625,0.1185264992464333,-0.1096890397310256,-0.0674567486792802,-0.0259387884289026,-0.034172311425209,-0.0826681405305862,0.1092407156927702,0.1237458753544214,2.034944990014385,-6.766314506530762,-23.486610412597656,-39.1866455078125,-0.021136350878555796,1011.9957272387815
1.945518310546875,0.1257592269789427,-0.0917013284239918,-0.1480143864721059,-0.0156577862799167,-0.0337967835366725,-0.0855705067515373,0.1089983093777452,0.1235053684337746,2.0341214073203404,-6.548880577087402,-23.507089614868164,-39.095001220703125,-0.021534326127834548,1011.99577550142
1.95558642578125,0.1344747406151145,-0.0666955550484359,-0.2147849064528942,0.003400326706469,-0.0093566859140992,-0.0774244293570518,0.1088925338821612,0.1233764154623563,2.033311589875471,-6.370687484741211,-23.37241744995117,-39.3065185546875,-0.0219322724278444,1011.9958237605478
1.965654296875,0.1562947235614061,-0.045119098534435,-0.2078174055278301,0.0215438604354858,0.0019525690004229,-0.0626491233706474,0.1090029212167663,0.1234580482032181,2.03259482489452,-6.419907569885254,-23.40767288208008,-39.3739013671875,-0.02233020907809795,1011.9958720185053
1.975723388671875,0.1532234994225204,-0.0238848795868456,-0.1840653585404157,0.0349052064120769,0.0060474453493952,-0.0509455986320972,0.1092931069094193,0.1236093226623909,2.03197865312543,-6.484905242919922,-23.669124603271484,-39.03268432617188,-0.022728193977133,1011.9959202823142
1.985791259765625,0.1460321996789425,-0.0076713383454829,-0.1363414843350648,0.0408109501004219,0.006994301918894,-0.0463759154081344,0.1096669294832684,0.1237854937776596,2.0314467175669964,-6.286360740661621,-23.527912139892575,-39.40130615234375,-0.023126130627386558,1011.9959685402717
1.995859375,0.1195589110340923,-0.0284540871985256,-0.047512861803174,0.0449324548244476,0.0064677954651415,-0.0479277409613132,0.1100831435767816,0.1239600785709275,2.0309254131222776,-6.328173637390137,-23.50941276550293,-39.167572021484375,-0.023524076927396404,1011.9960167993995
2.00592822265625,0.1119911061283201,-0.0351123760439455,0.0103244101375341,0.0503138601779937,0.0021880152635276,-0.0520425997674465,0.1105360863360817,0.1241144407892575,2.03036580031641,-6.241338729858398,-23.639068603515625,-39.342559814453125,-0.023922052176675146,1011.996065062038
2.01599658203125,0.1022661962538957,-0.0463686602041125,0.0641290655612945,0.0512704625725746,7.418449968e-06,-0.0597010515630245,0.1110239388425729,0.1242293646817601,2.0297367426872936,-6.415328979492188,-23.541889190673828,-39.1678466796875,-0.02432000812644131,1011.9961133223361
2.026064453125,0.109508933923766,-0.0504098984189331,0.138538117596507,0.0395668856799602,-0.0032050113659352,-0.0582226440310478,0.111438390034897,0.1243217701863524,2.0290610680696157,-6.433475494384766,-23.36285781860352,-39.09100341796875,-0.024717944776694856,1011.9961615802937
2.03613330078125,0.1247645168531686,-0.0746217449378222,0.2066460236608982,0.0203521773219108,-0.0121380519121885,-0.0558734685182571,0.1116717267747856,0.1243412907587493,2.0284351942657786,-6.456313133239746,-23.448017120361328,-38.97628784179688,-0.02511592002597361,1011.9962098429321
2.046201416015625,0.1508076704524457,-0.1023158806145191,0.2682628141403198,-0.0007747616618871,-0.0319585278630256,-0.0463231466710567,0.1116859375135128,0.1242325275804431,2.02791036535445,-6.629958152770996,-23.501300811767575,-39.1251220703125,-0.025513866325983455,1011.99625810206
2.056269287109375,0.1657002652883529,-0.1551963338654488,0.2646335177272558,-0.0132948141545057,-0.0518850982189178,-0.044669859111309,0.1115417547431561,0.1238974550629683,2.027460060044481,-6.503959655761719,-23.383848190307617,-38.9326171875,-0.025911802976237002,1011.9963063600176
2.06633837890625,0.1715414655972272,-0.1502558087233454,0.2217722811222076,-0.0111865419894456,-0.0685421675443649,-0.048381607979536,0.1113424134838688,0.123383554036935,2.0270077035420515,-6.474223136901856,-23.26491355895996,-38.791290283203125,-0.026309787875272054,1011.9963546238263
2.07640625,0.1406575939685106,-0.1350415807176381,0.1759942802876234,-0.0041083917021751,-0.0789721757173538,-0.0543779805302619,0.1111992157134082,0.1227533317735398,2.0264853896528248,-6.253313064575195,-23.26754570007324,-38.87579345703125,-0.0267077245255256,1011.9964028817839
2.086474365234375,0.1363182495899498,-0.1353760733690112,0.1323205582559108,0.0051368232816457,-0.0862230286002159,-0.0581594891846179,0.1111341881444713,0.1220408288248168,2.025906063756322,-6.334498405456543,-23.46129035949707,-38.59735107421875,-0.027105670825535465,1011.9964511409116
2.096543212890625,0.1219676526762545,-0.1427433872666209,0.1059381627649068,0.0119467927142977,-0.0908425524830818,-0.0670320764183998,0.1111766478313651,0.1212819763573908,2.025254352782612,-6.612929344177246,-23.36990547180176,-39.31362915039063,-0.027503646074814217,1011.9964994035502
2.106611572265625,0.0926139132242649,-0.1384736009929329,0.1285579908519983,0.0069374535232782,-0.0802302211523056,-0.080407477915287,0.111215560129206,0.1205890676339513,2.024486653557433,-6.180136680603027,-23.375925064086918,-38.75946044921875,-0.027901602024580363,1011.9965476638482
2.116679443359375,0.0720282213132828,-0.1313004214279353,0.1183463934391736,-0.0017223469913005,-0.0721224993467331,-0.0838581323623657,0.1111838781673144,0.1200097668759417,2.023651000758272,-6.267834663391113,-23.55039405822754,-38.892669677734375,-0.02829953867483391,1011.9965959218058
2.126747314453125,0.0823632989753037,-0.1250600657336413,0.0841617997646331,-0.0127902626991271,-0.0597406029701232,-0.0914440900087356,0.1110564918833662,0.1195430914011416,2.022771155834089,-6.290251731872559,-23.353816986083984,-39.048828125,-0.028697475325087457,1011.9966441797634
2.136816162109375,0.0886240398705005,-0.1589097283653915,0.064866732186079,-0.0121614895761013,-0.0360917337238788,-0.0975019782781601,0.1109150737869801,0.1192808058221246,2.021817225371432,-6.359114646911621,-23.446752548217773,-39.00445556640625,-0.029095450574366206,1011.9966924424019
2.146884521484375,0.1202562456484884,-0.1574304495930671,0.0744616590052843,-0.0183244589716196,-0.025725619867444,-0.0996908619999885,0.1107290918065173,0.1191794885587703,2.0208276266548184,-6.193611145019531,-23.47861862182617,-38.99652099609375,-0.029493406524132355,1011.9967407027
2.156952392578125,0.1549383405163884,-0.1529807036425918,0.0878355198413133,-0.0304221343249082,-0.0167275983840227,-0.0941083431243896,0.1104487057721836,0.1191328676960659,2.019877016668327,-6.303970336914063,-23.50997734069824,-38.98114013671875,-0.02989134317438592,1011.9967889606576
2.167021240234375,0.1689580980405211,-0.1614862277898937,0.1142635080397129,-0.0337499566376209,-0.0141501128673553,-0.0837001949548721,0.1100673530464878,0.1191480496237329,2.019000678281006,-6.419727325439453,-23.609865188598636,-39.01339721679688,-0.03028931842366467,1011.9968372232961
2.17708935546875,0.1499760419338941,-0.1517234701231122,0.0937006124824285,-0.0448681227862834,-0.0267135743051767,-0.0833728909492492,0.1096412292202545,0.1190783107596866,2.0182087773145945,-6.435425758361816,-23.80547332763672,-39.1229248046875,-0.03068726472367452,1011.9968854824239
2.1871572265625,0.1447716782238334,-0.1182677021797746,0.0374625924319028,-0.0431280620396137,-0.0435815416276454,-0.0929547771811485,0.1091589043004277,0.1188521429193462,2.017370755967261,-6.602170944213867,-23.84347152709961,-39.03732299804688,-0.031085201373928065,1011.9969337403815
2.197226318359375,0.113578375319764,-0.0900693433079868,-0.0079226096928119,-0.0417725145816803,-0.043869961053133,-0.0947702527046203,0.1086898692268568,0.1185439379202856,2.0164772158929414,-6.48692512512207,-23.81389808654785,-39.11260986328125,-0.031483186272963114,1011.9969820041902
2.20729443359375,0.0836620335489511,-0.0537185115102678,-0.0423380895137786,-0.0296532828360795,-0.0388834998011589,-0.0936217829585075,0.1082896624067075,0.118259378072903,2.0155581805736538,-6.09865665435791,-23.588972091674805,-38.99591064453125,-0.03188113257297296,1011.997030263318
2.2173623046875,0.063762570336461,-0.0288760389376431,-0.0540624295771121,-0.018204616382718,-0.038537822663784,-0.0901743173599243,0.1080443624417544,0.1180086747127673,2.0146542000472527,-6.169804573059082,-23.451601028442383,-38.91159057617188,-0.03227906922322653,1011.9970785212756
2.22743115234375,0.0530707151260227,-0.0156306267868727,-0.0679974314272403,-0.0054920678958296,-0.0396189205348491,-0.0864841565489769,0.1078988098573799,0.1177664980165885,2.013769235095801,-6.248749732971191,-23.46949577331543,-39.28350830078125,-0.03267704447250527,1011.997126783914
2.23749951171875,0.0376952321439981,-0.0041674218777567,-0.0466068528741598,0.0023448159918189,-0.0359051451086998,-0.0860508605837822,0.1078620680608244,0.1175458155231446,2.012895854504921,-6.335993766784668,-23.58324813842773,-39.494903564453125,-0.033075000422271426,1011.9971750442121
2.2475673828125,0.0075919164337217,-0.0141856156103312,0.0196223998367786,0.0137538649141788,-0.0259301532059907,-0.0835300236940383,0.1079242349199439,0.1174102298473967,2.012027296047998,-6.229734420776367,-23.598779678344727,-39.29254150390625,-0.03347293707252497,1011.9972233021697
2.25763623046875,-0.0298207724418491,-0.0087425477735698,0.0776776984423398,0.0190042853355407,-0.0049803964793682,-0.086047776043415,0.1080681240151985,0.1174124054491191,2.011150863886904,-6.313083648681641,-23.588680267333984,-38.94842529296875,-0.03387091232180372,1011.9972715648082
2.267704345703125,-0.0441416318044066,-0.0081396134443581,0.155714877846837,0.0125079536810517,0.0166534073650836,-0.0891686007380485,0.1081913545744331,0.1176257732939844,2.0102421201124057,-6.33351993560791,-23.443363189697266,-39.01724243164063,-0.034268858621813565,1011.9973198239361
2.2777724609375,-0.0651109892707318,-0.0091227792628109,0.2401233458489179,-0.0023895036429166,0.0283313654363155,-0.0954214334487915,0.10818260664984,0.118014130068347,2.0093014002795258,-6.045412063598633,-23.61200714111328,-39.123291015625,-0.03466680492182341,1011.9973680830639
2.28784130859375,-0.0772889913856983,-0.0059905456516891,0.2928337762951851,-0.0310437176376581,0.0328468792140483,-0.1057804450392723,0.1079206467118296,0.1184803673315276,2.0083037398320767,-6.129630088806152,-23.906179428100582,-39.00494384765625,-0.035064780171102164,1011.9974163457024
2.297909423828125,-0.0869286341294646,-0.005013517313078,0.2883440636605024,-0.0510515123605728,0.0380951687693595,-0.1103363111615181,0.1073762446217155,0.1189744395677629,2.007252432603561,-6.185300827026367,-23.491209030151367,-39.138916015625,-0.03546272647111201,1011.9974646048302
2.307977294921875,-0.127983625030145,0.014905015926063,0.2963099279731512,-0.0641474425792694,0.0582159459590911,-0.1147216632962226,0.1066566718540189,0.1195890397097788,2.006195620140594,-5.904514312744141,-23.414968490600582,-38.951019287109375,-0.03586066312136558,1011.9975128627877
2.31804638671875,-0.1891374011076986,0.0480093400832265,0.3025958763748407,-0.0585529394447803,0.0759174451231956,-0.1094094589352607,0.1059082843316722,0.1203782042663676,2.0051444511725425,-6.028008460998535,-23.51519012451172,-39.03195190429688,-0.03625864802040063,1011.9975611265965
2.3281142578125,-0.2023466459665447,0.0798415984779596,0.2789636563748121,-0.0460408627986907,0.0898798629641532,-0.1100068241357803,0.1052596683197835,0.121316967562707,2.004105466813907,-5.93309211730957,-23.483665466308597,-39.201507568359375,-0.03665658467065418,1011.997609384554
2.338182373046875,-0.2096011471394449,0.0423008993085473,0.2786538597732782,-0.0239422153681516,0.0972656086087226,-0.1074259579181671,0.1048165937850851,0.1223389094132295,2.003056878693139,-5.860896110534668,-23.533769607543945,-38.961944580078125,-0.037054530970664024,1011.9976576436819
2.348251220703125,-0.2322068736359477,0.0136246937919408,0.3207528798341751,-0.0122020523995161,0.0946421921253204,-0.1104320287704467,0.1045459769274548,0.1234031544253325,2.001991028372181,-5.906772613525391,-23.625030517578125,-39.18084716796875,-0.03745250621994277,1011.9977059063204
2.358319091796875,-0.2325092906486243,-0.0110063279870897,0.3843775030046701,-0.0113069638609886,0.0669948533177375,-0.1092770174145698,0.1043219168321707,0.1243127596642267,2.000910297395321,-6.001044273376465,-23.55323028564453,-38.73629760742188,-0.037850442870196316,1011.997754164278
2.368387451171875,-0.2506090109627694,-0.0440817913759499,0.430273577260971,-0.0314908772706985,0.0220356918871402,-0.1111140102148056,0.1039991653211866,0.1248644919209359,1.9998392616373224,-5.867748260498047,-23.520448684692383,-38.955352783203125,-0.03824839881996248,1011.9978024245761
2.378456298828125,-0.2729371626269072,-0.0682972180914133,0.4333756349295377,-0.0713874325156211,-0.0279875285923481,-0.1230492293834686,0.1033574881706931,0.1249367328610522,1.9987315900988336,-5.866466522216797,-23.50120735168457,-38.81494140625,-0.038646374069241214,1011.9978506872145
2.3885244140625,-0.3213376939848065,-0.0893834799356758,0.3559469428122043,-0.1175764501094818,-0.094246007502079,-0.1323124170303344,0.102254315706199,0.1244192817032623,1.9975742799888527,-5.765249252319336,-23.594335556030277,-39.02447509765625,-0.03904432036925108,1011.9978989463424
2.39859228515625,-0.4223737639218569,-0.0412611079320311,0.2077344034194946,-0.1697094291448593,-0.1454487293958664,-0.1489433348178863,0.1006529581304001,0.1233047788846581,1.9963403995275744,-5.972914695739746,-23.714828491210938,-38.781768798828125,-0.03944225701950463,1011.9979472043
2.408660400390625,-0.56723684675619,0.0588298631746321,0.0572697011858224,-0.2127516567707061,-0.1673401594161987,-0.1679043769836425,0.09853505693502,0.121827776640427,1.994986936307997,-5.812760353088379,-23.58758544921875,-39.3089599609375,-0.039840203319514475,1011.9979954634277
2.418729248046875,-0.6527691311564296,0.113826870188117,-0.1397381410360336,-0.2294339686632156,-0.1580252051353454,-0.1844410002231598,0.0961055673183889,0.1202945763210852,1.9934864976288271,-5.970881462097168,-23.593976974487305,-39.22232055664063,-0.04023817856879323,1011.9980437260663
2.42879736328125,-0.7032901617996394,0.1322580874789506,-0.3228080587983131,-0.2332830727100372,-0.1193660497665405,-0.1880477666854858,0.0935791477145398,0.1190093742181595,1.9918827539774575,-5.808327674865723,-23.44870376586914,-39.37969970703125,-0.040636124868803074,1011.998091985194
2.438865234375,-0.7202824323285371,0.1179729570169001,-0.4403168323695659,-0.2227635979652404,-0.0529995448887348,-0.1700008511543274,0.0911048493838079,0.1182498786527102,1.9903417747468888,-5.538886070251465,-23.02273178100586,-39.33102416992188,-0.04103406151905664,1011.9981402431516
2.448934326171875,-0.6893835823263973,0.0356017669960856,-0.4529273076176643,-0.1975378841161728,0.0188287533819675,-0.1327941268682479,0.0888607887609575,0.1181719619162444,1.9890598708081604,-5.749301910400391,-23.04195213317871,-39.1409912109375,-0.04143204641809167,1011.9981885069604
2.459002197265625,-0.6249803029336035,-0.1109487574685365,-0.3739887954592704,-0.1876796633005142,0.0662114545702934,-0.0990569368004798,0.0868484923247755,0.1186846958850863,1.988128175115169,-5.899059295654297,-23.05935287475586,-39.48501586914063,-0.04182998306834523,1011.998236764918
2.469070068359375,-0.5309791000694036,-0.3086155019905418,-0.2461363225281238,-0.1914573609828949,0.0617395117878913,-0.076257437467575,0.0849039145019987,0.1193866442802447,1.987488594147684,-5.668978691101074,-23.242225646972656,-39.2298583984375,-0.04222791971859878,1011.9982850228756
2.479139404296875,-0.4419579506400972,-0.5365470363948494,-0.1520826588243246,-0.2048836797475814,0.0324047952890396,-0.06144680082798,0.0828639183211014,0.1198455091393845,1.9870366222554765,-5.683008193969727,-22.933673858642575,-39.187591552734375,-0.0422773361206054,1011.998291015625
2.48920703125,-0.4111250785462558,-0.7357927206713706,-0.0708224257200956,-0.2128259688615799,-0.013780421577394,-0.0520683228969574,0.0807278378669451,0.1198853293688881,1.986751763211402,-5.621220588684082,-22.915611267089844,-39.54653930664063,-0.0422773361206054,1011.998291015625
2.499275146484375,-0.4544526174888014,-0.8377786386791616,-0.01713935084939,-0.2244229614734649,-0.0706373155117034,-0.065037116408348,0.0784692114752283,0.1193633732298823,1.9864515100285096,-5.586312294006348,-22.891935348510746,-39.21551513671875,-0.0422773361206054,1011.998291015625
2.50934423828125,-0.4983324565518647,-0.8975002630617469,-0.0230009363591671,-0.2306139767169952,-0.1131085678935051,-0.09320018440485,0.076095363530465,0.118343269527488,1.9859436771586243,-5.508915901184082,-22.54491233825684,-39.256195068359375,-0.0422773361206054,1011.998291015625
2.519412353515625,-0.5316344221729785,-0.9712463942088186,-0.0467208346426486,-0.2206968963146209,-0.1210860610008239,-0.1180048659443855,0.0736955799071448,0.1170669819193809,1.9851623410816288,-5.795570373535156,-22.8022575378418,-39.629791259765625,-0.0422773361206054,1011.998291015625
2.529480224609375,-0.4945283150285482,-1.026239821025729,-0.0750426737636327,-0.198822483420372,-0.1074130907654762,-0.1311905682086944,0.0714540918904624,0.1158622585963566,1.9841685837326133,-5.781345367431641,-22.73275184631348,-39.56719970703125,-0.0422773361206054,1011.998291015625
2.53954931640625,-0.4208320874378085,-1.0399546042539178,-0.0884527749568224,-0.1720281541347503,-0.0844925940036773,-0.1358468383550644,0.0694861202247784,0.1148837497127537,1.9830516914447385,-5.897481918334961,-22.630151748657227,-39.752960205078125,-0.0422773361206054,1011.998291015625
2.5496171875,-0.3398584892552346,-1.0003368065495044,-0.0540524927049875,-0.1433923244476318,-0.0595999248325824,-0.1370780616998672,0.0677846910019133,0.114175467508561,1.9818688478453088,-5.790647506713867,-22.63737678527832,-39.7042236328125,-0.0422773361206054,1011.998291015625
2.559685302734375,-0.2486030049026012,-0.9535442218448966,0.0482511129498481,-0.1304517686367035,-0.0404246300458908,-0.1300273388624191,0.0663426417878019,0.1137203972084897,1.9806926576923671,-5.651736259460449,-22.778589248657227,-39.4808349609375,-0.0422773361206054,1011.998291015625
2.56975439453125,-0.155172149272263,-0.9044072659712284,0.1342991648524999,-0.1223426163196563,-0.0341569855809211,-0.1171333342790603,0.0650485483378985,0.1133816143125737,1.9795968293359607,-5.753781318664551,-22.56840133666992,-39.5247802734375,-0.0422773361206054,1011.998291015625
2.579822265625,-0.110799923582375,-0.852639742398262,0.1830593963682651,-0.1181598603725433,-0.0431145243346691,-0.1036196574568748,0.0638551640351005,0.1129953563885681,1.978633693498179,-5.303066253662109,-22.371713638305664,-39.69097900390625,-0.0422773361206054,1011.998291015625
2.58989013671875,-0.0989648166209459,-0.7886017891865224,0.1693511890113353,-0.1118463724851608,-0.0594073347747325,-0.0998455807566642,0.0627689097780993,0.1124629828633051,1.9777475690969015,-5.65655517578125,-22.30531120300293,-39.76507568359375,-0.0422773361206054,1011.998291015625
2.59995947265625,-0.1044236665487289,-0.696760613900423,0.1357663147956132,-0.0988101959228515,-0.0615461207926273,-0.0963938534259796,0.0618784641167721,0.1117871772831221,1.9768890649086384,-5.577057838439941,-22.33162498474121,-39.93011474609375,-0.0422773361206054,1011.998291015625
2.61002734375,-0.1051785035040229,-0.6266394683174789,0.1007230584651231,-0.0841758772730827,-0.0619858503341674,-0.0882822796702385,0.0612762163791757,0.1110453074781242,1.9760774363002729,-5.499011993408203,-22.184085845947266,-39.53854370117188,-0.0422773361206054,1011.998291015625
2.62009521484375,-0.0892869607586413,-0.619190321355313,0.0576706832021474,-0.0716390460729599,-0.0458902344107627,-0.0752232074737548,0.060905978223062,0.1103783172117112,1.975358017551493,-5.617746353149414,-21.898231506347656,-39.88815307617188,-0.0422773361206054,1011.998291015625
2.630164306640625,-0.0618025223098695,-0.6370468805633485,0.0726952338546514,-0.0677797347307205,-0.0281420685350894,-0.0612137876451015,0.0606257391244837,0.1099200439766561,1.9747491632530771,-5.730473518371582,-21.90993309020996,-40.00070190429688,-0.0422773361206054,1011.998291015625
2.640232177734375,-0.074879884417355,-0.6607892829395831,0.069299746197462,-0.0722842067480087,-0.0146473003551363,-0.0501986891031265,0.0603098294818616,0.1096317818957076,1.9742759904708933,-5.739021301269531,-21.88364791870117,-40.38214111328125,-0.0422773361206054,1011.998291015625
2.65030029296875,-0.1092186457403004,-0.6585000029586255,0.0303004457175731,-0.0768200978636741,-0.0034902533516287,-0.0469131469726562,0.0599475227891555,0.1094983379628765,1.9738764294834743,-5.596380233764648,-21.8369140625,-40.38232421875,-0.0422773361206054,1011.998291015625
2.660369384765625,-0.1613021764598786,-0.6747627171039581,0.008767243823409,-0.0704279839992523,0.0168118216097354,-0.0402730889618396,0.059554966905731,0.1095582706565502,1.9735246587790496,-5.75382137298584,-21.86789894104004,-40.0509033203125,-0.0422773361206054,1011.998291015625
2.670437255859375,-0.2348549039267003,-0.6716220809906721,-0.0031879823863506,-0.0606719702482223,0.0371314659714698,-0.0318016409873962,0.0592337867076441,0.1098566333755693,1.9732291738860337,-5.852021217346191,-21.75715446472168,-40.271484375,-0.0422773361206054,1011.998291015625
2.680505126953125,-0.2844454487867653,-0.6586968407049775,-0.0020312135666608,-0.0427718013525009,0.0537384077906608,-0.0221349000930786,0.0590102703312059,0.1102920010531365,1.973013843199465,-5.797674179077148,-21.7777042388916,-40.23956298828125,-0.0422773361206054,1011.998291015625
2.690574462890625,-0.3054136372093111,-0.6638586073823273,0.0430137968182563,-0.021331550553441,0.06341253221035,-0.0130146238952875,0.0589721291055538,0.1108627177453766,1.9728717181002808,-5.626445770263672,-21.617576599121094,-40.35003662109375,-0.0422773361206054,1011.998291015625
2.700642333984375,-0.3274971664626151,-0.6917688700277358,0.1340951667129993,-0.0076748616993427,0.0735144317150116,0.0024604727514088,0.0591170475803899,0.1115185861170273,1.9728415512995736,-5.667562484741211,-21.67883682250977,-39.83135986328125,-0.0422773361206054,1011.998291015625
2.71071044921875,-0.3246912421964109,-0.7353828246962278,0.2398626490861177,-0.0097378622740507,0.0796306729316711,0.0069227940402925,0.059339242809738,0.1122468289658013,1.9729081934982424,-5.572319984436035,-21.69769096374512,-40.228515625,-0.0422773361206054,1011.998291015625
2.720779052734375,-0.3341999520368874,-0.7981042884819209,0.3758113347113132,-0.0245602168142795,0.0906761288642883,0.0182758495211601,0.0595050021366917,0.1130408760700925,1.973060971105143,-5.419679641723633,-21.552417755126957,-40.2503662109375,-0.0422773361206054,1011.998291015625
2.730847412109375,-0.3592749912563711,-0.8622170604955405,0.5200894572645426,-0.0426944456994533,0.1124693900346756,0.0214173458516597,0.0594827834952933,0.1139726129695584,1.9733076900899436,-5.459711074829102,-21.412477493286133,-40.60076904296875,-0.0422773361206054,1011.998291015625
2.740915283203125,-0.3685032036550343,-0.9291719240672884,0.6343646557420491,-0.0615946352481842,0.1278342306613922,0.0252006333321332,0.05924666501975,0.115073755666781,1.9736086870570115,-5.32835578918457,-21.55528450012207,-40.50390625,-0.0422773361206054,1011.998291015625
2.750984375,-0.3849938082721084,-0.9980082905367016,0.715071346616745,-0.0851768925786018,0.120436854660511,0.0152521599084138,0.0587113641265537,0.116227320368033,1.9739101876647935,-5.286615371704102,-21.58603858947754,-40.478790283203125,-0.0422773361206054,1011.998291015625
2.76105224609375,-0.3840314660459756,-1.0683519928291438,0.7147481060117483,-0.0928047224879264,0.1063074544072151,-0.0051516485400497,0.0579609818882313,0.1172774363467871,1.9740682874456847,-5.222983360290527,-21.54841041564941,-40.67648315429688,-0.0422773361206054,1011.998291015625
2.7711201171875,-0.322873525249958,-1.1245767150066792,0.6476999381333589,-0.0875519514083862,0.0871070027351379,-0.0289780665189027,0.0571549067305349,0.1181998830539066,1.9740128192403303,-5.137499809265137,-21.634361267089844,-40.32623291015625,-0.0422773361206054,1011.998291015625
2.781189208984375,-0.249713011971116,-1.140601747938618,0.5883323878854513,-0.0813656896352768,0.0628844872117042,-0.046084351837635,0.0563893246036847,0.1189193623396403,1.973729787416059,-5.235723495483398,-21.278881072998047,-40.410980224609375,-0.0422773361206054,1011.998291015625
2.79125732421875,-0.2250967493698,-1.0841907824739814,0.5625491273313761,-0.0979110822081565,0.0289966017007827,-0.0601760707795619,0.0555485281024136,0.1193523011898598,1.9733061769262976,-5.140895843505859,-21.228042602539062,-40.41549682617188,-0.0422773361206054,1011.998291015625
2.801325439453125,-0.245242588558793,-0.988909184410423,0.511817303481698,-0.1304397284984588,0.0011410014703869,-0.070536307990551,0.0544443993744688,0.1194778477065992,1.972801795377665,-5.156305313110352,-21.174680709838867,-40.34542846679688,-0.0422773361206054,1011.998291015625
2.81139404296875,-0.2340190376244485,-0.9214011439353228,0.4079179530680179,-0.1703196763992309,-0.0043672733008861,-0.0811953991651535,0.0529490728605478,0.1194219575906995,1.9722376989591768,-5.109713554382324,-21.264406204223636,-40.6922607421875,-0.0422773361206054,1011.998291015625
2.82146240234375,-0.1600637937713414,-0.8907846180059015,0.2391010170638561,-0.1893543601036071,0.0099959522485733,-0.0794092118740081,0.0511553303721433,0.1194533886234242,1.9716537654516904,-5.01878547668457,-21.03319931030273,-40.48345947265625,-0.0422773361206054,1011.998291015625
2.8315302734375,-0.1051693703494966,-0.8540788352906703,0.0376122300356626,-0.1921840906143188,0.0388571433722972,-0.0709160715341568,0.0492501294746065,0.1196750290887645,1.9711389079425168,-5.128505706787109,-21.025968551635746,-40.663360595703125,-0.0422773361206054,1011.998291015625
2.841598388671875,-0.0943804845053702,-0.7738752716325223,-0.1233697745591402,-0.1744256019592285,0.0798080340027809,-0.050457939505577,0.0474472501467835,0.1202476807147497,1.970740617167448,-4.936314582824707,-20.92964172363281,-40.595947265625,-0.0422773361206054,1011.998291015625
2.851667236328125,-0.0899958396803587,-0.6964077088095247,-0.280828865724802,-0.1420731097459793,0.1153626292943954,-0.018314816057682,0.0459609637644956,0.1212347947962741,1.9705890322069195,-4.919668197631836,-20.522993087768555,-40.278411865234375,-0.0422773361206054,1011.998291015625
2.8617353515625,-0.0658857730355113,-0.6149483729366213,-0.3796230019539594,-0.0952291786670684,0.1419356614351272,0.0189073868095874,0.0449433451080638,0.1225198920318473,1.9707393379656883,-5.045551300048828,-20.523578643798828,-40.60760498046875,-0.0422773361206054,1011.998291015625
2.87180322265625,-0.0521006279848515,-0.569485027541779,-0.4231488399475813,-0.0531223863363266,0.1481953114271164,0.0607893615961074,0.044390776264832,0.1239462657428368,1.971245645001804,-5.064502716064453,-20.52180290222168,-40.71429443359375,-0.0422773361206054,1011.998291015625
2.8818720703125,-0.0803562700018286,-0.5656660903081298,-0.4334861095666885,-0.0211460795253515,0.1441779434680938,0.0981902629137039,0.0442459959678956,0.1253589803221274,1.9720732988810536,-5.096171379089356,-20.7227725982666,-40.670196533203125,-0.0422773361206054,1011.998291015625
2.8919404296875,-0.1414152804680168,-0.6220272983469068,-0.3866688288122415,0.0067430427297949,0.1571357250213623,0.1265313327312469,0.0444040590825999,0.126777005649374,1.9732006807146012,-4.674581527709961,-20.640605926513672,-40.759613037109375,-0.0422773361206054,1011.998291015625
2.902008056640625,-0.1385888248704374,-0.7216502866156399,-0.3122755588680506,0.0314217582345008,0.1770740151405334,0.1456240713596344,0.0448659154038715,0.1283982622995962,1.974538496658307,-4.7075910568237305,-20.56325340270996,-40.66998291015625,-0.0422773361206054,1011.998291015625
2.9120771484375,-0.0867380799934268,-0.8884279718771576,-0.2408306173354387,0.0291261114180088,0.1082709804177284,0.1537254005670547,0.045468593317677,0.1297956048871652,1.976003818356067,-4.789807319641113,-20.768999099731445,-40.641632080078125,-0.0422773361206054,1011.998291015625
2.922145263671875,-0.0517624820716679,-1.0496394743788986,-0.3377215502917766,0.0051360912621021,-0.022253205999732,0.1521157920360565,0.0459520895330908,0.130156882673057,1.9775202059125223,-4.995841979980469,-20.660585403442383,-40.9422607421875,-0.0422773361206054,1011.998291015625
2.93221337890625,-0.145576637931168,-1.098937685228884,-0.4939250884383916,-0.0218656975775957,-0.1318153738975525,0.1278136372566223,0.0461437812983254,0.1292482948288243,1.9789572783895395,-4.989967346191406,-20.755830764770508,-40.728912353515625,-0.0422773361206054,1011.998291015625
2.942281982421875,-0.3467152963474392,-0.9837306127287448,-0.6546171701759099,-0.040725938975811,-0.1733002364635467,0.0659699738025665,0.0460354408527603,0.1276022953406208,1.979982368610577,-5.019035339355469,-20.53683853149414,-41.11358642578125,-0.0422773361206054,1011.998291015625
2.952350341796875,-0.4872564243294298,-0.8207983508490025,-0.8567904323369264,-0.0563483908772468,-0.1693717241287231,0.0050448044203221,0.0456512127587025,0.1258170805438553,1.980398728635808,-4.984550476074219,-20.37807846069336,-40.94219970703125,-0.0422773361206054,1011.998291015625
2.962418212890625,-0.4780958703394979,-0.746475588857755,-1.1273375580221414,-0.0721260234713554,-0.1491633951663971,-0.0397098809480667,0.0450201448637707,0.1242090847357646,1.98028391773589,-5.129142761230469,-20.39380645751953,-41.11505126953125,-0.0422773361206054,1011.998291015625
2.9724873046875,-0.3869613089527934,-0.7097273552402854,-1.3617811046689747,-0.0861643105745315,-0.1209157258272171,-0.0663554817438125,0.0441889562485838,0.1228648919142515,1.9798451195690527,-5.173296928405762,-20.515628814697266,-41.36663818359375,-0.0422773361206054,1011.998291015625
2.982555419921875,-0.3668332976814359,-0.615089681103453,-1.5252403130322694,-0.097604714334011,-0.1075421273708343,-0.0832905247807502,0.0432030032551246,0.1217591507449521,1.9792171068478184,-5.311855316162109,-20.447799682617188,-41.4088134765625,-0.0422773361206054,1011.998291015625
2.992623046875,-0.408884240816906,-0.4485421878686174,-1.678837468072772,-0.0970973074436187,-0.1155897304415702,-0.1069026961922645,0.0421339922318364,0.1206768699655838,1.9783962432739173,-5.276844024658203,-20.677717208862305,-41.01422119140625,-0.0422773361206054,1011.998291015625
3.002692138671875,-0.4733572975102811,-0.2810977457940578,-1.8306424789994955,-0.0794003307819366,-0.1140072792768478,-0.136465385556221,0.0411107699993285,0.1195620395572492,1.9773000258789728,-5.466598510742188,-20.59832191467285,-41.2879638671875,-0.0422773361206054,1011.998291015625
3.012760498046875,-0.5221138757642358,-0.1849384150478988,-1.9389286661952732,-0.0506774075329303,-0.1037502810359001,-0.1674308180809021,0.040295499070833,0.1185096014517318,1.9758705138609525,-5.608096122741699,-20.38447570800781,-41.31903076171875,-0.0422773361206054,1011.998291015625
3.022828369140625,-0.5600478851001709,-0.1301478538593277,-2.034807207238674,-0.0083161005750298,-0.0869244262576103,-0.2065404057502746,0.0397939210854696,0.1176076996462496,1.974043638152994,-5.641249656677246,-20.57356834411621,-41.1912841796875,-0.0422773361206054,1011.998291015625
3.03289697265625,-0.6282998758103698,-0.0562877774763852,-2.087497763940692,0.0403674468398094,-0.0483795963227748,-0.2362674176692962,0.0396808125871665,0.1170092550686246,1.971804308235828,-5.516167640686035,-20.49922180175781,-41.20343017578125,-0.0422773361206054,1011.998291015625
3.04296533203125,-0.7070338783726096,0.0414979123625904,-2.04134274648726,0.0995793715119361,-0.0073496038094162,-0.2518905997276306,0.040085235076625,0.1168137922943637,1.969277204769104,-5.264333724975586,-20.423633575439453,-41.01776123046875,-0.0422773361206054,1011.998291015625
3.053033203125,-0.7488501359693706,0.1489279211204499,-1.9062468782991169,0.1634253561496734,0.0495452061295509,-0.2535500228404999,0.0410768798085357,0.117148357189385,1.9665814496597227,-5.159485816955566,-20.47376251220703,-41.31884765625,-0.0422773361206054,1011.998291015625
3.063102294921875,-0.7615323612794279,0.2044978691836819,-1.7102859147816896,0.2327138930559158,0.1331461071968078,-0.2440973967313766,0.0427623663320851,0.1181678858391272,1.9638427303057613,-5.269304275512695,-20.512208938598636,-40.91253662109375,-0.0422773361206054,1011.998291015625
3.073170166015625,-0.8006661017939448,0.2516280518122017,-1.4041858296781775,0.2864832580089569,0.2211795151233673,-0.2348894923925399,0.0450833685864767,0.120064819283537,1.9611305878179712,-5.296826362609863,-20.642616271972656,-41.1580810546875,-0.0422773361206054,1011.998291015625
3.08323828125,-0.8593954272035509,0.2867935828154906,-1.002647933036089,0.3193197548389435,0.2886365950107574,-0.2380639910697937,0.0478329900788414,0.1227499901251142,1.9583908793513864,-4.966121673583984,-20.77045440673828,-40.88525390625,-0.0422773361206054,1011.998291015625
3.09330712890625,-0.901539236254245,0.2820028048750013,-0.5900491286754608,0.3347070813179016,0.3222091794013977,-0.2542050778865814,0.050781277578087,0.1259804476148689,1.9555303919499645,-4.715126037597656,-20.710111618041992,-40.76275634765625,-0.0422773361206054,1011.998291015625
3.103375244140625,-0.9182495480366052,0.2422878304064273,-0.2157674877494573,0.3339768648147583,0.3499667942523956,-0.2874714136123657,0.0537851456923145,0.1295233735080581,1.9523910068559696,-4.768034934997559,-20.90470695495605,-40.86346435546875,-0.0422773361206054,1011.998291015625
3.113443359375,-0.924200857656449,0.2143336555540561,0.1818307313561439,0.3193518221378326,0.3649472594261169,-0.3177118897438049,0.0566457614418715,0.1333328584414931,1.9489460091532085,-4.42948055267334,-21.104093551635746,-41.456787109375,-0.0422773361206054,1011.998291015625
3.12351220703125,-0.8981263590708375,0.2074150718046352,0.502328175124526,0.2891571521759033,0.3421181142330169,-0.344712346792221,0.0592252279900252,0.1371285169883576,1.94521380152804,-4.145642280578613,-21.31564140319824,-40.8699951171875,-0.0422773361206054,1011.998291015625
3.133580078125,-0.7870049484491348,0.1851083282547071,0.6959241630762815,0.2704086899757385,0.2909841537475586,-0.3672435283660888,0.0615171297950329,0.1405806376394978,1.941259724353468,-4.236960411071777,-21.535987854003903,-40.675567626953125,-0.0422773361206054,1011.998291015625
3.1436484375,-0.6451704196557402,0.2112119433369487,0.8085247063398361,0.2638677060604095,0.2107082307338714,-0.3786487877368927,0.0636337865245976,0.1433817934948987,1.937139992437611,-4.014011383056641,-21.46030807495117,-40.68267822265625,-0.0422773361206054,1011.998291015625
3.15371728515625,-0.506985061019659,0.2992863865006714,0.8300637534528971,0.2847703397274017,0.0896269083023071,-0.3688624203205108,0.0657987270845488,0.1451873361684635,1.933003968612055,-4.010235786437988,-21.440088272094727,-40.65716552734375,-0.0422773361206054,1011.998291015625
3.163785400390625,-0.3573195463396608,0.4032371017754078,0.760071933338046,0.3422631919384002,-0.050650842487812,-0.3438329696655273,0.0683937229390786,0.1456582018772401,1.9289806940796363,-3.9526596069335938,-21.37527847290039,-40.282989501953125,-0.0422773361206054,1011.998291015625
3.173853271484375,-0.2195733097732067,0.4836642450563609,0.6428010601758957,0.4185485243797302,-0.1950175762176513,-0.3216795325279236,0.071689769246843,0.144678978422355,1.925088849113284,-4.03026008605957,-21.71440887451172,-40.845947265625,-0.0422773361206054,1011.998291015625
3.183922119140625,-0.1294870883956551,0.5543417093478142,0.4983166013956069,0.4988068640232086,-0.3243665397167206,-0.3102495074272156,0.0758105351905431,0.1423108526294531,1.921281603217443,-3.853903770446777,-21.706418991088867,-40.41012573242188,-0.0422773361206054,1011.998291015625
3.193990234375,-0.1162901915617287,0.6344271995842456,0.4097317244917154,0.5530439615249634,-0.4099977314472198,-0.3127608299255371,0.0806194844399967,0.1388831282331472,1.91744174320727,-4.038165092468262,-22.013208389282227,-40.25091552734375,-0.0422773361206054,1011.998291015625
3.204058349609375,-0.1384948629766702,0.728046636589244,0.4004109384387731,0.5739947557449341,-0.4454990029335022,-0.3251112401485443,0.0858200085489905,0.1348684202518551,1.9134727965912584,-4.053951263427734,-22.07051658630371,-40.02880859375,-0.0422773361206054,1011.998291015625
3.214127197265625,-0.1444600549913942,0.8082549494877457,0.408204953315854,0.5704463720321655,-0.4348553419113159,-0.3439115285873413,0.0911052201599346,0.1307715647925999,1.9093646334170864,-4.021963119506836,-22.14721298217773,-39.970306396484375,-0.0422773361206054,1011.998291015625
3.224195068359375,-0.1172962998643517,0.8744600906707346,0.4001619321137666,0.533802330493927,-0.3724683821201324,-0.3687074184417724,0.0961541391401378,0.127084921092504,1.9050756621307685,-4.117194175720215,-22.608497619628903,-39.828155517578125,-0.0422773361206054,1011.998291015625
3.23426318359375,-0.0668133362092077,0.9509971677105872,0.4163584491550922,0.4666680097579956,-0.2724060118198395,-0.3949061036109924,0.1006694518704803,0.1242609555828933,1.900600270365212,-4.373085975646973,-22.83121681213379,-39.870391845703125,-0.0422773361206054,1011.998291015625
3.244332275390625,0.0446271502990275,1.0135087881378828,0.4900649058789014,0.4003230929374695,-0.175044298171997,-0.4050114750862121,0.1045005330827673,0.1225054858045434,1.8960450658410064,-4.487701416015625,-23.05240631103516,-39.548736572265625,-0.0422773361206054,1011.998291015625
3.254400390625,0.2341320695448666,1.0466976487733424,0.5166764339506625,0.3373053669929504,-0.1191318780183792,-0.4088355004787445,0.1076738112035386,0.121535437076842,1.8914895961868163,-4.258251190185547,-23.30139923095703,-39.14453125,-0.0422773361206054,1011.998291015625
3.264468017578125,0.4203778408642858,1.052209032605961,0.4842810617804527,0.2952713370323181,-0.1122188419103622,-0.4060029685497284,0.1103267510038937,0.1208649560806019,1.8870093634911775,-4.24229907989502,-23.39457893371582,-39.25094604492188,-0.0422773361206054,1011.998291015625
3.274537353515625,0.6127099463600665,1.0923119834788142,0.4542302069097757,0.2672340869903564,-0.1347446888685226,-0.4095394909381866,0.1126298777251757,0.1201179263075233,1.8825638672048195,-3.994222640991211,-23.65354347229004,-39.28585815429688,-0.0422773361206054,1011.998291015625
3.284605224609375,0.8022942144524305,1.1371985153663904,0.4045692271620035,0.2480175048112869,-0.1790826022624969,-0.4134226441383362,0.1146873423618195,0.1190485693600787,1.8781081534316064,-4.246273040771484,-23.69246864318848,-39.4100341796875,-0.0422773361206054,1011.998291015625
3.294673095703125,0.9371552509713916,1.162836376100406,0.3367769629180431,0.2226095199584961,-0.2270066440105438,-0.4119714200496673,0.1165511899707558,0.1174925302733376,1.8736764912206283,-4.16961669921875,-23.859045028686523,-39.5081787109375,-0.0422773361206054,1011.998291015625
3.3047421875,1.0326786219015718,1.1857513877417891,0.2896364415585994,0.1949033290147781,-0.2399331033229828,-0.4087175726890564,0.1181511866484103,0.1156217007689561,1.8693084033760865,-4.17131233215332,-23.94185447692871,-39.36148071289063,-0.0422773361206054,1011.998291015625
3.31481005859375,1.1046645384430884,1.2447605530060828,0.2584218036055565,0.1500097811222076,-0.2343254834413528,-0.395102858543396,0.1194166214748653,0.113719922465402,1.8650532775756248,-4.19621467590332,-24.042774200439453,-39.089141845703125,-0.0422773361206054,1011.998291015625
3.324878173828125,1.194642257944867,1.2839189895704388,0.1817225948065519,0.1082111895084381,-0.2122369706630706,-0.3814696073532104,0.1202571399140202,0.1119479500770933,1.8609885099874703,-3.966446876525879,-24.16339874267578,-39.08587646484375,-0.0422773361206054,1011.998291015625
3.334947509765625,1.3024591471284628,1.3299601713858544,0.065679802134633,0.0691154524683952,-0.1762099862098693,-0.3561458885669708,0.1206980197358898,0.1104302171465994,1.8571737836376176,-4.091340065002441,-24.163419723510746,-39.21554565429688,-0.0422773361206054,1011.998291015625
3.345015380859375,1.3975205265700816,1.3526838982388376,-0.0512543864190578,0.0398409217596054,-0.1183826476335525,-0.3256462812423706,0.1208495527891509,0.1093454709731323,1.8536872514953069,-4.194368362426758,-24.452775955200195,-38.937286376953125,-0.0422773361206054,1011.998291015625
3.3550830078125,1.4505077281311154,1.4014075971364974,-0.1569458809465169,0.0266934111714363,-0.0487844385206699,-0.2847940921783447,0.1208282016641828,0.1088487858358623,1.850566295609103,-4.068815231323242,-24.702112197875977,-38.91900634765625,-0.0422773361206054,1011.998291015625
3.36515234375,1.4946180880144238,1.44302058724612,-0.2068050136148929,0.0271421521902084,0.0314241163432598,-0.2377045899629593,0.1207835177694936,0.1090680395029357,1.847887337418448,-4.191920280456543,-24.451141357421875,-39.30120849609375,-0.0422773361206054,1011.998291015625
3.37522021484375,1.5359849944084882,1.4367276245817542,-0.2034942816317081,0.0542422011494636,0.1024306043982505,-0.182113915681839,0.1209363853566988,0.1100064464013651,1.8457244875370509,-4.205641746520996,-24.493608474731445,-38.988616943359375,-0.0422773361206054,1011.998291015625
3.385288330078125,1.559215647870302,1.3728339752115308,-0.1519733532309532,0.0850621610879898,0.1530991196632385,-0.12825708091259,0.1214438037359075,0.1114942742714349,1.844078357089743,-3.950583457946777,-24.621559143066406,-38.786376953125,-0.0422773361206054,1011.998291015625
3.395357177734375,1.5670093704864383,1.2943506594747305,-0.0178852007806301,0.1077280491590499,0.1763862371444702,-0.0777619928121566,0.1222817739812678,0.1133146136483223,1.842942030782936,-3.759563446044922,-24.654253005981445,-38.863311767578125,-0.0422773361206054,1011.998291015625
3.4054248046875,1.5327631097525358,1.2177787303172052,0.1734042637944221,0.113722026348114,0.1675035208463668,-0.033536747097969,0.1233162517584658,0.1151222565917285,1.842253369349234,-3.790768623352051,-24.586469650268555,-38.9302978515625,-0.0422773361206054,1011.998291015625
3.41549267578125,1.5271008462071418,1.1193025739960372,0.319518369603157,0.1000803261995315,0.1205820366740226,0.0010073259472846,0.124360357397363,0.1166055337691717,1.8419776803625845,-3.857952117919922,-24.63971328735352,-38.972259521484375,-0.0422773361206054,1011.998291015625
3.425560791015625,1.5055214670836925,0.9918412923395632,0.3959019365817308,0.0777252167463302,0.0748113542795181,0.0304107535630464,0.1252399881359026,0.1175818215735739,1.842038214866264,-3.821444511413574,-24.66872978210449,-38.77923583984375,-0.0422773361206054,1011.998291015625
3.4356298828125,1.4415337096892296,0.8753877269096672,0.4508487477779388,0.0559172146022319,0.0428834110498428,0.0521941184997558,0.1259438289010684,0.1181129957545309,1.8423764449415996,-3.903360366821289,-24.69371223449707,-38.839874267578125,-0.0422773361206054,1011.998291015625
3.44569775390625,1.3730031942985952,0.798102242655307,0.4844739540040492,0.0322678089141845,0.0334377102553844,0.0729241669178009,0.1264439518492182,0.1183989786202871,1.8429440135743584,-3.775498390197754,-24.691282272338867,-39.0758056640625,-0.0422773361206054,1011.998291015625
3.455766845703125,1.2925243208304047,0.7747619913391769,0.5070440977305174,-0.0008285623043775,0.0496935434639453,0.0935006141662597,0.1266750111842665,0.1186940891552692,1.8437715741124383,-3.814668655395508,-24.703842163085938,-39.12081909179688,-0.0422773361206054,1011.998291015625
3.465834716796875,1.2208623024810106,0.7592297834254801,0.5257113887995482,-0.0325228422880172,0.0773158520460128,0.1234092414379119,0.126247422320502,0.1195691085060157,1.844841442540868,-3.735104560852051,-24.84418296813965,-38.623779296875,-0.0422773361206054,1011.998291015625
3.47590283203125,1.1331503359541295,0.7310019061982631,0.5174205303162336,-0.0616087391972541,0.1043662726879119,0.1575193256139755,0.1256223258030683,0.120662021256276,1.8462776506289893,-3.6660890579223633,-24.641136169433597,-38.867523193359375,-0.0422773361206054,1011.998291015625
3.485970947265625,1.0499592809177936,0.7248753861419857,0.5205582438200712,-0.090321347117424,0.1202648058533668,0.1886210441589355,0.1248081187176564,0.1218882058097996,1.8480892981873207,-3.590415000915528,-24.76453018188477,-38.961212158203125,-0.04217559895431509,1011.998281468873
3.496039794921875,0.9862227218054236,0.698355189615488,0.4980570736765861,-0.1157435476779937,0.1343442797660827,0.215533509850502,0.1238050474468222,0.1232042704842086,1.8502087567797565,-3.746622085571289,-24.78080940246582,-38.92105102539063,-0.04206947714208015,1011.9982715106771
3.506107666015625,0.8707209772076457,0.6380832378737628,0.4854150342464446,-0.1324104070663452,0.1530359387397766,0.241443395614624,0.1226551804693322,0.1246565639259547,1.8526278141913368,-3.714766502380371,-24.41960334777832,-39.03829956054688,-0.04196336562244132,1011.998261553447
3.516176025390625,0.7664221060823648,0.575298791854456,0.5141968920946121,-0.1514932364225387,0.1582454293966293,0.2664443850517273,0.1213857203137411,0.1262175600167767,1.855320172429714,-3.8249683380126953,-24.37071418762207,-39.24728393554688,-0.04185724895650444,1011.9982515957341
3.526244873046875,0.7185293781161308,0.5257360848493874,0.506884523254633,-0.1594720631837844,0.1484668403863906,0.2959417998790741,0.120014388843121,0.1277467676630996,1.8583192151869312,-3.924427032470703,-24.338134765625,-39.221466064453125,-0.0417511271442695,1011.9982416375383
3.53631298828125,0.7127255141429603,0.4526384076736867,0.4764034602731466,-0.1596806943416595,0.1161723732948303,0.3234527707099914,0.118700445157544,0.1289317701962259,1.8616107547760912,-3.819591522216797,-24.336381912231445,-39.330902099609375,-0.04164501305148165,1011.9982316800667
3.546380859375,0.6898036343693733,0.3926838513180613,0.4248018678516149,-0.1474077850580215,0.0758073776960372,0.3500857055187225,0.1175070599933003,0.1296444692799726,1.865179726386803,-3.854190826416016,-24.132049560546875,-39.202392578125,-0.04153890153184282,1011.9982217228368
3.556449951171875,0.6250801100462675,0.336349604351446,0.4117985938936471,-0.1380283087491989,0.0272237174212932,0.3683301210403442,0.1164704473476085,0.1298537782752847,1.8689604535800373,-3.789569854736328,-24.096174240112305,-39.34274291992188,-0.041432777146458856,1011.9982117643995
3.566517822265625,0.5259302922472358,0.3014909838728606,0.4134335016191005,-0.1397915929555893,-0.0188316591084003,0.3799047470092773,0.1155033494660364,0.1295385190418687,1.872886803769349,-3.673370361328125,-23.95076942443848,-39.31704711914063,-0.041326665626820025,1011.9982018071694
3.576585693359375,0.4236123658061027,0.2506874830264598,0.4106868332594633,-0.140464037656784,-0.0391174480319023,0.387424886226654,0.114543164176777,0.1288854906037087,1.8769040573101488,-4.123626708984375,-23.85421562194824,-39.2933349609375,-0.0412205541071812,1011.9981918499394
3.58665478515625,0.3166593269102275,0.1948575323201715,0.4451689485758542,-0.1479797512292862,-0.0425790250301361,0.3840722143650055,0.113589378184062,0.128000242967952,1.880977365262732,-4.159358978271484,-23.72195243835449,-39.419189453125,-0.041114429721797234,1011.9981818915021
3.59672265625,0.2320747716888785,0.1320107616543769,0.4855886372476816,-0.1723733842372894,-0.0302273444831371,0.3804267644882202,0.1124684472360397,0.1271674218734604,1.8850296872731205,-4.058141708374023,-23.592538833618164,-39.330474853515625,-0.04100831820215841,1011.998171934272
3.606790771484375,0.168011903231591,0.0692377868771553,0.5118599735796451,-0.2041978985071182,-0.0128544811159372,0.374349981546402,0.1110634994030451,0.1265145367278163,1.8890648520054425,-4.273274421691895,-23.667999267578125,-39.631134033203125,-0.04090220410937055,1011.9981619768006
3.61685986328125,0.13743220218122,0.0020119974095374,0.5151917483508587,-0.2388346195220947,-0.0155052272602915,0.3672516345977783,0.1093094399940577,0.1259383509869335,1.8930864152797515,-4.40659236907959,-23.413837432861328,-39.431060791015625,-0.04079607972398659,1011.9981520183633
3.626927734375,0.1254029608871787,-0.0455576360821723,0.4786772504240274,-0.2725236117839813,-0.0266007557511329,0.3587745428085327,0.1071928741075687,0.1253119673991483,1.8970696904301596,-4.448531150817871,-23.2791805267334,-39.381134033203125,-0.04068996820434776,1011.9981420611332
3.63699560546875,0.1350353701725602,-0.0830316266909241,0.4031652055829763,-0.28786700963974,-0.0388368964195251,0.3564409911632538,0.104807790499264,0.1245784066227404,1.9010238891725093,-4.477540016174316,-23.211557388305664,-39.044189453125,-0.04058385668470894,1011.9981321039031
3.64706494140625,0.1337654963672161,-0.1211013181705027,0.2892003882288932,-0.2831452190876007,-0.078464463353157,0.3646251559257507,0.1023775736202989,0.1235804310310077,1.9050043566146213,-4.499342918395996,-23.25798225402832,-39.53433227539063,-0.040477729726175936,1011.9981221452244
3.6571328125,0.1297330259807407,-0.1512432123254984,0.1298152974367141,-0.2685999274253845,-0.128873735666275,0.3685471713542938,0.1000550085140528,0.1221287626556468,1.9090312691588571,-4.648416519165039,-23.004419326782227,-39.476593017578125,-0.04037161820653711,1011.9981121879944
3.667200927734375,0.0931139717008918,-0.1701157436430454,0.0025771570116281,-0.2463918328285217,-0.1684613525867462,0.3707213997840881,0.0979217350208646,0.1202295011948399,1.9130640776958852,-4.974539756774902,-22.740327835083008,-39.285888671875,-0.04026550411374926,1011.9981022305228
3.677269775390625,0.0301633753344416,-0.1901428518231958,-0.0589671527534723,-0.2177558094263076,-0.1846393644809723,0.3729757666587829,0.0960385380949798,0.1180565497452142,1.9170751133493948,-4.705885887145996,-22.620790481567383,-39.4842529296875,-0.04015938230151432,1011.998092272327
3.687337890625,-0.0347641471281647,-0.2233622537273913,-0.0989677392303943,-0.1969426721334457,-0.1948866695165634,0.3732292950153351,0.0943984362797074,0.1157524125417658,1.9210642886047704,-4.964555740356445,-22.491527557373047,-39.75860595703125,-0.04005326820872647,1011.9980823148555
3.69740576171875,-0.1193629500705748,-0.2708106719922274,-0.100279406350851,-0.1751997321844101,-0.1923300623893737,0.3713736832141876,0.0929564290110904,0.1134128396086169,1.925020264304032,-5.275576591491699,-22.51820373535156,-39.649993896484375,-0.03994715668908764,1011.9980723576255
3.70747509765625,-0.2089779737398028,-0.3028447365693748,-0.0898556274920702,-0.1409924924373626,-0.1863568574190139,0.3650923371315002,0.0917752816410746,0.1111471587941149,1.9288989000089785,-5.51991081237793,-22.63112449645996,-40.033599853515625,-0.039841029730554645,1011.9980623989467
3.717542724609375,-0.3028204789109527,-0.3548459958329796,-0.079050155839324,-0.1107467338442802,-0.1881290078163147,0.3524998426437378,0.0909093338144475,0.1089051239064309,1.9326433120867752,-5.596732139587402,-22.580846786499023,-39.83624267578125,-0.03973492078406485,1011.9980524419582
3.727610595703125,-0.3322659152343869,-0.4579324954938143,-0.0709843382835388,-0.0846363082528114,-0.1741463392972946,0.328389436006546,0.0902672305095609,0.1067532461657177,1.9361736487891965,-5.537413597106934,-22.4965763092041,-40.1695556640625,-0.039628809264426024,1011.9980424847281
3.737679931640625,-0.2903248622141778,-0.6351626742519438,-0.0628781887173652,-0.0612826943397522,-0.1365898102521896,0.2972923815250397,0.0898628277645652,0.1048961427488185,1.939400413302054,-5.710404396057129,-22.256237030029297,-39.87106323242188,-0.03952268230589302,1011.9980325260493
3.747747802734375,-0.2609570211715996,-0.7895958417251706,-0.0109638770848512,-0.0391028225421905,-0.0986751765012741,0.2706698477268219,0.0896629216633803,0.1034576869074718,1.942296080951462,-5.947426795959473,-22.073610305786133,-40.12158203125,-0.0394165707862542,1011.9980225688194
3.75781591796875,-0.2647108938124031,-0.8547090960182249,0.1086053361475467,-0.0412423983216285,-0.0751356780529022,0.2417093217372894,0.0895382236204677,0.1023643368395785,1.944912775169786,-5.86588191986084,-22.03368377685547,-40.162445068359375,-0.03931045669346635,1011.9980126113478
3.767884765625,-0.2671379017636179,-0.8616427677389233,0.2556505853265524,-0.0586466863751411,-0.0660202056169509,0.2084869295358657,0.0892726272640018,0.1014412855196281,1.947214796168804,-6.039434432983398,-22.17319107055664,-40.035064697265625,-0.03920433488123141,1011.998002653152
3.777952880859375,-0.2638214706920087,-0.8833818674687296,0.3628489772856235,-0.0740463510155677,-0.0678507462143898,0.1871240139007568,0.0887781361409419,0.1006028092142323,1.9492820230205683,-6.247329711914063,-21.99983787536621,-40.53607177734375,-0.03909822078844355,1011.9979926956805
3.788020751953125,-0.2406736001428216,-0.9386200628269464,0.3798240774840116,-0.0922834128141403,-0.1048130244016647,0.1534826904535293,0.0881172019907945,0.0995855445215861,1.95108366909086,-6.321617126464844,-21.884675979614254,-39.93328857421875,-0.038992109268804725,1011.9979827384504
3.798090087890625,-0.1958867292374372,-0.9946866718333214,0.3306511735141277,-0.1004735082387924,-0.1318774819374084,0.1123890727758407,0.0872642659862074,0.0982650482478202,1.95251403469209,-6.430601119995117,-21.81831169128418,-40.32708740234375,-0.03888598231027173,1011.9979727797717
3.80815771484375,-0.1566752473115921,-1.052103599470109,0.2724532515674829,-0.0877174958586692,-0.135697528719902,0.0811208933591842,0.0864110430490858,0.0968104923195028,1.9535760737874048,-6.510348320007324,-21.72505187988281,-40.16079711914063,-0.038779873363781935,1011.9979628227832
3.818225830078125,-0.14820019136779,-1.0528183966759592,0.1917845546156167,-0.0603895746171474,-0.1376229971647262,0.0476529672741889,0.0857252672435589,0.0953640439311626,1.9542924449162729,-6.395033836364746,-21.76607894897461,-39.854248046875,-0.03867375927099408,1011.9979528653116
3.828294921875,-0.1289497666485607,-1.0311384067222475,0.1085235030829906,-0.0213407091796398,-0.1261367797851562,0.0220677144825458,0.0853405988983893,0.0939971896621737,1.9546801246915928,-6.260946273803711,-21.549318313598636,-39.93475341796875,-0.038567634885610116,1011.9979429068743
3.838363037109375,-0.0936146146994084,-1.0082725679848343,0.0565267738640308,0.0153799736872315,-0.1181040182709693,-0.0053787385113537,0.0853223498217124,0.0927797737609109,1.9547687793995747,-6.600400924682617,-21.522764205932617,-40.257659912109375,-0.03846152079282226,1011.9979329494029
3.848430908203125,-0.0634984395075589,-1.0145005756542087,-0.0007429273217916,0.0338628441095352,-0.1390361934900283,-0.0407796055078506,0.0855578803710558,0.0915164848084499,1.9545121246750208,-6.593441963195801,-21.600831985473636,-40.0233154296875,-0.038355409273183434,1011.9979229921728
3.858499755859375,-0.0148584003053605,-0.9613891631916164,-0.0651385348647832,0.0229823626577854,-0.1623303145170211,-0.0705545917153358,0.086184789623123,0.0899673602127405,1.953930684000649,-6.741359710693359,-21.599952697753903,-39.838470458984375,-0.038249287460948495,1011.9979130339769
3.86856787109375,0.0559364798206835,-0.908849120876193,-0.1010784477740526,0.0176627002656459,-0.1672797948122024,-0.0962620824575424,0.0868451417406585,0.0883254501655453,1.9530765012167504,-6.870121002197266,-21.517438888549805,-39.54660034179688,-0.038143173368160636,1011.9979030765054
3.8786357421875,0.1299373894464224,-0.8957381487600505,-0.2273211474210023,0.0296104028820991,-0.1683203279972076,-0.116812489926815,0.0875285640232003,0.0867080210397588,1.9519836691206496,-6.740811347961426,-21.744781494140625,-40.213470458984375,-0.03803706184852182,1011.9978931192754
3.888704833984375,0.17415420537889,-0.8341010461449623,-0.4035129961073398,0.0676794871687889,-0.1462003886699676,-0.1297035217285156,0.0883696522923739,0.0852154766784723,1.9506993243880508,-6.869954109191895,-21.753782272338867,-39.644073486328125,-0.037930937463137845,1011.9978831608381
3.898772705078125,0.1906647568054497,-0.719996820320189,-0.5009440272897482,0.1215516850352287,-0.1084101125597953,-0.1372757852077484,0.0895115222219124,0.0840351149810033,1.949276424336988,-6.75081729888916,-21.89776039123535,-39.478271484375,-0.03782482594349902,1011.997873203608
3.9088408203125,0.2117682620454579,-0.6356997037380934,-0.5296078117161989,0.1790762394666671,-0.067844845354557,-0.1307736784219741,0.0911408093834317,0.0832936501657628,1.9477892846855012,-6.622661590576172,-21.876855850219727,-39.20269775390625,-0.03771871185071117,1011.9978632461366
3.91890966796875,0.2302528169587254,-0.5948106439888476,-0.4761299040287732,0.2257089167833328,-0.037973579019308,-0.1222861930727958,0.0932593944066702,0.0829020291848611,1.9463322714060665,-6.734046936035156,-21.81298065185547,-39.31442260742188,-0.03761259003847623,1011.9978532879408
3.92897802734375,0.2559972068071365,-0.5803183735821396,-0.3377501918643713,0.2515149712562561,0.0063342303037643,-0.1146762073040008,0.0957554173858638,0.0828748561656026,1.9449344950369252,-6.386796951293945,-21.806442260742188,-39.097015380859375,-0.037506473372539345,1011.9978433302277
3.9390458984375,0.3175166743919253,-0.6380548154968768,-0.1967705263346433,0.2645818591117859,0.035437949001789,-0.1055186241865158,0.098440767488952,0.0832177943157064,1.943594707318466,-6.736035346984863,-21.72743797302246,-39.076904296875,-0.03740036185290052,1011.9978333729978
3.94911474609375,0.3968614292636513,-0.7227985798679292,-0.1064461122870445,0.2739101052284241,0.0154738305136561,-0.0980322062969207,0.1011960802326224,0.083667973072301,1.9423441505216683,-6.614666938781738,-21.82904624938965,-39.06216430664063,-0.03729424004066558,1011.9978234148019
3.959182861328125,0.4487419116917997,-0.7830151481606066,-0.1887730978399515,0.2638818621635437,-0.0440522879362106,-0.1125961616635322,0.1039047749305278,0.0836804578910983,1.941072327793398,-6.918366432189941,-22.072660446166992,-39.05560302734375,-0.03718812594787772,1011.9978134573304
3.9692509765625,0.4518232918985188,-0.7809266514487564,-0.3303337781280279,0.2469801008701324,-0.1143687963485717,-0.1475597470998764,0.1064511438255344,0.0830471185449952,1.9395606848190856,-6.913173675537109,-22.11080741882324,-39.079345703125,-0.03708201185508987,1011.997803499859
3.97931982421875,0.4151197011403739,-0.7769324672460556,-0.4955085582375526,0.1980200260877609,-0.2053679376840591,-0.2035266011953354,0.1086104153400855,0.0816847553858853,1.9376111966024732,-7.071877479553223,-22.061485290527344,-38.92007446289063,-0.03697589004285493,1011.9977935416631
3.989387939453125,0.326859087754786,-0.6927018400289118,-0.7193208207547664,0.120009645819664,-0.2859160304069519,-0.2806299030780792,0.1100517743312692,0.079477242699261,1.9350305959884555,-6.887821197509766,-22.24203491210937,-38.87368774414063,-0.03686977595006708,1011.9977835841916
3.999455810546875,0.1996418439872563,-0.5301017327129841,-0.9577397007733582,0.0380166992545127,-0.3132292330265045,-0.3501913845539093,0.1106140670347197,0.0767744812584764,1.9317746929481328,-6.920231819152832,-22.532405853271484,-38.765655517578125,-0.03676366443042825,1011.9977736269616
4.00952490234375,0.0973254519160836,-0.3090068393956869,-1.1887743157595396,-0.0302097592502832,-0.285920649766922,-0.3956398069858551,0.1103152368166133,0.0741509369478412,1.9279873185201133,-7.0915374755859375,-22.540950775146484,-38.839202880859375,-0.03665754004504429,1011.9977636685243
4.0195927734375,0.024188977099955,-0.0534154369104653,-1.4943348871588706,-0.0768460035324096,-0.2418206483125686,-0.4140771925449371,0.1094105769701814,0.0719387925218901,1.9239145989534632,-7.04107666015625,-22.540456771850582,-39.01925659179688,-0.03655142852540546,1011.9977537112942
4.029660888671875,-0.0046685032676905,0.1754769053500145,-1.7938947568386792,-0.0963507294654846,-0.2139346897602081,-0.4193934202194214,0.1081925053374952,0.0701111839097895,1.919760980800643,-6.901137351989746,-22.422008514404297,-38.690460205078125,-0.0364453144326176,1011.9977437538228
4.039729736328125,-0.0205921947170048,0.3894530527032911,-2.0283780509740112,-0.086554117500782,-0.2004707902669906,-0.4060316085815429,0.106964133170586,0.0684776086884987,1.915654454789229,-6.844488143920898,-22.465341567993164,-39.003509521484375,-0.03633919262038267,1011.9977337956268
4.049797607421875,-0.0301370718494057,0.5936773291099816,-2.2475620691686866,-0.0501042306423187,-0.1731640696525573,-0.3890877962112427,0.1059941615750804,0.0670060884687064,1.911680227584851,-6.936171531677246,-22.594409942626957,-38.97433471679688,-0.03623308110074384,1011.9977238383968
4.059865966796875,-0.0390353216413408,0.8112108766838908,-2.3274971911489963,0.0112828826531767,-0.1185334846377372,-0.3575916588306427,0.105545116954344,0.0659182003944165,1.907920069850377,-7.068303108215332,-22.39305686950684,-38.618896484375,-0.03612696443480696,1011.9977138806838
4.069934814453125,-0.0266126240503042,0.9843755595687776,-2.295724919313192,0.0789093300700187,-0.0348207466304302,-0.3098020553588867,0.1057634240674841,0.0654888814741291,1.904517328301216,-7.017937660217285,-22.35776710510254,-38.9488525390625,-0.03602084262257202,1011.997703922488
4.080002685546875,-0.031741438306123,1.0930576142143458,-2.157189724326133,0.154370442032814,0.0873729512095451,-0.2379785925149917,0.1067501581176052,0.0660382886567102,1.9016581474458885,-6.835070610046387,-22.30496597290039,-38.83560180664063,-0.035914731102933195,1011.997693965258
4.09007080078125,-0.0866820389572531,1.1790821391109376,-1.8017752809554335,0.2151387184858322,0.221520647406578,-0.1507337093353271,0.1084673333889835,0.0678220784640808,1.8995561812620307,-6.809496879577637,-22.28091049194336,-38.8753662109375,-0.035808617010145344,1011.9976840077865
4.100139892578125,-0.1805431757636368,1.238303339690715,-1.3178081074297427,0.2620852589607239,0.3200960457324981,-0.056030236184597,0.1107970582971903,0.0707213483900852,1.8983478037169692,-6.590338706970215,-22.620166778564453,-38.31564331054688,-0.03570249262476138,1011.9976740493491
4.110207763671875,-0.3046738516926765,1.2138231976244598,-0.8846049064576625,0.3061587214469909,0.3492070734500885,0.0245873779058456,0.1136286458138385,0.0741707123038584,1.897991867073073,-6.283326148986816,-22.647743225097656,-38.20794677734375,-0.035596381105122546,1011.9976640921192
4.120276123046875,-0.451001673317328,1.1597528039366003,-0.5152870254188776,0.3531893193721771,0.3290331065654754,0.0886159241199493,0.1169720335411112,0.0775720330692986,1.8983282312035623,-6.195379257202148,-22.96502685546875,-38.06588745117188,-0.03549026443918566,1011.9976541344062
4.1303447265625,-0.5897611785795539,1.068320793973282,-0.1592214246630668,0.413383424282074,0.2663010060787201,0.1248697936534881,0.1208903642646834,0.0805119266402435,1.899111697244596,-6.553718566894531,-22.792821884155277,-37.72650146484375,-0.035384145200099755,1011.9976441764518
4.140412841796875,-0.7036264080166816,0.9167468883886932,0.1411363173961639,0.4765064418315887,0.1726089715957641,0.1403695791959762,0.1254577406559867,0.08260895653773,1.9001095321802324,-6.010581016540527,-23.01278114318848,-38.076751708984375,-0.0352780311073119,1011.9976342189804
4.15048095703125,-0.8202962465457617,0.7478324833594262,0.4336620506554842,0.5423142313957214,0.0877071395516395,0.138294979929924,0.1306913018374476,0.0838026929681682,1.901101236558175,-6.180826187133789,-22.98550033569336,-38.1055908203125,-0.035171917014524046,1011.9976242615088
4.160550048828125,-0.9190359491739422,0.5849801548480987,0.7138461887359618,0.5951505899429321,0.0008730292320251,0.1131272390484809,0.1365215975756517,0.0841445839464055,1.9019031243303128,-6.373010635375977,-23.08816337585449,-38.322540283203125,-0.03506579262914007,1011.9976143030715
4.17061767578125,-1.031994585160166,0.4685001398026943,0.9445540559858084,0.6136089563369751,-0.0844930037856102,0.0639692768454551,0.1426787111230257,0.0836433636956872,1.9022954131609249,-6.299860000610352,-23.300954818725582,-38.190704345703125,-0.03495968368265029,1011.997604346083
4.180685791015625,-1.1342805820930748,0.4197555442474782,1.117472582089901,0.5952929854393005,-0.1573634147644043,-0.0154546275734901,0.1487897758445346,0.0824267020621741,1.902051810595942,-6.358465194702148,-23.715229034423828,-37.35665893554688,-0.03485356958986243,1011.9975943886114
4.1907548828125,-1.231228725129366,0.4157730504825711,1.259281684181094,0.5398747324943542,-0.1974317282438278,-0.1215645521879196,0.154460699701375,0.0807921874355067,1.9008870326459515,-6.209450721740723,-23.96322059631348,-37.580902099609375,-0.034747445204478464,1011.9975844301741
4.20082275390625,-1.2921858826562762,0.4556900503292679,1.349177059161663,0.4570104777812958,-0.1976584792137146,-0.234913945198059,0.1593387060985657,0.0791393959090255,1.89867557985402,-6.421491622924805,-23.95623207092285,-37.498321533203125,-0.03464133368483963,1011.9975744729442
4.210890869140625,-1.2499021536782384,0.5115111601419746,1.3974585672497748,0.3480997085571289,-0.1654499322175979,-0.3357675969600677,0.1631578235691352,0.0778147123219966,1.895437416653889,-6.339234352111816,-24.296798706054688,-37.15484619140625,-0.034535219592051775,1011.9975645154726
4.220959716796875,-1.112308038933575,0.6029673546984792,1.4019371739685536,0.2458181679248809,-0.1058093905448913,-0.4063686430454254,0.1658365715547517,0.0770965494942192,1.891397895898678,-6.410279273986816,-24.5908145904541,-37.350860595703125,-0.03442909777981684,1011.9975545572768
4.23102783203125,-0.9726490275483578,0.7107509991995989,1.3167565525501963,0.1592965871095657,-0.0414293408393859,-0.4504077434539795,0.1675122716254521,0.0771134343352065,1.8868535465846377,-6.262567520141602,-24.802026748657227,-37.066192626953125,-0.034322983687028984,1011.9975445998052
4.241095703125,-0.7862623864535242,0.8148514251433312,1.180501577454805,0.1111394464969635,-0.0046566361561417,-0.4727168679237366,0.16848241613688,0.0777069706028697,1.8820412278710288,-6.233800888061523,-25.13650321960449,-36.623138427734375,-0.03421687216739017,1011.9975346425753
