Timestamp,Acc x (m/s^2),Acc y (m/s^2),Acc z (m/s^2),Gyro x (rad/s),Gyro y (rad/s),Gyro z (rad/s),Beccheggio/Pitch (rad/s),Rollio/Roll (rad/s),Imbardata/Yaw (rad/s),Mag x (microTesla),Mag y (microTesla),Mag z (microTesla),Altitudine (m),Pressione (milliBar)
0.0783876953125,0.0137068921826779,-0.1538270182736218,0.1390238552868366,-0.1925484389066696,0.0093590896576642,0.0431192219257354,0.2037849036657796,0.0837283267306171,2.050445623397485,-7.876546859741211,-26.22644805908203,-36.42547607421875,-0.004639948461374265,1011.9428903722285
0.08845556640625,0.1004749289229512,-0.1254592941842973,0.1044417867273092,-0.1877825409173965,-0.0320914462208747,0.0542656742036342,0.201924494423111,0.0834640419468869,2.0511001862578504,-8.015935897827148,-25.73980712890625,-36.222900390625,-0.004719588431011261,1011.942898036366
0.098524169921875,0.1263321314960718,-0.0992743209615349,0.0450754055231809,-0.171402245759964,-0.0595233365893363,0.0667633563280105,0.2001646313528852,0.0828434769997431,2.0518611832009284,-8.001832008361816,-25.921297073364254,-36.4337158203125,-0.004799234194331484,1011.9429057010612
0.108592529296875,0.1261426002733409,-0.1072195808775722,-0.0535001195192337,-0.1512270122766494,-0.0547197610139846,0.087054967880249,0.198606427486959,0.082071856106366,2.0527841229770694,-7.89875602722168,-25.961231231689453,-36.53021240234375,-0.004878878026423966,1011.9429133655705
0.11866162109375,0.1195999736968427,-0.1320278589196503,-0.1055856960654258,-0.1202936023473739,-0.0400910191237926,0.1076292172074318,0.1973335608080614,0.0813907935844321,2.0538986736529794,-7.996208190917969,-26.141719818115234,-36.263031005859375,-0.004958527652199674,1011.9429210306373
0.1287294921875,0.0593457768075168,-0.1318590782240033,-0.1220481705665588,-0.0976519584655761,-0.035338144749403,0.1134488880634307,0.1964486584474916,0.0806844030130485,2.055156982520861,-8.163494110107422,-25.887210845947266,-36.12847900390625,-0.00503816762183667,1011.9429286947749
0.13879736328125,-0.0314754077810794,-0.1472397488377988,-0.0961982745170593,-0.0854219198226928,-0.0199647806584835,0.1000143066048622,0.1957519280736894,0.0801260656749285,2.05634677841539,-8.06006145477295,-26.04833221435547,-36.694183349609375,-0.005117807591473668,1011.9429363589124
0.148866455078125,-0.0619300211470574,-0.1968016521252691,0.0052408232629299,-0.0971445143222808,-0.0236342810094356,0.0863415598869323,0.1950642002876376,0.079701991289669,2.057382929014786,-8.129718780517578,-25.872846603393555,-36.564971923828125,-0.0051974572172493756,1011.9429440239793
0.158934326171875,-0.0663921881876885,-0.2513920510992408,0.0802612851947545,-0.1377659738063812,-0.028801079839468,0.0588097982108593,0.1940872449661982,0.0793094025607494,2.0582367153146524,-8.166877746582031,-25.752166748046875,-36.6014404296875,-0.005277097186886372,1011.9429516881169
0.16900341796875,-0.1015618473768234,-0.3192185098737478,0.1583522406131029,-0.1772729009389877,-0.0327528119087219,0.0424293167889118,0.192652557390402,0.0789444939248386,2.058876338162558,-8.133605003356934,-25.56515121459961,-36.93853759765625,-0.005356746812662082,1011.9429593531837
0.1790712890625,-0.1268549132611602,-0.3222207604296505,0.1172059912323951,-0.1947885155677795,-0.040753211826086,0.0255675129592418,0.1908795950487015,0.0785591598317051,2.0593555276582003,-8.364352226257324,-25.497556686401367,-37.126708984375,-0.005436386782299078,1011.9429670173213
0.189140380859375,-0.1149516364343464,-0.2810619438283145,-0.040882630008459,-0.1816311776638031,-0.0481882281601429,0.0097296144813299,0.189078024441269,0.078102610688865,2.0596750028591666,-8.25545597076416,-25.54364013671875,-37.01898193359375,-0.005516036408074786,1011.9429746823881
0.19920849609375,-0.0642700814671814,-0.2301398581035435,-0.1780003594130277,-0.155411034822464,-0.0377984382212162,-0.00607171934098,0.1874672691134452,0.0777094660331969,2.05981253945082,-8.212532043457031,-25.574352264404297,-36.926361083984375,-0.005595678308939525,1011.9429823467116
0.20927734375,-0.0097184801336377,-0.1911208300098776,-0.2511690559983253,-0.12207942456007,-0.0141105502843856,-0.0059284521266818,0.1861590471470007,0.0774790613125375,2.059842451926877,-8.261761665344238,-25.097484588623047,-36.78704833984375,-0.00567532600348749,1011.9429900115925
0.21934521484375,0.0225435479804873,-0.1599744349874556,-0.2705687529951334,-0.0889504998922348,-0.0115062445402145,0.0021092342212796,0.1851831800540861,0.0773620401851559,2.0599011606139728,-8.323301315307617,-25.529930114746094,-37.17523193359375,-0.005754965973124487,1011.9429976757302
0.22941455078125,0.0567546643357723,-0.1301160339489579,-0.2854991956233978,-0.0600280351936817,-0.0182243026793003,0.0049690920859575,0.1845706233874687,0.0771877240932668,2.060000896237037,-8.249089241027832,-25.16985511779785,-37.191680908203125,-0.0058346175301279375,1011.9430053409828
0.239482421875,0.0643193274363875,-0.1350542210035026,-0.2324947506666183,-0.0525623969733715,-0.0342072620987892,-0.0009362013079226,0.1841670369022058,0.0769086491669985,2.060068631638494,-8.214202880859375,-25.25871086120605,-36.80636596679688,-0.005914257499764934,1011.9430130051204
0.249550537109375,0.0764656192388385,-0.1806668021433055,-0.1855225716114044,-0.0590306930243968,-0.0414561554789543,-0.0091091487556695,0.1837662873686233,0.076479955524423,2.0600596905628183,-8.285543441772461,-25.38394546508789,-37.32135009765625,-0.005993899400629674,1011.9430206694439
0.259619384765625,0.0908170929353684,-0.1965815796338021,-0.1379091720432043,-0.066847339272499,-0.034614760428667,-0.0117813646793365,0.1832486163669641,0.0760693533732342,2.060004984805525,-8.245427131652832,-25.1392879486084,-37.326446533203125,-0.006073547095177639,1011.9430283343248
0.2696875,0.086725001316145,-0.158891900447756,-0.1110392852962017,-0.0703588873147964,-0.0273223258554935,-0.0183821562677621,0.1826569875946659,0.0757551839974114,2.059916084354711,-8.324612617492676,-25.187658309936523,-37.10073852539063,-0.006153188996042379,1011.9430359986483
0.279756591796875,0.0861118378538638,-0.1155740061163902,-0.1127747307866811,-0.0765211731195449,-0.0301367547363042,-0.0207049660384655,0.1819818124135809,0.0754671777684563,2.0597788615689145,-8.510932922363281,-25.020721435546875,-37.3199462890625,-0.006232838621818086,1011.9430436637151
0.289824462890625,0.0856520383223891,-0.1417128021098673,-0.1270318041980266,-0.076298713684082,-0.0209085009992122,-0.0162515640258789,0.1812576095485503,0.0752248982173536,2.059637874617539,-8.358369827270508,-25.059370040893555,-37.354583740234375,-0.0063124785914550835,1011.9430513278527
0.299893310546875,0.070489175177738,-0.1468254689484834,-0.1376782858967781,-0.0768073797225952,0.00331028457731,-0.0226143859326839,0.1805259682521797,0.0751732919595865,2.0595046690726657,-8.425146102905273,-25.12112808227539,-37.15771484375,-0.00639212628600305,1011.9430589927337
0.30996142578125,0.0518975796934217,-0.1150951365582644,-0.1814513766497373,-0.0688850060105323,0.0210996344685554,-0.0391567684710025,0.1798132493974821,0.0753539451534551,2.059247659636962,-8.271820068359375,-24.90146827697754,-37.0615234375,-0.006471768186867788,1011.9430666570571
0.320030517578125,0.0597191401645541,-0.0743533763252198,-0.241740133395791,-0.0485062338411808,0.0378921963274478,-0.0501265972852706,0.1792125991507386,0.0757458482979662,2.0588348535424745,-8.363049507141113,-25.036836624145508,-37.08197021484375,-0.006551417812643497,1011.943074322124
0.330098388671875,0.1016330129168927,-0.019772621962428,-0.2730231604099273,-0.0226316656917333,0.0298024117946624,-0.0510155707597732,0.1788521281607346,0.0762058430160469,2.0583458645624564,-8.229116439819336,-24.877063751220703,-36.946136474609375,-0.006631057782280493,1011.9430819862615
0.34016748046875,0.1192874736815691,0.0464649601854383,-0.274150118613243,-0.0065285954624414,0.0024168617092072,-0.0431139692664146,0.1787072085786045,0.0764529514987358,2.0578898459809785,-8.350359916687012,-24.97915267944336,-36.93817138671875,-0.0067107074080562015,1011.9430896513284
0.350235595703125,0.1715824551947414,0.074641107225418,-0.2339958028793334,0.0011064214631915,-0.021047718822956,-0.0311041790992021,0.1786807783674741,0.0764451558800372,2.0575064640999408,-8.05866527557373,-25.01105690002441,-36.8470458984375,-0.00679034930892094,1011.9430973156518
0.36030419921875,0.2038490133535117,0.0896222571276128,-0.2063946792483329,0.0111859533935785,-0.0362780690193176,-0.0179534889757633,0.1787445931559843,0.076202947347021,2.0572470855436307,-8.319684982299805,-25.038837432861328,-37.105316162109375,-0.006869995072241164,1011.9431049803469
0.37037255859375,0.1774349075499922,0.0836813227713108,-0.2055313404172658,0.0175292510539293,-0.0346807055175304,-0.0135027859359979,0.1789042645467036,0.0758711180203899,2.0570758516490883,-8.183906555175781,-25.0351505279541,-37.1414794921875,-0.0069496389043336455,1011.9431126448562
0.38044140625,0.1341224931113422,0.0994090532571077,-0.1740735413581133,0.0325350984930992,-0.0220272280275821,-0.0088611617684364,0.1791695335507337,0.0756018314124981,2.0569378476559312,-8.279397964477539,-25.04145812988281,-37.36712646484375,-0.007029286598881611,1011.9431203097372
0.390509521484375,0.1284991002716124,0.1203540799997746,-0.1259305649578571,0.0491671524941921,-0.0101247299462556,-0.0021693096496164,0.1795878015968404,0.0754766240472915,2.0568419409032828,-8.16234302520752,-25.0175895690918,-36.78204345703125,-0.00710892849974635,1011.9431279740606
0.40057763671875,0.1724718052498996,0.1203789221800863,-0.069943304798007,0.0623023957014083,-0.0220423750579357,0.0117148142307996,0.1801487057323086,0.0753309490472176,2.0568415588656,-8.269647598266602,-25.006540298461918,-36.53955078125,-0.0071885704006110895,1011.9431356383841
0.410646484375,0.1832081571891903,0.1109992455467581,-0.0271516262978315,0.065785989165306,-0.0456985384225845,0.0227509625256061,0.1808050730492111,0.074986115778287,2.056961768629173,-8.339037895202637,-24.87564468383789,-37.362579345703125,-0.007268218095159055,1011.9431433032651
0.42071435546875,0.144844305068627,0.1162846386037766,0.0620662878125906,0.0706803426146507,-0.0476594232022762,0.0284522585570812,0.1814926133131794,0.0745036423303933,2.057176252168397,-8.210919380187988,-25.033842086791992,-37.08770751953125,-0.007347858064796052,1011.9431509674026
0.43078369140625,0.0986431834511458,0.0980854034379124,0.1684299825131893,0.0563132986426353,-0.0493608489632606,0.0227188132703304,0.1821190497948111,0.0740416442747788,2.057390971976352,-8.526932716369629,-25.16922950744629,-37.28924560546875,-0.007427509621799502,1011.9431586326554
0.4408515625,0.046600350068137,0.0612910656563937,0.2258463986933231,0.0250989235937595,-0.0512956380844116,0.0120318140834569,0.1824931461899973,0.0735923329635041,2.0575375281410047,-8.403192520141602,-25.049392700195312,-37.50048828125,-0.007507149591436499,1011.9431662967929
0.45092041015625,-0.0043088031098246,0.0076107672646641,0.2222989353448152,-0.0069521237164735,-0.027601059526205,-0.0020585844758898,0.1825127672133847,0.073269233907542,2.0575645557232094,-8.226962089538574,-25.05745506286621,-37.11935424804688,-0.0075867972859844654,1011.9431739616739
0.460988525390625,-0.0212400641664862,0.0158083945065736,0.1960825440704822,-0.0325653403997421,-0.0033023785799741,-0.0124803325161337,0.1822301081023956,0.0731743657297998,2.0574872952174843,-8.570457458496094,-25.23137092590332,-36.902679443359375,-0.007666439186849203,1011.9431816259973
0.4710576171875,0.0066506169956177,0.0764841047435998,0.1355570559591054,-0.0430347621440887,0.0215789712965488,-0.0087340380996465,0.1817721785497265,0.0733643872803168,2.057385086927224,-8.510417938232422,-25.354835510253903,-37.0115966796875,-0.007746088812624913,1011.9431892910642
0.481125244140625,0.0642090719949454,0.120891401746869,0.1045025770038366,-0.044824942946434,0.0268024951219558,0.0024914517998695,0.1812566005273819,0.073705051887957,2.0573679533533595,-8.286909103393555,-25.363361358642575,-37.351470947265625,-0.007825726851034167,1011.9431969550159
0.491194580078125,0.1134942041676491,0.1322907476395368,0.0581786327242851,-0.0425628647208213,0.0080627622082829,0.0130280749872326,0.1807784980789242,0.0739573518834475,2.057464298415508,-8.281609535217285,-25.229337692260746,-37.13311767578125,-0.007905378408037617,1011.9432046202686
0.501262451171875,0.1438747293841093,0.1292706691659987,0.0256441443443298,-0.023518331348896,-0.0198176056146621,0.0237006917595863,0.1804034017529821,0.0739207470297473,2.05766393680848,-8.334527969360352,-25.227140426635746,-37.281524658203125,-0.007870896809702078,1011.9432013019384
0.51133154296875,0.1074667605716735,0.0820437846973538,-0.0317576587885618,-0.0088346265256404,-0.0364666208624839,0.0269157141447067,0.1802388645927159,0.0736122628121235,2.0579374995726294,-8.437911033630371,-25.05304718017578,-36.97265625,-0.007791422873900612,1011.9431936537791
0.5213994140625,0.0389806688446551,0.0356162339128553,-0.0412204836606979,-0.0015482176095247,-0.0158987622708082,0.0189331546425819,0.1802037095387783,0.073326873081352,2.05817400160302,-8.56693172454834,-25.16347312927246,-36.99630737304688,-0.007711958572938488,1011.943186006547
0.53146728515625,-0.0027370968136936,0.0151717040382325,0.0308078107178211,-0.0108647588640451,0.0028129732236266,0.0037733139470219,0.1801939888195325,0.0732768572375452,2.058290109301058,-8.433952331542969,-25.20836067199707,-37.055419921875,-0.007632494271976364,1011.9431783593149
0.541536376953125,-0.0108699151910841,-0.0066295011423528,0.0308405439436435,-0.0275502633303403,0.0023120325058698,-0.0176022816449403,0.1799971137370283,0.0732952234359926,2.0582333739121954,-8.212006568908691,-25.347925186157227,-37.19677734375,-0.0075530203361748975,1011.9431707111555
0.5516044921875,0.0127449152827262,-0.0446000430963933,-0.0060007017195224,-0.0452640056610107,0.028123490512371,-0.0310994293540716,0.1795977682894626,0.0734793892891921,2.058006543822211,-8.485280990600586,-25.118087768554688,-36.412353515625,-0.007473554108244905,1011.9431630637379
0.56167333984375,0.0029439444974064,-0.0305023980304598,0.0421013581484556,-0.0663336068391799,0.0289088562130928,-0.0317918509244918,0.1789652378714009,0.0738829609669701,2.0577097782074167,-8.228438377380371,-25.207550048828125,-36.6693115234375,-0.007394082099411306,1011.943155415764
0.5717412109375,-0.0417568555597215,0.0101798871003091,-0.0261854116141796,-0.0662140250205993,-0.0016723237931728,-0.03164504468441,0.1782034840657667,0.0741328345679805,2.0574193198651454,-8.509868621826172,-25.279077529907227,-36.71627807617188,-0.0073146177984491825,1011.9431477685318
0.581810546875,-0.0131108990509063,-0.0001978606596589,-0.1260883858680725,-0.049759954214096,-0.046572420746088,-0.0358637571334838,0.1775313755227793,0.0740082771107437,2.057116485091377,-8.391229629516602,-25.357091903686523,-37.158477783203125,-0.007235141935679847,1011.9431401201871
0.59187841796875,0.0260496564052999,0.0033329438149929,-0.1867833853274583,-0.0142158940434455,-0.1002441048622131,-0.0387585423886776,0.177153073808828,0.0733705895746673,2.056748408261784,-8.279949188232422,-25.28993797302246,-36.7315673828125,-0.007155677634717723,1011.9431324729549
0.601947509765625,0.0174872144389897,0.0402444782353937,-0.2492985859513282,0.019699728116393,-0.1367360651493072,-0.0426419638097286,0.177148002350073,0.0722704435863335,2.056325364913347,-8.340289115905762,-25.061817169189453,-37.21017456054688,-0.007076203698916255,1011.9431248247955
0.612015380859375,0.0130427291855216,0.087294398701936,-0.2537801152795553,0.055623635649681,-0.1495752334594726,-0.0416857525706291,0.1775111580741475,0.0709183438646409,2.055868822330083,-8.204692840576172,-25.16479110717773,-37.13519287109375,-0.0069967393979541315,1011.9431171775634
0.62208447265625,0.0034844811148941,0.1273272800132632,-0.2166349182337522,0.0900026485323906,-0.1575420796871185,-0.0436532981693744,0.1782325437430076,0.0694646122331497,2.05538894170831,-8.265654563903809,-25.16744041442871,-36.96823120117188,-0.006917265462152665,1011.9431095294041
0.63215234375,0.0217876150466501,0.1959416742950677,-0.206094234997034,0.1053946614265441,-0.1255144029855728,-0.0544555000960826,0.179217759338547,0.0681353058521022,2.0548089790392083,-8.453621864318848,-25.327547073364254,-36.978363037109375,-0.006837801161190541,1011.943101882172
0.642221435546875,0.0269329420458525,0.2166454396277665,-0.0742810417413711,0.0904034525156021,-0.0534229017794132,-0.0596119128167629,0.1802003711244113,0.0673642115748895,2.0541512235817594,-8.546547889709473,-25.166091918945312,-37.008392333984375,-0.0067583272253890735,1011.9430942340126
0.652289306640625,0.0022909604813903,0.1657492189966142,0.0684925214678049,0.0505604371428489,0.0224100723862648,-0.0535699091851711,0.1808808354904424,0.0673364937044301,2.0535279905853314,-8.462721824645996,-25.189512252807617,-36.6697998046875,-0.00667886292442695,1011.9430865867805
0.662357421875,-0.0199997817818075,0.1113885371252894,0.162846629422903,0.0003662426024675,0.0929452255368232,-0.0504500195384025,0.1810781152058387,0.068053594910361,2.052975066036826,-8.52284049987793,-25.39658546447754,-36.75973510742188,-0.006599396696496957,1011.9430789393629
0.67242626953125,-0.0438497361857444,0.0929940716482698,0.2816828522056341,-0.0564324147999286,0.1021350026130676,-0.0472028851509094,0.1807224710341051,0.0691901430435514,2.0525029987615677,-8.526546478271484,-25.35629272460937,-36.8687744140625,-0.006519924687663359,1011.943071291389
0.682494384765625,-0.0288709974363446,0.0840115776389837,0.3054664633750915,-0.0987700149416923,0.0246532559394836,-0.0437618158757686,0.1798379589833992,0.0699547440566037,2.052088906985992,-8.33563232421875,-25.255653381347656,-36.937591552734375,-0.006440458459733366,1011.9430636439714
0.6925634765625,0.0318063933011144,0.054334086125344,0.1847919192492961,-0.0972695052623748,-0.0684553161263465,-0.0373329259455204,0.1787318272450963,0.0698086363083409,2.0517529929763407,-8.247478485107422,-25.200517654418945,-36.67291259765625,-0.0063609845239319,1011.9430559958121
0.702631591796875,0.0851096750739961,0.0287068929158151,0.0268196178644895,-0.0653256848454475,-0.1443705707788467,-0.0418320707976818,0.1778129839111119,0.0687680311303498,2.0514126551179857,-8.215537071228027,-25.37186813354492,-36.72039794921875,-0.006281518296001907,1011.9430483483944
0.7127001953125,0.0953711760431528,0.0996466614052653,-0.1013940895944833,-0.0227053575217723,-0.17145337164402,-0.0451577678322792,0.1772561150981086,0.067229533879184,2.0509886434111064,-8.438680648803711,-25.329315185546875,-37.000885009765625,-0.0062020482141361775,1011.943040700606
0.7227685546875,0.067818129337579,0.1717002363555133,-0.1049731171250343,0.0035733822733163,-0.162659078836441,-0.0518582835793495,0.1770626654884528,0.0656291029048873,2.0504969456360254,-8.452718734741211,-25.21453857421875,-36.96234130859375,-0.0061225800592383155,1011.943033053003
0.73283740234375,-0.01823730215393,0.2078584681905806,-0.0691173753678798,0.0127941407263278,-0.1334390342235565,-0.0532042533159256,0.1770880580234357,0.0642172447817121,2.049960273639876,-8.66528606414795,-24.982372283935547,-37.03683471679688,-0.006043108050404717,1011.9430254050291
0.742905517578125,-0.0628998525599017,0.1979500915080309,0.0390466467529535,-0.0049166800454258,-0.0700345039367675,-0.0432040840387344,0.1770847134941195,0.0632925614102885,2.0494395500396725,-8.563408851623535,-25.00545692443848,-37.03424072265625,-0.005963641822474725,1011.9430177576115
0.752974365234375,0.0013839651716873,0.2084028042003512,0.1688227812230587,-0.0386922955513,-0.0240090880542993,-0.0294846091419458,0.1768499131987595,0.0629078749734913,2.0490715685067347,-8.565339088439941,-25.149547576904297,-36.95285034179688,-0.0058841698136411266,1011.9430101096376
0.76304248046875,0.0153566686837002,0.1774744358427822,0.1639876161515712,-0.0572582595050334,0.0124434623867273,-0.0077098039910197,0.1763587587776331,0.062896500065234,2.0489014958438587,-8.761197090148926,-25.365419387817383,-36.621856689453125,-0.005804703585711134,1011.94300246222
0.773111328125,0.0088824677009135,0.1264559040062129,0.1449012228876352,-0.0686161071062088,0.025628138333559,-0.0019937951583415,0.1757086502422425,0.0631417963427381,2.0488936737817687,-8.57779312133789,-25.27377319335937,-36.883636474609375,-0.005725231576877535,1011.9429948142462
0.7831796875,-0.0072368559183552,0.1011972518481314,0.1361608670711517,-0.0820427015423774,0.0194493383169174,-0.0036137960851192,0.1749369560638302,0.0634393726760594,2.048899422963936,-8.829113006591797,-25.28673553466797,-36.86962890625,-0.005645763421979674,1011.9429871666431
0.793247314453125,-0.0473400625195354,0.0751947955854237,0.0877823283493518,-0.0885673612356185,-0.0092228837311267,-0.0059491712599992,0.1740418674819808,0.0635535782841113,2.0488896958810496,-8.783403396606445,-25.19457244873047,-36.911376953125,-0.005566301047985419,1011.9429795195964
0.80331640625,-0.0534408270800486,0.0540796729728579,0.0079477441340684,-0.0804021060466766,-0.0530135072767734,-0.0072932681068778,0.173126184713925,0.0632759287145049,2.0488731156585502,-8.890055656433105,-25.18394088745117,-37.189971923828125,-0.005486827112183952,1011.9429718714371
0.813384521484375,-0.0377631097484379,0.0457052278593182,-0.085713705381751,-0.0662873536348342,-0.0867639482021331,-0.0165422968566417,0.1723058038860301,0.0625720714135938,2.0488071831357177,-8.648765563964844,-25.139270782470703,-37.3892822265625,-0.005407360884253959,1011.9429642240194
0.82345361328125,-0.0151242481673136,0.0811281311571598,-0.1401636729717254,-0.0464728996157646,-0.1107499748468399,-0.0267930701375007,0.1716665397591927,0.061583053468434,2.04862059996972,-8.702340126037598,-25.07732582092285,-37.42840576171875,-0.005327886948452492,1011.9429565758601
0.833521240234375,0.0196973282365128,0.1363502521634101,-0.1940156746685505,-0.0242400541901588,-0.1233218237757682,-0.0311334803700447,0.1712490477440761,0.0604506316876441,2.048353880516962,-8.572066307067871,-24.979625701904297,-37.299713134765625,-0.005248424574458237,1011.9429489288134
0.843590576171875,0.0197884771186858,0.1451278712503612,-0.2280693354398012,-0.0071175256744027,-0.0966007336974144,-0.0235479995608329,0.171042458769902,0.0593841703285863,2.048081029197357,-8.673611640930176,-25.073740005493164,-37.138214111328125,-0.005168948711688901,1011.9429412804686
0.853658447265625,0.0266584359534084,0.1321951783105731,-0.1837865415990352,-0.0128220850601792,-0.0427532121539115,-0.0156992878764867,0.1709119793116849,0.0587327289817274,2.047886820574906,-8.774558067321777,-24.89839553833008,-37.207061767578125,-0.005089484410726777,1011.9429336332365
0.863727294921875,-0.0073886124139651,0.1450464765772223,-0.1444581552952528,-0.0223870947957038,0.0090055875480175,-0.0045086843892931,0.1707088691192496,0.0585837860765009,2.0477830654666818,-8.754810333251953,-24.635093688964844,-37.160003662109375,-0.005010012401893179,1011.9429259852626
0.87379541015625,-0.0538213873628526,0.1487039761714637,-0.095719551089406,-0.0290283169597387,0.0640914738178253,-0.0020282724872231,0.1704215266200725,0.0589733080857688,2.0477702960483097,-8.455320358276367,-24.790363311767575,-37.172393798828125,-0.004930546173963187,1011.942918337845
0.883864501953125,-0.0387936218399554,0.1440850841991603,-0.0455628967791795,-0.0254508908838033,0.0890695303678512,0.0012724492698907,0.1701294019782818,0.0597702050073822,2.047787458443016,-8.459299087524414,-24.835742950439453,-37.30645751953125,-0.004851072238161719,1011.9429106896856
0.893932373046875,0.0160603965062648,0.1182541851110756,-0.0224310275167226,-0.0205099284648895,0.0678646042943,-0.0031735878437757,0.1698875392433108,0.0605652454509248,2.047795347677824,-8.403646469116211,-25.020814895629883,-37.33087158203125,-0.0047716079371995955,1011.9429030424535
0.90400146484375,0.062712111435458,0.0696574735939502,0.0051969841212034,-0.016929842531681,0.0268450081348419,-0.0063850935548543,0.1696589903279359,0.0610473283889334,2.047761865621611,-8.543087005615234,-24.74467658996582,-37.522216796875,-0.004692134001398129,1011.9428953942942
0.9140693359375,0.0856255156416446,0.0354335708223283,0.0598123714059591,-0.0172968190163373,-0.0028894871938973,-0.0049295662902295,0.1694312360139136,0.0611825637707009,2.047714519095139,-8.709409713745117,-24.80254554748535,-37.6966552734375,-0.004612669700436005,1011.9428877470621
0.924137451171875,0.079094177644141,0.0367130892388522,0.1384954474985599,-0.0172390285879373,-0.0623432248830795,-0.0025479013565927,0.1691920846983706,0.0608799400556658,2.0476963686216614,-8.742949485778809,-24.88942527770996,-37.51934814453125,-0.004533203472506012,1011.9428800996444
0.93420654296875,0.0712013420350849,0.07032002915591,0.0984095208257436,-0.0140013396739959,-0.1209205538034439,-0.0070006237365305,0.1689689958556615,0.0599432286487384,2.047659800031872,-8.79979419708252,-25.08545684814453,-37.289093017578125,-0.004453729536704545,1011.9428724514851
0.944274658203125,0.0966420362291857,0.0735764006033539,-0.0168342304229736,-0.0046166256070137,-0.1267201155424118,-0.0231481678783893,0.1687950494786775,0.0586542128228037,2.04750648765537,-8.463658332824707,-24.91054916381836,-37.06646728515625,-0.0043742633087745526,1011.9428648040675
0.95434326171875,0.069930481849052,0.0517293104544281,-0.01495733063519,-0.0046215029433369,-0.0496619530022144,-0.0324072428047657,0.168686701048297,0.0577617377285488,2.047213745204044,-8.467053413391113,-24.896312713623047,-37.04879760742188,-0.004294793226908823,1011.942857156279
0.96441162109375,-0.0221623666431754,0.0762684161663055,0.0612538023859262,-0.026733461767435,0.0366052910685539,-0.034492764621973,0.1684698519355358,0.0577819173181449,2.0468829973036824,-8.754685401916504,-25.032432556152344,-37.21548461914063,-0.004215325072010962,1011.9428495086761
0.974484619140625,-0.0467920367153361,0.107400052011013,0.1068278050810098,-0.0513138212263584,0.0765051692724227,-0.0200502928346395,0.1680062494371426,0.0584532090240567,2.046613917888465,-8.597607612609863,-24.94419860839844,-37.192901611328125,-0.004135820304723599,1011.9428418575496
0.984552490234375,0.017825908341445,0.0826300601527094,0.0799082339733839,-0.059274535626173,0.0855873525142669,0.0059016779996454,0.1674099264936115,0.0593490658805543,2.0465678541227805,-8.620624542236328,-24.974409103393555,-37.22015380859375,-0.004056356003761474,1011.9428342103175
0.994621826171875,0.1049000518888235,0.042394349745661,0.0957172130018472,-0.0579103827476501,0.0446074232459068,0.0216696932911872,0.1668236430231209,0.0600577946191064,2.046731233847824,-8.491937637329102,-24.926210403442383,-37.216888427734375,-0.003976880140992139,1011.9428265619728
1.004689697265625,0.1425824976164847,0.0298478796444833,0.0761526808321475,-0.0520021542906761,-0.0111676910892128,0.0308362953364849,0.1662844779090996,0.0602100615740725,2.047025904500086,-8.669755935668945,-24.91129302978516,-37.054290771484375,-0.0038974158400300156,1011.9428189147405
1.014758544921875,0.1318286100205034,0.0163360716424882,0.0841729056805372,-0.043487686663866,-0.0575968064367771,0.0340442918241024,0.1658157249968816,0.0598157770302437,2.0473753932170378,-8.33972454071045,-24.93058204650879,-37.20651245117188,-0.0038179438311964162,1011.9428112667666
1.02482666015625,0.0864204654116183,-0.0005029810860753,0.112379593989253,-0.0402287766337394,-0.0895491540431976,0.0313270688056945,0.1653897929115204,0.0590591918832052,2.0477287210720547,-8.592464447021484,-24.625391006469727,-37.31195068359375,-0.003738477603266425,1011.9428036193491
1.034895751953125,0.0651753597438335,0.0055639177374541,0.0623895284175872,-0.0424454025924205,-0.1441310197114944,0.0161909274756908,0.16498053237851,0.0578616641664219,2.047997947100611,-8.496028900146484,-24.76790809631348,-37.1318359375,-0.0036590036674649575,1011.9427959711898
1.044963623046875,0.0688506507230922,0.0284819981187582,-0.1192629237622022,-0.0346567220985889,-0.1486690491437912,-0.0027793012559413,0.1645807882306224,0.0562998114322809,2.0481020446411984,-8.526545524597168,-24.79361343383789,-37.321868896484375,-0.003579539366502833,1011.9427883239576
1.05503173828125,0.045675015384145,0.0006206161163747,-0.2035182470291852,-0.0147010395303368,-0.0664958581328392,-0.0165517106652259,0.16431486962798,0.0551645867215078,2.0480201582818545,-8.517830848693848,-24.75371742248535,-37.093536376953125,-0.003500073138572841,1011.94278067654
1.0651005859375,0.0064332113852724,0.0255145266152918,-0.1918839233368635,-0.0034715561196208,0.0137654226273298,-0.02772100828588,0.1642121859554322,0.0549815672561493,2.0477949734958143,-8.382710456848145,-24.769227981567383,-37.034423828125,-0.0034206011297392416,1011.9427730285661
1.075168701171875,-0.006051153265126,0.0703285047233104,-0.2243196275174617,0.0082577131688594,0.0555934309959411,-0.0216334350407123,0.1642196492837083,0.0554530203412163,2.047525185357139,-8.527216911315918,-24.784852981567383,-36.80126953125,-0.0033411349018092505,1011.9427653811485
1.08523779296875,0.0503050498049706,0.0553622601293027,-0.2253881335318088,0.0218148007988929,0.0640724003314971,-0.0098558720201253,0.1643586059286449,0.056188312148983,2.0473348986232045,-8.631821632385254,-24.944110870361328,-36.78097534179688,-0.003261660966007783,1011.9427577329892
1.0953056640625,0.1143158227488398,0.0324191914372146,-0.1535527313768863,0.0261303558945655,0.0442323498427867,-0.0033332016319036,0.1646010764628664,0.0568293060955169,2.0472438572543554,-8.820257186889648,-24.81329727172852,-37.01193237304688,-0.0031821966650456583,1011.9427500857571
1.10537451171875,0.1391284481724724,0.0258772224478423,-0.0719879623681306,0.0211622286587953,0.0084538469091057,-0.0080533884465694,0.1648529043707152,0.0571598708436377,2.047176239048981,-8.602472305297852,-25.01767921447754,-36.916778564453125,-0.0031027246562120607,1011.9427424377832
1.11544287109375,0.116945331002213,0.0017202479213476,-0.012855389919877,0.0134147442877292,-0.0227267071604728,-0.0164242088794708,0.1650317844869798,0.0571343862392251,2.047050395671637,-8.68425178527832,-24.868358612060547,-36.957305908203125,-0.0030232565013141987,1011.9427347901801
1.125511474609375,0.0930570904145017,-0.0187128837764263,-0.0041565351575613,0.0099827293306589,-0.0332584455609321,-0.0270891040563583,0.1651006226726598,0.0568970673423893,2.0468230571007084,-8.495593070983887,-24.80628776550293,-36.90863037109375,-0.0029437864194484685,1011.9427271423916
1.13557958984375,0.0822810275193303,0.0020212766945362,-0.0115489834964275,0.0074430592358112,-0.0392301529645919,-0.0333096235990524,0.1651557209572235,0.0565724324350555,2.0465073041388377,-8.64880084991455,-24.78169059753418,-36.71807861328125,-0.0028643201915184774,1011.9427194949741
1.145648681640625,0.1242138241678476,0.0132598790675401,-0.0259872586935758,0.0131302401423454,-0.0236661061644554,-0.0317077338695526,0.1652037626158734,0.0562904425564537,2.0461594427453456,-8.453072547912598,-24.828298568725582,-36.94573974609375,-0.0027848462557170097,1011.9427118468147
1.155716796875,0.1539088148055598,0.0085889646470546,-0.0384317297250032,0.0219178702682256,0.0103012500330805,-0.026345144957304,0.1653241947332849,0.0562536783927222,2.0458633585908634,-8.567972183227539,-24.776721954345703,-37.02777099609375,-0.0027053800277870178,1011.9427041993972
1.16578564453125,0.1870998673981055,0.00207943662256,-0.0221890354543924,0.0281017310917377,0.0389523357152938,-0.019623328000307,0.1655330166093796,0.0565839857239634,2.04561090913272,-8.37569522857666,-24.82096672058105,-36.90667724609375,-0.0026259080189534193,1011.9426965514233
1.175853759765625,0.2252170147486031,0.0010784428864717,0.0088508304536342,0.0267194546759128,0.0424268618226051,-0.0099845398217439,0.1657853271358683,0.0570864267467169,2.0454315288346376,-8.429399490356445,-24.72537040710449,-36.64813232421875,-0.0025464417910234273,1011.9426889040056
1.185922607421875,0.2361044290637597,0.0038699733011424,0.0168435827732086,0.0299967415630817,0.0437291450798511,-0.0034677842631936,0.1660430100032011,0.05757304400433,2.0453403915216994,-8.755081176757812,-25.04494285583496,-37.098480224609375,-0.002466969782189829,1011.9426812560317
1.195990966796875,0.2363306025024503,0.0351797421917319,0.0762830292135477,0.0239712577313184,0.0474231503903865,0.0036518927663564,0.1663097069421386,0.0580791325774467,2.0453284151677846,-8.790332794189453,-25.046953201293945,-37.287994384765625,-0.002387501627291966,1011.9426736084288
1.206058837890625,0.1989511583093553,0.0606128741338849,0.1277186174184084,0.0170212071388959,0.05326958745718,-0.0004030363634228,0.1665257889331862,0.0585896205843199,2.045328824712366,-8.70125961303711,-24.77861976623535,-37.2515869140625,-0.002308037326329843,1011.9426659611967
1.216127685546875,0.1523580782322213,0.0221960497170686,0.124285720360279,0.013271901756525,0.0716242268681526,-0.0029990479815751,0.1666691745961321,0.0592168129793517,2.0453056510232206,-8.648945808410645,-24.787023544311523,-37.153350830078125,-0.0022285653174962446,1011.9426583132228
1.226195556640625,0.1589366894375532,-0.0469368154808878,0.1698895336717367,0.0108902370557188,0.0848492234945297,-0.0064339931122958,0.1667619992282605,0.0600553572978071,2.045248149368647,-8.516295433044434,-24.84366798400879,-37.399505615234375,-0.00214910101653412,1011.9426506659905
1.236264892578125,0.1663860190628096,-0.0745335551977157,0.1794365296959877,-0.0070652300491929,0.0567710511386394,-0.005648260936141,0.1667709216460103,0.0608494114033176,2.0451809406227603,-8.453991889953613,-24.788257598876957,-37.0877685546875,-0.002069625153764785,1011.9426430176458
1.24633251953125,0.2114483093760907,-0.0811198017202317,0.1299228494644164,-0.0180779360234737,0.005095069296658,-0.0117466337978839,0.1666159567570666,0.0612486581561524,2.0451061576344114,-8.390130996704102,-24.83102798461914,-37.12664794921875,-0.0019901627797705296,1011.9426353705991
1.25640185546875,0.2616516158396378,-0.0943861105285584,0.0549830515533685,-0.0114023573696613,-0.0443291701376438,-0.0188591927289962,0.1664510757189548,0.0611462150265735,2.044923375275827,-8.365545272827148,-24.76586151123047,-36.94259643554688,-0.0019106869170011946,1011.9426277222543
1.2664697265625,0.2558818733317777,-0.065979223472625,-0.0152057524383068,-0.0070526152849197,-0.0618836618959903,-0.0197438951581716,0.1663402614386771,0.060704193011533,2.0447119918249284,-8.272879600524902,-24.88481330871582,-36.99188232421875,-0.00183122261603907,1011.9426200750222
1.276538818359375,0.1754332854039967,0.0278036604657769,-0.0231996738016605,-0.0182054936885833,-0.0648550912737846,-0.0273793246597051,0.1661968789066936,0.0601853763582066,2.0444794296522746,-8.357576370239258,-24.95381736755371,-36.88848876953125,-0.0017517486802376024,1011.9426124268629
1.286606689453125,0.0808116490865126,0.1080206681273877,-0.0669072981029748,-0.0262695476412773,-0.0558040663599967,-0.0285319425165653,0.1659195436835584,0.0596918499040771,2.044190811923171,-8.52961540222168,-24.81736946105957,-36.431884765625,-0.0016722843792754795,1011.9426047796306
1.29667578125,0.0756998955633491,0.1121991228558123,-0.1346720898181199,-0.0273241717368364,-0.015192792750895,-0.0288777463138103,0.1656244305292282,0.0594434284033479,2.0439109687511903,-8.323603630065918,-24.727075576782227,-36.93780517578125,-0.001592810443474012,1011.9425971314713
1.30674365234375,0.1023688163781538,0.0923579657018184,-0.1686538543969392,-0.0236596632748842,0.0309816263616085,-0.0274774562567472,0.165383181455605,0.0596235339700188,2.043634309245109,-8.315762519836426,-24.592960357666016,-36.85202026367188,-0.001513346142511889,1011.9425894842392
1.316812744140625,0.0926556700067594,0.0903111161746084,-0.202944246533513,-0.023109171539545,0.0622043274343013,-0.022816265001893,0.1651870522017988,0.0602090957758888,2.0433650559026906,-8.358155250549316,-24.70725440979004,-37.339630126953125,-0.0014338722067104214,1011.9425818360799
1.326880615234375,0.085876933119446,0.0950412134364247,-0.2100041019171476,-0.0222385860979557,0.0879999697208404,-0.0116927735507488,0.1649799057582839,0.0610795282383891,2.043186820863998,-8.558052062988281,-24.707788467407227,-36.64517211914063,-0.0013544079057482969,1011.9425741888477
1.33694970703125,0.0773169388385489,0.1097813941895961,-0.1714542987704277,-0.0158348362892866,0.086731344461441,0.0043386202305555,0.1648330571703281,0.0620730746506886,2.043153772349968,-8.400434494018555,-24.760883331298828,-36.765411376953125,-0.001274933969946831,1011.9425665406884
1.347017822265625,0.0954149786522611,0.1214184943608939,-0.1623147145032882,0.0058179944753646,0.0528985448181629,0.0146791422739624,0.1648139897002686,0.0628486382225032,2.043255019664396,-8.536922454833984,-24.727537155151367,-36.94357299804688,-0.0011954677420168373,1011.9425588932708
1.357086669921875,0.0877419963389635,0.1185148818738758,-0.1312508831977844,0.0274571515619754,0.0111120827496051,0.0177011508494615,0.1649933822061289,0.0632113096938464,2.043409202305164,-8.364892959594727,-24.776599884033203,-36.87277221679688,-0.0011159957331832388,1011.9425512452968
1.367154541015625,0.0630177433185279,0.0964323755338788,-0.0448538717269897,0.0369803495705127,-0.0392275229096412,0.0142097473144531,0.1652938886254024,0.0630630006618419,2.0435599529233355,-8.169450759887695,-24.70736312866211,-37.00421142578125,-0.001036531432221116,1011.9425435980647
1.377222900390625,0.0155761566532775,0.0541965773507952,0.0490811340332031,0.0259701311588287,-0.1003932431340217,0.002875902224332,0.1655838937923964,0.0623536861046715,2.04362690142446,-8.26788330078125,-24.663074493408203,-37.08056640625,-0.0009570632773232548,1011.9425359504618
1.387291748046875,-0.0573205180576071,0.0079882222749292,0.1052794065952301,0.0080822110176086,-0.1490055173635482,-0.0110079552978277,0.1657107285225939,0.0611173934854231,2.0435707413485944,-8.339813232421875,-24.624195098876957,-36.80181884765625,-0.0008775912684896563,1011.9425283024879
1.39735986328125,-0.0997416096797212,-0.0227003459773957,0.0921679960876703,-0.0158526115119457,-0.1756899952888488,-0.0336436927318573,0.1656010842425774,0.0595275354530171,2.04335528872229,-8.48957347869873,-24.766357421875,-37.24737548828125,-0.0007981250405596626,1011.9425206550702
1.4074287109375,-0.1455600155899301,-0.0212118609853088,0.0412865346342325,-0.0318504869937896,-0.1816967576742172,-0.0573697946965694,0.1652754193583422,0.0578227463538802,2.0429073906134585,-8.452553749084473,-24.64639663696289,-37.4515380859375,-0.0007186530317260641,1011.9425130070963
1.41749658203125,-0.1783110693300142,0.0529924622580409,-0.0867675983488559,-0.0368943214416503,-0.1447803676128387,-0.0769505947828292,0.1648406369416983,0.0563136373010112,2.042233721337257,-8.308165550231934,-24.831207275390625,-37.01217651367188,-0.0006391887307639413,1011.9425053598642
1.427565673828125,-0.2227670277805998,0.1370652685649692,-0.1278963120728731,-0.0461719743907451,-0.0856459513306617,-0.0886538550257682,0.1643122870985676,0.0553496389267519,2.0413886333758224,-8.469268798828125,-24.86250877380371,-36.86639404296875,-0.0005597147949624737,1011.9424977117048
1.437633544921875,-0.1947310929289087,0.1814643822617828,-0.1384995391517877,-0.0426168292760849,-0.0295610111206769,-0.0812292397022247,0.163766499422934,0.0549828258457106,2.0405322674843367,-8.47772216796875,-24.819141387939453,-36.98089599609375,-0.0004802504940003508,1011.9424900644727
1.44770263671875,-0.1441427326705306,0.2000011788189411,-0.174838680511713,-0.0224953144788742,-0.0001075156033039,-0.061451006680727,0.1633625299128649,0.0550244931295128,2.039822062075932,-8.355063438415527,-24.82958030700684,-37.00582885742188,-0.0004007765581988832,1011.9424824163134
1.4577705078125,-0.0780026926130056,0.2207619350358843,-0.1883832217395305,0.0056499540805816,0.0101999500766396,-0.051567081362009,0.1632502431548738,0.0552247904774628,2.039245336232957,-8.628595352172852,-24.91907119750977,-37.02374267578125,-0.0003213122572367586,1011.9424747690812
1.467839599609375,-0.0049222223004326,0.2160473276041448,-0.1258499009370803,0.025059338659048,-0.0016263499855995,-0.0585669353604316,0.1633970614070883,0.0553750884511303,2.0386823135864134,-8.535468101501465,-24.84619903564453,-37.05084228515625,-0.00024183832143529274,1011.9424671209218
1.477907470703125,-0.011093750542216,0.1746492954194545,-0.0278197348177433,0.0210755933076143,-0.0403765402734279,-0.0674676895141601,0.1636188834066458,0.055241479154953,2.038034979855514,-8.316034317016602,-24.80666160583496,-36.65301513671875,-0.00016237402047316815,1011.9424594736897
1.487976806640625,-0.0416610670350491,0.1402579271264374,0.0432744935810565,-0.005474523641169,-0.0709741339087486,-0.0835553109645843,0.1636833816856569,0.0547352050602082,2.037275296243812,-8.306490898132324,-24.781982421875,-36.8311767578125,-8.289815770383402e-05,1011.942451825345
1.498044921875,-0.093093586499989,0.1182457095436751,0.1091343284577131,-0.0320988446474075,-0.0736312344670295,-0.1005542501807212,0.1634188755860402,0.0540778946127088,2.036359175854603,-8.415696144104004,-24.52085494995117,-36.99581909179688,-3.431929773841172e-06,1011.9424441779273
1.508113525390625,-0.1383338637286797,0.139165747975558,0.1062000285714864,-0.045644212514162,-0.0617151856422424,-0.112300656735897,0.1629210028328037,0.0534746537341264,2.035307404797693,-8.1622953414917,-24.4958553314209,-37.00045776367188,0.0001264076912696816,1011.9424270577803
1.518181640625,-0.1082624775266274,0.1724170063227415,0.0404319636315107,-0.0405704528093338,-0.0407546088099479,-0.1090944707393646,0.1623521374910953,0.0530521781278614,2.0342143516093487,-8.3060941696167,-24.714231491088867,-37.22525024414063,0.0002585142999942214,1011.9424095109557
1.528249755859375,-0.0197293308099731,0.2055392314627766,0.0067255088627338,-0.0282946117222309,-0.0158338155597448,-0.1038834676146507,0.1618627797264375,0.0528830422234216,2.0331512369161646,-8.36073112487793,-24.737085342407227,-36.995849609375,0.0003906209087187642,1011.9423919641313
1.538318603515625,0.0609971972763538,0.2311488890156149,0.0255681564986705,-0.0161236450076103,-0.0156561210751533,-0.0797185376286506,0.1614939680548796,0.0528724172415698,2.0322074367630187,-8.478618621826172,-24.63186454772949,-36.948333740234375,0.0005227371277594187,1011.9423744160302
1.54838671875,0.1373907376596704,0.2234137647189199,0.0210398654192686,-0.0027708197012543,-0.0365118682384491,-0.0495177544653415,0.1612822762206903,0.0527231555912124,2.0315584085783263,-8.223213195800781,-24.770984649658203,-36.735137939453125,0.0006548437364839586,1011.9423568692057
1.55845556640625,0.1639307348651811,0.2180591058179736,0.0422714540183544,0.0094010941684246,-0.0572141110897064,-0.0268185269087553,0.1612392520168244,0.0522992131467457,2.0311693480015216,-8.195943832397461,-24.82390785217285,-37.0013427734375,0.000786959955524613,1011.9423393211048
1.568523681640625,0.1489211625861004,0.2248775536611676,0.0876443811833858,0.0170488934963941,-0.0650613829493522,-0.0152913006022572,0.1613098480827736,0.0517163010643013,2.0309551825674554,-8.258055686950684,-24.72407913208008,-37.20770263671875,0.0009190665642491529,1011.9423217742802
1.578593017578125,0.0943347456675022,0.1796148088723421,0.149073540136218,0.0211369376629591,-0.0617599971592426,-0.0226984694600105,0.1614569827105476,0.0510950862829682,2.0307631859789312,-8.328217506408691,-24.569271087646484,-37.391204833984375,0.0010511891901672172,1011.9423042253283
1.588660888671875,0.0237107285963371,0.1199734101191163,0.1771528026729822,0.0204967129975557,-0.069649338722229,-0.0351599343121051,0.1616027408943756,0.0504301433183624,2.0304781455334058,-8.098122596740723,-24.65909576416016,-36.790924072265625,0.0011832925954530522,1011.9422866789292
1.5987294921875,0.0042083018774166,0.0773300540484488,0.1645131013303995,0.0097369980067014,-0.07288758456707,-0.0586375780403614,0.1616649260552053,0.0497546668003541,2.029994520686699,-8.467550277709961,-24.769336700439453,-36.88693237304688,0.0013154056110550017,1011.9422691312537
1.6087978515625,0.0202319100372493,0.029767361754179,0.1647007328569888,0.0088312570005655,-0.0907973423600196,-0.0724905431270599,0.1616672057119288,0.0490413583337864,2.029316340172852,-8.072303771972656,-24.8470401763916,-36.824798583984375,0.0014475154232182494,1011.9422515840037
1.61886669921875,0.0425241136051714,0.0214411396965384,0.1193377425640821,0.0097011318430304,-0.1051507741212844,-0.0806841030716896,0.1616418045952678,0.0482211793988085,2.0285113009636406,-8.281278610229492,-24.590709686279297,-37.039642333984375,0.001579631642258901,1011.9422340359027
1.6289345703125,0.0769455482428893,0.0321285379275679,0.0929360578507185,0.0156532973051071,-0.1029246374964714,-0.0860847234725952,0.161648332742726,0.047369449178474,2.027628181948677,-8.176294326782227,-24.76559257507324,-37.083892822265625,0.0017117350475447388,1011.9422164895037
1.639003662109375,0.1252352761700749,0.0138907243169844,0.0861976895064115,0.0151195228099823,-0.0992623269557952,-0.082860454916954,0.1616965644516066,0.0465539804937335,2.0267494766603025,-8.24532413482666,-24.637500762939453,-37.099517822265625,0.0018438544700240982,1011.9421989409772
1.64907177734375,0.1498066767163574,-0.0148887954436242,0.089402623027563,0.0033161267638206,-0.098881758749485,-0.082545667886734,0.1616914966472366,0.0457614327725389,2.0258825252415407,-8.504053115844727,-24.748443603515625,-36.759124755859375,0.0019759610787486383,1011.9421813941526
1.659140380859375,0.1321326344683766,-0.0213550688482821,0.089001641011238,-0.0210305768996477,-0.1072608008980751,-0.0825509205460548,0.1615181424440439,0.0449107004809105,2.025038068784631,-8.607512474060059,-24.776262283325195,-36.55291748046875,0.002108074094350588,1011.9421638464771
1.669208740234375,0.1128470288379117,-0.0009713292501866,0.0419166492313146,-0.0351234972476959,-0.1078339144587516,-0.0933939814567565,0.1611659823929858,0.0439933139046989,2.024153778854541,-8.37658977508545,-24.88500022888184,-36.88864135742188,0.0022401839065138325,1011.9421462992271
1.679276611328125,0.105211455925554,0.0367886386930942,-0.0187976394504308,-0.0458248145878315,-0.1018125787377357,-0.1062327027320861,0.1607075185016903,0.0431239819340061,2.023149077867612,-8.28371810913086,-24.562652587890625,-36.64178466796875,0.00237228731179967,1011.9421287528281
1.689345703125,0.1169020763823762,0.0797774472005665,-0.0959311480134725,-0.0454032346606254,-0.1008612960577011,-0.111736387014389,0.1602018383455493,0.0423140141493958,2.022036962341233,-8.24509334564209,-24.835678100585938,-36.57931518554688,0.0025044067342790298,1011.9421112043017
1.699413818359375,0.1446952519867569,0.1103333289839327,-0.2155558908253908,-0.0295415297150611,-0.0803802162408828,-0.1059409007430076,0.1597567029526088,0.041603461843707,2.0209347394713286,-8.433513641357422,-24.713424682617188,-36.637969970703125,0.0026365133430035696,1011.9420936574771
1.709482666015625,0.1916171986920758,0.1441064192481339,-0.2637672562867403,-0.007648748345673,-0.060544729232788,-0.0887605845928192,0.1595202279672314,0.0410980770932142,2.019943815682733,-8.619965553283691,-24.649581909179688,-36.86260986328125,0.002768629562044224,1011.9420761093761
1.719550537109375,0.2216775885760784,0.1955205262735486,-0.2642939105093479,0.0225445050746202,-0.0435879491269588,-0.0680355057120323,0.1595602696417048,0.0407597713282725,2.019130550914391,-8.468301773071289,-24.78038215637207,-36.62628173828125,0.002900732967330062,1011.9420585629771
1.729619873046875,0.2322099423758685,0.2045985896117985,-0.2099029796302318,0.054843857884407,-0.024732768535614,-0.0461022481322288,0.1599415111987638,0.0405861533050293,2.0185275331598493,-8.407682418823242,-24.96937561035156,-36.740234375,0.0030328555932481235,1011.9420410140251
1.739687744140625,0.2135375002076849,0.1707838521629572,-0.1129062482118606,0.0736398100852966,-0.0157195683568716,-0.0276082418859004,0.1606065076245131,0.0405253017705993,2.018112409580679,-8.44521713256836,-24.914047241210938,-37.03314208984375,0.003164958998533961,1011.9420234676261
1.749756591796875,0.1730811693198979,0.1230450726494193,0.0078793550729751,0.0749916285276413,-0.0187004450708627,-0.0189460441470146,0.161363522766449,0.040474003181886,2.0178401157172976,-8.650455474853516,-24.71335220336914,-36.78173828125,0.003297075217574613,1011.9420059195251
1.75982470703125,0.1121613481286913,0.0752418495975434,0.1234247196167707,0.0653770938515663,-0.0288823060691356,-0.0205889977514743,0.1620521383091488,0.0403101315355889,2.0176009364519327,-8.737479209899902,-24.726093292236328,-36.50225830078125,0.0034291818262991557,1011.9419883727006
1.769893798828125,0.0509422517299652,0.0352539764717221,0.2264028635323047,0.0481685400009155,-0.0490450970828533,-0.0328296832740306,0.1625742776069621,0.0400368117578545,2.017286995997466,-8.58133602142334,-24.69301986694336,-36.32855224609375,0.003561301248778512,1011.9419708241741
1.779961669921875,0.0187823322834447,0.0041015900999307,0.2901274399459362,0.0323731675744056,-0.0775235742330551,-0.047180451452732,0.1628961286612429,0.0395424522874576,2.016859501127853,-8.383548736572266,-24.834793090820312,-36.82290649414063,0.00369340465406435,1011.941953277775
1.79003076171875,0.0047470483966171,-0.0299992708139121,0.2620218739241362,0.0262593477964401,-0.1130392253398895,-0.0637349262833595,0.1630679384811293,0.0387511297998013,2.016273830552831,-8.401192665100098,-24.83172035217285,-36.6070556640625,0.003825524076543709,1011.9419357292486
1.8000986328125,-0.0002346124734729,-0.0186772279411554,0.2281295411944389,0.0363112576305866,-0.1340077966451645,-0.0810253247618675,0.1632637654312523,0.0377045381935672,2.015520728897261,-8.605854988098145,-24.7874755859375,-36.79977416992188,0.003957627481829544,1011.9419181828496
1.81016796875,-0.0114051911115646,0.0271242998994886,0.2162970645815134,0.0449028834700584,-0.1510296612977981,-0.0889959037303924,0.1635434063378492,0.0364937693588703,2.014626264217568,-8.456470489501953,-24.68300437927246,-36.43060302734375,0.004089750107747608,1011.9419006338976
1.820235595703125,-0.0181321612790226,0.0759856537021696,0.1970119338750839,0.0500169619917869,-0.1588991582393646,-0.0960802659392356,0.1639073403595357,0.0351952812601459,2.0136608187064464,-8.678743362426758,-24.523414611816406,-36.433868408203125,0.004221850309594741,1011.941883087924
1.8303046875,0.0155256685750558,0.1155855504237115,0.174331315511465,0.0542756207287311,-0.1769242286682129,-0.0996606200933456,0.1643502629843153,0.0337751328373318,2.012631934531469,-8.721787452697754,-25.029468536376957,-36.34423828125,0.004353969732074098,1011.9418655393976
1.840372802734375,0.046072855595313,0.1359042619615793,0.1397135911166667,0.0611059889197349,-0.1723419725894928,-0.08826644718647,0.1648728807576864,0.0322436635319,2.011640120010184,-8.367119789123535,-24.94701194763184,-36.2989501953125,0.0044860763407986405,1011.941847992573
1.850441650390625,0.0791180699763819,0.1596975177422165,0.1589829397320747,0.0610218346118927,-0.168290764093399,-0.0729458108544349,0.1654608032046889,0.0307170770835175,2.0107799817758507,-8.496003150939941,-25.09220695495605,-36.34210205078125,0.004618192559839292,1011.9418304444721
1.860509521484375,0.0897286766441538,0.1594599095940589,0.1377449213922023,0.0504607297480106,-0.165031686425209,-0.0569792762398719,0.1660086363820014,0.0291734648547127,2.0100909512435003,-8.486531257629395,-25.20588111877441,-36.249053955078125,0.00475029596512513,1011.9418128980731
1.87057763671875,0.0805321745580062,0.1362422617442905,0.1443266378700733,0.038336157798767,-0.1668703407049179,-0.0466587282717227,0.1664548788444022,0.0276348571556187,2.009542941852863,-8.683783531188965,-25.103214263916016,-36.390899658203125,0.004882402573849673,1011.9417953512485
1.880646728515625,0.0337385669400915,0.1073892383560538,0.1206330430716276,0.0193377882242202,-0.1615387946367263,-0.049623854458332,0.1667361953997284,0.0260683434362413,2.0090553777525035,-8.906698226928711,-25.137460708618164,-36.4014892578125,0.00501452199632903,1011.9417778027221
1.89071484375,-0.0334881175766699,0.0644859161749482,0.0869300954341888,-0.0049228090792894,-0.121388167142868,-0.0548071637749671,0.1667715498459367,0.0247569098515241,2.0085091645450053,-8.772114753723145,-24.95332908630371,-36.51812744140625,0.005146628605053572,1011.9417602558975
1.90078369140625,-0.0334503063169308,0.0330386385098099,0.0698696550399065,-0.0294724516570568,-0.1057438626885414,-0.0473769828677177,0.1665525007870643,0.0237305696468881,2.00798400296638,-8.85734748840332,-25.188526153564453,-36.420745849609375,0.0052787448240942236,1011.9417427077965
1.910851806640625,-0.0109413912584073,0.0365654974617064,-0.0277753111541271,-0.0324602499604225,-0.1140457317233085,-0.0337956584990024,0.1661899817953574,0.0227166340196687,2.00757280403143,-8.730364799499512,-25.00784683227539,-36.315765380859375,0.0054108514328187664,1011.9417251609719
1.920920654296875,-0.0091469821223057,0.048956338609755,-0.0978022025823593,-0.0187002308666706,-0.1342396885156631,-0.0265478659421205,0.1658775423961593,0.0215704303896278,2.0072774975621344,-8.744426727294922,-24.999237060546875,-36.23687744140625,0.005542967651859421,1011.941707612871
1.930989013671875,0.0001094334575347,0.0630175971880555,-0.1274193422108888,0.0036175912246108,-0.172425165772438,-0.0314041413366794,0.1657687588461008,0.0201640632000613,2.0069669037599147,-8.668371200561523,-25.095258712768555,-36.267913818359375,0.0056750774640226655,1011.941690065621
1.9410576171875,-0.01166077330783,0.0594205956093966,-0.1480243233442306,0.0074208513833582,-0.2204773724079132,-0.043266125023365,0.1657681662912875,0.0183173947934828,2.006572615520068,-8.633461952209473,-24.954917907714844,-35.954345703125,0.0058071904796246155,1011.9416725179454
1.951125732421875,-0.0474382439306937,0.0462142002947628,-0.1506149243593215,-0.0037559019401669,-0.2466839402914047,-0.0560945719480514,0.1657487445752605,0.0160906668950261,2.006055790983236,-8.658413887023926,-25.082035064697266,-35.97186279296875,0.005939297088349155,1011.941654971121
1.96119482421875,-0.1167272312721237,0.0208842364661395,-0.1060749408870935,-0.0328724235296249,-0.2481220811605453,-0.0655654892325401,0.1655278880404628,0.013739030964245,2.0054245732608558,-8.690524101257324,-25.285926818847656,-36.11740112304688,0.0060714165108285145,1011.9416374225945
1.9712626953125,-0.147504783848999,0.0175115451626479,-0.0794020380169153,-0.0628665462136268,-0.2186763137578964,-0.0678592696785926,0.1650245246745459,0.0115052278869774,2.004720362642678,-8.883487701416016,-25.276878356933597,-36.44219970703125,0.006203519916114352,1011.9416198761954
1.981327880859375,-0.1336338510778732,0.0443010601498186,-0.089098671644926,-0.0789443179965019,-0.1588222682476043,-0.0495163276791572,0.1642825201393229,0.0097142257383046,2.0041082045277268,-9.161213874816896,-25.119829177856445,-36.34567260742188,0.006335588083574442,1011.9416023344768
1.99139599609375,-0.0924114129221066,0.0676826663896441,-0.0916144538581371,-0.0775469541549682,-0.0730639472603797,-0.0179240442812442,0.1634822125642989,0.008653821651274,2.0037531904221426,-9.099626541137695,-24.89419937133789,-36.33856201171875,0.006467694692298982,1011.9415847876523
2.00146533203125,-0.0418661154873203,0.044901802521944,-0.0808750331789255,-0.0588359646499156,0.0080175828188657,0.0296119973063468,0.1627671678112488,0.0083623253639529,2.003818310332961,-9.12545680999756,-25.00431251525879,-35.807769775390625,0.0065998173182170465,1011.9415672387004
2.011532958984375,-0.0060630446323193,-0.0273370658673346,-0.0277221196621656,-0.0397395007312297,0.054385345429182,0.0675135776400566,0.1622606219338886,0.0086513116906273,2.0043235423164534,-9.361312866210938,-24.97538375854492,-36.153350830078125,0.006731917520064176,1011.9415496927268
2.021602294921875,0.0192987299735192,-0.1373769648626446,0.0387070395350456,-0.0368987545371055,0.0351394563913345,0.0821744948625564,0.1618682894170442,0.0090297508535789,2.0051036360244345,-9.12742042541504,-24.84119033813477,-36.178955078125,0.006864040145982241,1011.9415321437748
2.031670166015625,0.0044510337252635,-0.2721684432767331,0.1200432604849338,-0.0474395453929901,-0.0229667238891124,0.0812429189682006,0.1614387023409141,0.0089862096889035,2.005956637548989,-9.0057373046875,-24.886777877807617,-36.138275146484375,0.006996143551268075,1011.9415145973758
2.041738037109375,-0.025087624706421,-0.4004641299307346,0.2000204680413007,-0.0707121193408966,-0.0862646400928497,0.0612979009747505,0.1608608906277941,0.0082804581162042,2.00670582182834,-9.011591911315918,-25.184955596923828,-36.04022216796875,0.007128246956553916,1011.9414970509767
2.05180712890625,-0.0665369349871995,-0.4806574644558131,0.2187760219156742,-0.0979139059782028,-0.1338835507631302,0.0459045693278312,0.1600274658098116,0.0070427693121507,2.0072678559186805,-9.353423118591309,-25.03728675842285,-35.934814453125,0.00726036637903327,1011.9414795024503
2.061875,-0.1019693687317892,-0.5159365753687918,0.1759843434154987,-0.1187426820397377,-0.162930890917778,0.0337122157216072,0.1589338271135888,0.0054310602419846,2.007673511488369,-9.155914306640623,-24.864648818969727,-36.177154541015625,0.007392469784319111,1011.9414619560513
2.071944091796875,-0.0799894094508141,-0.5400166852667927,0.0862432822138071,-0.1204111501574516,-0.1691080927848816,0.0245781056582927,0.157698872108991,0.0036703390812281,2.007981599124696,-9.413546562194824,-24.89545249938965,-36.17333984375,0.007524589206798471,1011.9414444075247
2.08201220703125,-0.0496803055027499,-0.5698711407825351,0.0111877489686012,-0.1113896891474723,-0.1406397670507431,0.015755271539092,0.1565168365787439,0.0020700467478929,2.0081833041000574,-9.360846519470217,-24.78826904296875,-36.09368896484375,0.00765669581552301,1011.9414268607003
2.0920810546875,-0.0462813609465723,-0.5759231342978776,-0.0209001646876335,-0.0965502932667732,-0.0920099169015884,0.0159403625875711,0.1554905182443959,0.0008848457081047,2.0083433226772844,-9.423165321350098,-24.565587997436523,-36.576995849609375,0.007788812034563664,1011.9414093125993
2.10214892578125,-0.0544933683402836,-0.5611132493093609,-0.0357604646891355,-0.0730998292565345,-0.0401707142591476,0.0119782201945781,0.1547333011548785,0.0002342571897137,2.008473575951488,-9.408285140991213,-24.80167007446289,-36.33297729492188,0.0079209154398495,1011.9413917662002
2.11221826171875,-0.0719818842537933,-0.5960453003503382,-0.0016553659915924,-0.0828983932733535,-0.002003354486078,0.0113254804164171,0.1540469826768602,3.15256788859e-05,2.008598169426792,-9.551633834838867,-24.288938522338867,-36.3216552734375,0.008053038065767563,1011.9413742172483
2.1222861328125,-0.0128552072567865,-0.5734210883490741,0.0542769491106271,-0.0763471871614456,0.0108907734975218,0.0038683991879224,0.1533705677473377,0.0001066726144394,2.008684267739832,-9.216093063354492,-24.4111385345459,-36.207916259765625,0.0081851414710534,1011.9413566708492
2.13235498046875,0.0296621318310149,-0.6099000765711069,0.0527320577561855,-0.0686093717813491,-0.0091460524126887,-0.0011718997266143,0.152802672385699,0.0001200109296907,2.0086967181366457,-9.591466903686523,-24.54100799560547,-36.305206298828125,0.008317257690094053,1011.9413391227482
2.142423095703125,0.0237763480283203,-0.6060363868802785,0.0079828154474496,-0.0669056698679924,-0.0264766067266464,-0.0061742984689772,0.152305875925632,-0.0001064126928295,2.008671123079002,-9.756255149841309,-24.626611709594727,-36.05145263671875,0.008449364298818592,1011.9413215759237
2.1524921875,0.0195721743367495,-0.5731133375741541,-0.038258711245656,-0.0535645633935928,-0.0248906947672367,-0.0124873220920562,0.1519048120876533,-0.000367343024032,2.008569550194029,-9.591559410095217,-24.636871337890625,-36.77093505859375,0.008581483721297953,1011.9413040273972
2.16256005859375,-0.0140335097715607,-0.5505639443747699,-0.1095855793565511,-0.035272654145956,-0.0232489928603172,-0.0212245266884565,0.1516685323383817,-0.0005899128490034,2.0083957733182043,-9.550830841064451,-24.47610664367676,-36.97271728515625,0.008713587126583787,1011.9412864809982
2.172629150390625,-0.0088775923088629,-0.5130883463308215,-0.1962146460175514,-0.0064364811405539,-0.0228207558393478,-0.0323962196707725,0.1516599242941864,-0.0007821818860811,2.0081123303494888,-9.723555564880373,-24.31444549560547,-36.6204833984375,0.008845706549063147,1011.9412689324718
2.182697021484375,0.0264159324344247,-0.4827537060827016,-0.2307166350781917,0.0167656131088733,-0.0315023250877857,-0.0406367406249046,0.1519180213711532,-0.0009961626081844,2.007742697336272,-9.579873085021973,-24.303157806396484,-36.8868408203125,0.008977809954348982,1011.9412513860727
2.19276611328125,0.0326634142725379,-0.4520009865529835,-0.2475344988882541,0.0307506695389747,-0.0357958748936653,-0.0456432178616523,0.1523582092748409,-0.0012856992840163,2.0073128189208327,-9.614299774169922,-24.381935119628903,-36.62567138671875,0.009109929376828342,1011.9412338375462
2.202833984375,-0.0049404806179751,-0.3938904506288468,-0.2398117956817149,0.0245344024151563,-0.0437739379703998,-0.0541505999863147,0.1527957575655668,-0.001620805634859,2.006820045231498,-9.52268886566162,-24.181495666503903,-36.620941162109375,0.009242032782114181,1011.9412162911472
2.212903076171875,-0.0602055811077821,-0.3506329081825912,-0.2630249134868383,0.0136095834895968,-0.0349847078323364,-0.0599821247160434,0.1531057999616328,-0.0019246354912922,2.006233409431132,-9.594313621520996,-24.11042213439941,-36.56564331054688,0.009374152204593535,1011.9411987426207
2.222970947265625,-0.0854644250621087,-0.2972263121657073,-0.3571837911307811,0.0327592119574546,-0.0069262781180441,-0.0610716119408607,0.1534285941520915,-0.0020513372985511,2.0056103691830534,-9.46936321258545,-23.981098175048828,-36.20050048828125,0.009506255609879376,1011.9411811962217
2.2330400390625,-0.1170924661216326,-0.2435452831216156,-0.4276695322424173,0.0536181516945362,0.0366201363503932,-0.0557418279349803,0.1539341275159172,-0.0018142534061414,2.0050139972324184,-9.39491844177246,-24.073963165283203,-36.283233642578125,0.00963837503235873,1011.9411636476951
2.24310791015625,-0.1244557796975597,-0.1474089679248631,-0.3896615808874368,0.0753996074199676,0.0912013873457908,-0.0549283437430858,0.1546361351240298,-0.0010545351487253,2.004449460926621,-9.52823543548584,-24.29784202575684,-36.35125732421875,0.00977047843764457,1011.9411461012961
2.253176025390625,-0.0690462326606968,-0.1085828320547938,-0.3263806565880775,0.0937125757336616,0.1153722405433654,-0.0268913805484771,0.1555391293165695,8.37570763834e-05,2.004016626447894,-9.75352954864502,-24.552764892578125,-36.36099243164063,0.00990258504636911,1011.9411285544717
2.2632451171875,-0.0135965648176439,-0.1329023036666214,-0.2787222488343716,0.1023491024971008,0.1108003184199333,0.0091831684112548,0.1565659703477023,0.0012491566739646,2.0039323692292097,-9.622014045715332,-24.54014015197754,-36.70230102539063,0.01003470446884847,1011.9411110059451
2.273313232421875,0.0002611648369696,-0.1713013001658022,-0.1793786620289087,0.1037853434681892,0.0984720140695571,0.0381335951387882,0.1576379215405632,0.0022596915897308,2.0041893556353707,-9.61903476715088,-24.583539962768555,-36.753814697265625,0.01016681107757301,1011.9410934591207
2.283382080078125,-0.0214176058406126,-0.1992759332843124,-0.109641693457961,0.1196847110986709,0.085385575890541,0.0578384473919868,0.1587821427219918,0.0030926450380099,2.0046903033990016,-9.44809341430664,-24.471635818481445,-36.6873779296875,0.010298927296613664,1011.9410759110197
2.2934501953125,-0.0681790350718423,-0.1887869802348315,-0.0500835890740156,0.1396600157022476,0.0645530000329017,0.0693337172269821,0.1601127310925163,0.0037347247088014,2.0053374909603607,-9.426513671875,-24.66668701171875,-36.318939208984375,0.010431033905338205,1011.9410583641951
2.30351904296875,-0.1200032572681084,-0.1817335545919835,-0.0138747960954904,0.1581075489521026,0.0342287868261337,0.0771299973130226,0.1616297687005417,0.0041118223061303,2.006084937238968,-9.321953773498535,-24.661300659179688,-36.232208251953125,0.010563150124378858,1011.9410408160941
2.313587158203125,-0.1487939377435483,-0.2077706437766552,0.0286404035508632,0.1720966100692749,0.0081708179786801,0.0929334610700607,0.1633151636389062,0.0041655801919698,2.0069390291413787,-9.4473876953125,-24.60106086730957,-36.375244140625,0.010695256733103398,1011.9410232692696
2.323656005859375,-0.1505905571030452,-0.2553662154272199,0.0883709418922662,0.1736203730106353,-0.0038034210447221,0.1031076610088348,0.1650772705005535,0.0039967338077851,2.007958083274336,-9.579364776611328,-24.88862991333008,-36.00506591796875,0.010827372952144053,1011.9410057211686
2.33372412109375,-0.1818848909624852,-0.2634109901949763,0.158139474645257,0.1718781292438507,0.0013426053337752,0.1022927314043045,0.1668137334180623,0.0037988159154454,2.00900043855253,-9.558658599853516,-24.967042922973636,-36.37969970703125,0.010959479560868592,1011.940988174344
2.343793212890625,-0.2470490717251784,-0.3006768910109996,0.2200268987596035,0.1640392243862152,0.0175727438181638,0.1087540313601493,0.1684999679473077,0.0037144604801831,2.010052040849714,-9.649394035339355,-25.068435668945312,-36.251495361328125,0.011091598983347953,1011.9409706258176
2.353861083984375,-0.2891545032605528,-0.3690761812373995,0.286347336885333,0.1508184969425201,0.0489184148609638,0.1163379102945327,0.1701083556675047,0.0038452613891683,2.0112075515230567,-9.393181800842283,-24.93533134460449,-36.06646728515625,0.011223702388633794,1011.9409530794186
2.363929931640625,-0.3094886315632611,-0.4222596360228955,0.3752905257076024,0.1398344188928604,0.0808187499642372,0.1151672825217247,0.17158842135021,0.0042936315842918,2.0124019746645443,-9.457300186157228,-24.97358703613281,-35.955596923828125,0.011355818607674442,1011.9409355313176
2.373998291015625,-0.3065099445460364,-0.4708639463245868,0.4738175354331732,0.1297665983438491,0.1014918014407157,0.1120947897434234,0.1729542387042357,0.0050241424662696,2.013554398753949,-9.512510299682615,-25.14749526977539,-35.706573486328125,0.011487928419837692,1011.9409179840676
2.384067138671875,-0.3071964289728552,-0.5571398156337439,0.5822217960506677,0.115131489932537,0.0916014313697815,0.102236695587635,0.1742157986917048,0.0058090377063714,2.014648526787207,-9.601306915283203,-25.284852981567383,-35.811920166015625,0.01162004463887834,1011.9409004359666
2.394135009765625,-0.284632148731593,-0.6023486382782459,0.6437579225093126,0.1002814397215843,0.0744048655033111,0.0887637585401535,0.1753140270425633,0.0064487318667821,2.015618022981488,-9.478918075561523,-25.0984001159668,-35.654327392578125,0.011752148044164181,1011.9408828895675
2.4042041015625,-0.2862393647325225,-0.6637605538353324,0.6653121671915054,0.0841294676065445,0.0482708364725112,0.0756748393177986,0.1762531340756145,0.006895263367459,2.016456582399932,-9.602312088012695,-25.163238525390625,-35.471527099609375,0.011884267466643542,1011.9408653410411
2.414272216796875,-0.2836102583379484,-0.6935806686900555,0.6350701736629009,0.0820396840572357,0.042304553091526,0.0513833574950695,0.1771167607609032,0.0072285365317812,2.017087630161003,-9.60889720916748,-24.899513244628903,-35.88494873046875,0.012016374075368081,1011.9408477942166
2.4243408203125,-0.2989862893092446,-0.6666448770999908,0.5986264028847217,0.0875106826424598,0.0400865003466606,0.0269972365349531,0.1780160210399359,0.0075204894119814,2.017486304108895,-9.91005516052246,-25.030658721923828,-35.816009521484375,0.012148487090970031,1011.940830246541
2.4344091796875,-0.3106903720358386,-0.6326729032628238,0.5867711299180984,0.0928772166371345,0.066687487065792,0.0068733245134353,0.1789622537776823,0.0079593128691126,2.017664627420899,-9.79563331604004,-25.0877742767334,-35.877655029296875,0.012280596903133276,1011.9408126992911
2.44447802734375,-0.2714982158649712,-0.6539264114327729,0.6491933915615081,0.0869350060820579,0.0948971509933471,0.0050020669586956,0.179938749329305,0.008737544768485,2.017706082777683,-9.578893661499023,-25.004858016967773,-36.17623901367188,0.01241271312217393,1011.9407951511901
2.454546142578125,-0.2028424301268532,-0.716842009551078,0.6847825913369655,0.0675194934010505,0.1087149605154991,0.0036901938728988,0.1807537641993035,0.0097190043959735,2.017763544409266,-9.40551471710205,-24.93898200988769,-35.807647705078125,0.012544819730898469,1011.9407776043655
2.464614990234375,-0.1331092244155705,-0.7459677124008536,0.7301999421656131,0.0527509525418281,0.1187464296817779,0.0003667389973998,0.1814108404122759,0.0108214641978712,2.017782899528658,-9.34703254699707,-25.205751419067383,-35.92901611328125,0.012676935949939124,1011.9407600562645
2.47468310546875,-0.0964769453279674,-0.7830157326824962,0.7853601038515567,0.046927947551012,0.1178249791264534,0.0006860517896711,0.1819602758661558,0.0120047628032411,2.0177728218662976,-9.455976486206056,-25.05866241455078,-36.34228515625,0.012809042558663664,1011.94074250944
2.4847509765625,-0.0672154781361576,-0.7893727004937827,0.8124158685594797,0.0337808094918727,0.1144853010773658,-4.66564670205e-05,0.1824027488129831,0.0131610318350639,2.017787867066048,-9.604897499084473,-24.86801528930664,-36.41452026367188,0.012941145963949505,1011.940724963041
2.4948203125,-0.0571138713032938,-0.7714386921353638,0.8189934933841228,0.0288536939769983,0.1136911511421203,-0.0100470930337905,0.1827417872681772,0.0143023628171044,2.0177340985180487,-9.25374984741211,-24.915327072143555,-36.251312255859375,0.013073268589867564,1011.940707414089
2.50488818359375,-0.0380041245632339,-0.790068719933927,0.7811527152895927,0.0286708120256662,0.1112104132771492,-0.0079067349433898,0.1830598832742825,0.0154407059987058,2.017630052330336,-9.420280456542969,-25.3095645904541,-36.384185791015625,0.013205371995153405,1011.94068986769
2.51495703125,-0.0192597770694643,-0.7859598233103752,0.749243665331602,0.0325427800416946,0.0948085337877273,-0.0056654186919331,0.1834083883724176,0.0164930150586465,2.0175547123804725,-9.356256484985352,-25.30823135375977,-36.2081298828125,0.013817239175331241,1011.940616910665
2.525025146484375,0.0367277022860944,-0.7447559985235332,0.7047662257015704,0.0319358333945274,0.0675112381577491,-0.0050023524090647,0.1837708985159264,0.0173144224501837,2.017502326710377,-9.46707248687744,-25.053464889526367,-36.107269287109375,0.014451399984739358,1011.9405413789998
2.53509423828125,0.0716586938811466,-0.7111826686151326,0.6676297964841127,0.0184285473078489,0.0339396893978118,0.000134352594614,0.184071454341478,0.0178208802404765,2.017486566066069,-9.442317962646484,-25.048385620117188,-35.7894287109375,0.015085622304931826,1011.9404658400083
2.545161865234375,0.1006626517810858,-0.7104119765035808,0.6148731888085603,-0.0203782171010971,-0.0018461644649505,0.0111590530723333,0.1841048303332159,0.0179633756436453,2.0175499435135653,-9.521432876586914,-25.35904884338379,-35.758056640625,0.01571975235894774,1011.9403903120062
2.555231201171875,0.1350292692253366,-0.7323698335506021,0.4979699799150228,-0.0622625462710857,-0.013900963589549,0.028963616117835,0.1837208387437614,0.0178275792582513,2.017766136918851,-9.544233322143556,-25.1873722076416,-36.27716064453125,0.016353990056836337,1011.9403147711831
2.565299072265625,0.1061559154351241,-0.7670113772124052,0.3678945702373981,-0.1033463105559349,-0.0017656669951975,0.0465680360794067,0.1829215589073865,0.0176690361443143,2.018179285013437,-9.562686920166016,-25.01382827758789,-36.272369384765625,0.016988135488548325,1011.9402392413496
2.5753681640625,0.0415788503780029,-0.785588944171369,0.1995937670618295,-0.1275366097688675,0.0290455073118209,0.0635960176587104,0.1818020868994387,0.0176895412513553,2.0187735443447234,-9.298368453979492,-25.033382415771484,-36.05908203125,0.01762235780874082,1011.9401637023581
2.58543603515625,-0.0088089640732854,-0.7903909376256167,-0.0070399816393852,-0.1254770308732986,0.067835047841072,0.0849119573831558,0.1805751513778367,0.0180227038766467,2.019571313505895,-9.476359367370604,-24.887311935424805,-36.120025634765625,0.018256503240452807,1011.9400881725244
2.595505126953125,-0.0438261543807573,-0.7825669660016894,-0.2081213569104671,-0.0871357694268226,0.0971239581704139,0.1155076846480369,0.179555987053616,0.0186555083984861,2.020619590916913,-9.57492733001709,-24.988357543945312,-36.0189208984375,0.018890725560645305,1011.9400126335329
2.6055732421875,-0.0897603504240512,-0.7632784742943942,-0.3510416351139545,-0.0313878990709781,0.1264746934175491,0.1411951184272766,0.1790427106335153,0.0195528548375346,2.021943100440892,-9.5360107421875,-24.921295166015625,-36.481048583984375,0.019524886370053392,1011.9399371018677
2.61564208984375,-0.1659148578871041,-0.775417386507988,-0.4007371016532182,0.0210079308599233,0.139929249882698,0.1598335206508636,0.1791028347776634,0.0206376185507007,2.0234748914700247,-9.749029159545898,-24.93135452270508,-36.76022338867188,0.020159093312549788,1011.9398615647078
2.6257099609375,-0.221689589541126,-0.8088236892864108,-0.3574684532910585,0.0454774238169193,0.1604513376951217,0.1674093604087829,0.179548711474469,0.0218295254444066,2.0251514495284355,-9.639399528503418,-24.74370002746582,-36.27825927734375,0.020793238744261776,1011.9397860348741
2.635779296875,-0.2605995860360562,-0.9206550017431376,-0.1895364834278821,0.0580893568694591,0.199960395693779,0.1703063398599624,0.1801946890736901,0.0233218571582013,2.026850654758048,-9.575712203979492,-24.64554786682129,-36.124542236328125,0.021427476442150373,1011.9397104940512
2.64584716796875,-0.2749428033608943,-1.053988244172931,0.020455343529582,0.0425149202346801,0.2670097947120666,0.1716052144765854,0.1808300077368801,0.0253549206704849,2.028595648798143,-9.266653060913086,-24.803882598876957,-35.933746337890625,0.02206162187386236,1011.9396349642175
2.655916015625,-0.2015154741057194,-1.1953611468039451,0.2469908935308456,-0.0042557828128337,0.289734274148941,0.1612069010734558,0.1811438232573811,0.0279214990292298,2.030294754815167,-9.434617042541504,-24.40309333801269,-36.488861083984375,0.022695828816358753,1011.9395594270576
2.665984130859375,-0.0881700124926865,-1.337798756057024,0.290836464998126,-0.0740303546190261,0.2123901695013046,0.1504899561405182,0.1808664255489501,0.0301940464184801,2.031918411864883,-9.3935546875,-24.64775848388672,-36.323028564453125,0.023329989625766843,1011.9394838953924
2.67605322265625,-0.0393990403871983,-1.397566119277477,0.1674959165334701,-0.1359504461288452,0.0864138528704643,0.1248727440834045,0.179913863938324,0.0314312464387542,2.033383505833486,-9.282488822937012,-24.485349655151367,-36.565460205078125,0.023964211945959338,1011.9394083564009
2.68612109375,-0.0954257375082932,-1.2901409328252076,-0.0435047952055931,-0.1701055765151977,-0.0432846210896968,0.0855885744094848,0.1784701878753415,0.0313984576833494,2.034520115485939,-9.264315605163574,-24.396892547607425,-36.590728759765625,0.024598357377671354,1011.9393328265672
2.696190185546875,-0.2227184941974468,-1.0650473983258009,-0.3507487896472215,-0.170025423169136,-0.1352172046899795,0.0404013842344284,0.1768618931605822,0.0303297827631417,2.03522743963361,-9.53299331665039,-24.44579315185547,-36.31997680664063,0.02523257969786382,1011.9392572875757
2.706258056640625,-0.3498236376263201,-0.8303376019582152,-0.692534520637989,-0.1509772539138794,-0.1802480369806289,0.0060521150007843,0.1753201344324289,0.0286381328357395,2.0355107929477643,-9.462411880493164,-24.18519592285156,-36.19635009765625,0.025866725129575836,1011.9391817577422
2.7163271484375,-0.408305783341825,-0.6577998918652534,-0.9567653027832508,-0.1243650764226913,-0.1647689342498779,-0.0247103236615657,0.1740036645871955,0.0268464155080624,2.035452143778197,-9.530012130737305,-24.38733291625977,-36.1856689453125,0.026500947449768303,1011.9391062187507
2.726395263671875,-0.4191038754057138,-0.501957003724575,-1.1156488737940788,-0.0970290452241897,-0.0967404842376709,-0.0469299741089344,0.1729420094371584,0.0255423337121918,2.0351138687082133,-9.797776222229004,-24.37444305419922,-36.36273193359375,0.02713510825917642,1011.9390306870855
2.736464111328125,-0.3812040606003254,-0.3426483391694724,-1.1678922712504862,-0.0754196271300315,0.0152254644781351,-0.0397386401891708,0.1721153904532253,0.0251935242442482,2.03468268561828,-9.793238639831545,-24.18157958984375,-36.826171875,0.027769315201672813,1011.9389551499255
2.746531982421875,-0.291532740166597,-0.1991131439380347,-1.1060060161799192,-0.0715356841683387,0.1151279583573341,-0.0161376111209392,0.1714218837962888,0.0259145814149844,2.0344228552742303,-9.42452621459961,-24.37844467163086,-36.31704711914063,0.0284034606333848,1011.9388796200919
2.75660009765625,-0.1976969569971784,-0.1075441366568207,-0.9973808062881232,-0.0888851135969162,0.1711819022893905,0.0191588625311851,0.1706621792654429,0.0273968015318928,2.0344692924378265,-9.533900260925291,-24.219865798950195,-36.34759521484375,0.029037621442792892,1011.9388040884267
2.7666689453125,-0.0736058276272378,-0.0736379215322434,-0.8639894039303064,-0.1111463904380798,0.1779275834560394,0.050824150443077,0.1697113857654069,0.0291071229973423,2.034866472746788,-9.41677951812744,-23.95425033569336,-36.68423461914063,0.029671828385289284,1011.9387285512668
2.77673681640625,0.0020399813950061,-0.0610310995459556,-0.7669254524946212,-0.124170571565628,0.1466016173362732,0.0788672342896461,0.1685697153385137,0.0306263138921037,2.0355602895644758,-9.490989685058594,-23.737030029296875,-36.6302490234375,0.030305973817001272,1011.9386530214331
2.78680615234375,-0.0009210969002917,-0.0259971955657005,-0.7286924602121114,-0.1153762117028236,0.1209851801395416,0.1029729172587394,0.167395450706697,0.0317936150878569,2.0365262164948184,-9.388039588928224,-23.783767700195312,-36.240234375,0.03094021151488987,1011.9385774806101
2.7968740234375,-0.0630085005661472,0.0445898139633238,-0.6858166105598211,-0.0835471749305725,0.1078517958521843,0.1231319829821586,0.1664317284226357,0.0327315110380633,2.037715196146084,-9.425686836242676,-23.856277465820312,-36.938323974609375,0.03157435694660186,1011.9385019507764
2.806943115234375,-0.1353714337265119,0.0808631966106593,-0.6464426315486431,-0.0397979393601417,0.1246219500899314,0.1329239606857299,0.1658655874186527,0.0336662814154075,2.039057291327173,-9.56027603149414,-23.733325958251957,-37.19937133789063,0.03220857926679435,1011.938426411785
2.817010986328125,-0.2137641120377928,0.1221083763211965,-0.5389134002000093,0.0065266825258731,0.1593602299690246,0.1246290057897567,0.1657516249940403,0.0348557915771546,2.040388693397669,-9.753195762634276,-23.594030380249023,-36.97915649414063,0.03284272469850637,1011.9383508819514
2.827080078125,-0.2319915869174525,0.0927013723120093,-0.3761889358520507,0.0494974218308925,0.2095116525888443,0.1202627420425415,0.1660994041774339,0.0364959386460813,2.0416154819729004,-9.470787048339844,-23.693988800048828,-36.9310302734375,0.033476947018698834,1011.9382753429599
2.83714794921875,-0.1783465790348127,0.0526812043517827,-0.1706248622089624,0.0870818123221397,0.2498606741428375,0.1262015998363495,0.1668506407313998,0.0385987131958302,2.0428396218869818,-9.263654708862305,-23.80584716796875,-37.267120361328125,0.03411109245041085,1011.9381998131262
2.847217041015625,-0.1004290074219927,0.0264360253743827,0.0455523753851652,0.1193039640784263,0.2885617911815643,0.1463305205106735,0.1679432964235084,0.0410885704137159,2.0441781239285275,-9.051758766174316,-23.955303192138672,-37.20831298828125,0.034745314770603324,1011.9381242741348
2.857284912109375,-0.0232516231846064,0.0202634742192924,0.2621229962110519,0.1379679292440414,0.3098891675472259,0.1693114787340164,0.1693170087854923,0.0438598386429039,2.045720538912346,-9.218656539916992,-23.6971378326416,-37.12701416015625,0.03537946020231533,1011.9380487443011
2.867354248046875,0.0393643709326162,0.0430026909023523,0.4323538906663656,0.1513337939977646,0.3208724856376648,0.1954506635665893,0.1708491563215425,0.0467319185253022,2.047516790901521,-9.13379955291748,-23.939239501953125,-37.115142822265625,0.036013697900203936,1011.937973203478
2.877422119140625,0.0947944721337407,-0.0083113167494535,0.5421721097350121,0.1728795617818832,0.3231316208839416,0.2120693176984787,0.1725538804361604,0.049638866279662,2.049535172975016,-9.142277717590332,-23.872482299804688,-37.5843505859375,0.03664784333191592,1011.9378976736444
2.887490966796875,0.1740824918495491,-0.112943803743273,0.5914589954733849,0.1822689771652221,0.311692327260971,0.2157214879989624,0.1744401262429261,0.0524654190893419,2.0516471999539623,-9.092032432556152,-23.664003372192383,-37.613525390625,0.037282050274412316,1011.9378221364846
2.89755908203125,0.2240638626581057,-0.1866501143366098,0.6168745917588472,0.1840466409921646,0.2567228078842163,0.2098364382982254,0.1763994126817479,0.0549979248021034,2.05372618121902,-9.254701614379885,-24.001628875732425,-37.607177734375,0.03791621108382041,1011.9377466048193
2.907628173828125,0.250807127350755,-0.216672619895637,0.604496756222844,0.1598085910081863,0.1502147018909454,0.1810203790664672,0.1782653193305468,0.0567133202441947,2.055636792086521,-8.956981658935547,-23.624980926513672,-37.33526611328125,0.0385504334040129,1011.9376710658278
2.917696044921875,0.2968240149751305,-0.1687694436006248,0.5545300715267658,0.1118823587894439,0.000149043276906,0.1452991217374801,0.1797404189226349,0.0571863729432313,2.057228876835844,-9.01144790649414,-23.88286781311035,-37.4798583984375,0.03918457883572489,1011.9375955359942
2.92776513671875,0.3636180254293605,-0.1373489078119397,0.4125029427707195,0.0468925982713699,-0.1936436295509338,0.1115822345018386,0.1806396613907928,0.0559781683915476,2.058502865904763,-9.156773567199709,-23.93728256225586,-37.17282104492188,0.039818801155917384,1011.9375199970027
2.9378330078125,0.3515873593632131,-0.0224558696970343,0.1314087041079998,-0.0323838479816913,-0.3877145946025848,0.0620032250881195,0.1807607747891177,0.0528631628340517,2.0593731409950493,-9.28261375427246,-24.02959632873535,-37.1246337890625,0.04045294658762937,1011.937444467169
2.947902099609375,0.2320044098664075,0.1932571113862097,-0.3319149098396301,-0.0969330072402954,-0.516386091709137,0.0174969639629125,0.1801336664979327,0.0481539823283598,2.0598165602280725,-9.654346466064451,-24.05713653564453,-37.295745849609375,0.04108716890782187,1011.9373689281775
2.957969970703125,0.0797467598013579,0.4621010864153504,-0.822443341577053,-0.1352804005146026,-0.5620822310447693,-0.0371660143136978,0.1789493791931388,0.0426721188063645,2.0597830111581508,-9.708818435668944,-24.05250740051269,-36.9105224609375,0.041721314339533855,1011.937293398344
2.9680390625,-0.0666158408757299,0.7594318818688393,-1.3261597561895846,-0.1408158391714096,-0.5393689274787903,-0.0790171921253204,0.1775230629806355,0.0371551600280831,2.059210838861532,-9.814116477966309,-23.79461097717285,-37.073516845703125,0.04235553665972635,1011.9372178593525
2.9781103515625,-0.0968961205881089,1.019765802706033,-1.7688421486467123,-0.1053923442959785,-0.4511282444000244,-0.0939796268939971,0.1762483279939989,0.0322671406974017,2.058353438863804,-9.90916633605957,-23.668399810791016,-37.05218505859375,0.04298989737918373,1011.937142303877
2.988179443359375,-0.0611414645852521,1.194411737124622,-2.0700994698941706,-0.0349903590977191,-0.3034380674362182,-0.0810800269246101,0.1755063779520622,0.028573830147307,2.057464750413135,-10.019354820251465,-23.735197067260746,-37.16156005859375,0.043624119699376226,1011.9370667648856
2.9982470703125,-0.0023067608387209,1.3089911792457103,-2.1623715108782053,0.0453127361834049,-0.1291496306657791,-0.0421158522367477,0.1755329321745106,0.0265092824440085,2.0568156947067155,-10.318714141845703,-23.890146255493164,-36.96310424804688,0.04425824975339211,1011.9369912368834
3.008315185546875,0.0350813781174831,1.39012413270846,-2.073004543685913,0.1344000846147537,0.0613260120153427,0.0082395505160093,0.1764348652980293,0.0261746262977684,2.056617641759025,-10.337785720825195,-23.778474807739254,-36.87515258789063,0.0448924105628002,1011.9369157052182
3.01838427734375,0.0969892239653505,1.4480758248090744,-1.8108844700843092,0.2361613363027572,0.2723895311355591,0.082994744181633,0.1782994574309847,0.0277542821716039,2.0570259395102037,-10.337787628173828,-23.632827758789062,-36.77801513671875,0.0455266328829927,1011.9368401662267
3.0284521484375,0.1426703768293373,1.4256018349334596,-1.333309627944231,0.3140980899333954,0.4330072402954101,0.1499867290258407,0.1811190636954994,0.0311473845410977,2.058136138674119,-10.376802444458008,-23.77014541625977,-36.81561279296875,0.04616077831470471,1011.936764636393
3.038521240234375,0.1702009011758491,1.3578009489916265,-0.806068545359373,0.3741779327392578,0.4929541945457458,0.2145204395055771,0.1846555200340808,0.0355323680594342,2.0599032617377784,-10.137199401855469,-23.84444236755371,-37.002960205078125,0.04679500063489718,1011.9366890974017
3.048589111328125,0.2111157529534772,1.2061205873578786,-0.3277712341636419,0.4131712317466736,0.5103017687797546,0.2683046162128448,0.1887139001860499,0.0401700843119375,2.062228338204492,-9.969331741333008,-24.27872467041016,-36.70611572265625,0.047429146066609196,1011.936613567568
3.058658203125,0.1745323910415172,1.0309171651870013,0.2065197669327259,0.4242284297943115,0.4829734861850738,0.296313613653183,0.1930677113737384,0.0446931469621224,2.0649604411970897,-10.07741355895996,-24.23177528381348,-36.81842041015625,0.04806336838680166,1011.9365380285765
3.068726318359375,0.0812199376264587,0.8840830745406448,0.6644201867878436,0.4115289449691772,0.3939662873744964,0.3031730353832245,0.1974188178280999,0.0485886024287947,2.0678565471526227,-9.919404983520508,-24.274782180786133,-36.79266357421875,0.04869752919620978,1011.9364624969113
3.078795166015625,-0.040110111266002,0.775069449853152,0.9855430689781904,0.3832906484603882,0.2741930186748504,0.2678126692771911,0.2015828539631962,0.0513869125182225,2.070603542140542,-9.54016399383545,-24.374536514282227,-36.52801513671875,0.04933173613870617,1011.9363869597514
3.088863037109375,-0.1555123410120606,0.7075413895033299,1.2161784555137156,0.3416124582290649,0.165897399187088,0.2000841647386551,0.2053489385264969,0.0531470257424299,2.072828570189136,-9.59585952758789,-24.15707778930664,-36.4241943359375,0.04996588157041816,1011.9363114299177
3.098932373046875,-0.2450664648069068,0.6307660467281937,1.3694360033363102,0.284145712852478,0.0825388580560684,0.1152206808328628,0.2085908167334548,0.0540809539942243,2.07428751810062,-9.490346908569336,-24.460567474365234,-36.0975341796875,0.05060011926830676,1011.9362358890947
3.109000244140625,-0.2984985971238464,0.584398701698333,1.448594880247116,0.2131908535957336,0.0228352136909961,0.0248828548938035,0.2111359151520942,0.0544553297748602,2.074871422420794,-9.551051139831545,-24.379961013793945,-36.18963623046875,0.051234264700018746,1011.9361603592611
3.1190693359375,-0.2584770409241319,0.5550492730952798,1.449317349302769,0.1486076116561889,-0.0138562219217419,-0.044863998889923,0.2129443238896428,0.054531949632089,2.074649943129478,-9.792388916015623,-24.66885757446289,-36.37164306640625,0.05186848702021124,1011.9360848202696
3.12913720703125,-0.1589732585882768,0.568036034309864,1.3867653237998483,0.0986373350024223,-0.0525926426053047,-0.0879457145929336,0.2141432546833351,0.0543590269930763,2.0738860505880448,-9.77151107788086,-24.377294540405277,-36.303131103515625,0.05250263245192323,1011.9360092904359
3.139206298828125,-0.0412238081289455,0.6362221201770007,1.262910980594158,0.0473714880645275,-0.0971952676773071,-0.1227487027645111,0.214825327732757,0.0538369387816613,2.0727453162759835,-9.615113258361816,-24.529869079589844,-36.1624755859375,0.05313685477211573,1011.9359337514445
3.149274169921875,0.1141033855745568,0.6994105438873172,1.1134259370476007,0.0007555391639471,-0.1368895471096038,-0.153006300330162,0.2149702032429508,0.0529467757461967,2.0713233740464387,-9.646260261535645,-24.61750221252441,-36.2017822265625,0.05377100020382771,1011.9358582216108
3.15934326171875,0.2626606102190911,0.7143762039594351,0.9302245018601416,-0.0446457639336586,-0.1816215962171554,-0.1698265522718429,0.2146580409670704,0.0516486075449355,2.069689445210764,-9.840259552001951,-24.892868041992188,-35.811370849609375,0.05440522252402021,1011.9357826826193
3.1694111328125,0.3715905386785045,0.7192208675116301,0.6734416976332664,-0.0854032859206199,-0.2336815148591995,-0.188188150525093,0.2139143593689163,0.0499210558088148,2.0678826669698984,-9.696322441101074,-24.66499137878418,-35.981231689453125,0.0550393679557322,1011.9357071527857
3.17948046875,0.4403103295635431,0.7344884331397712,0.3823772690981626,-0.1269667148590088,-0.2670895457267761,-0.2120945453643798,0.2127438749440512,0.047794650598826,2.06589473462297,-9.855348587036133,-24.58182907104492,-36.06549072265625,0.0556736056536208,1011.9356316119627
3.189548095703125,0.478262970534712,0.8039838480398058,0.124998252543807,-0.170727863907814,-0.2810404002666473,-0.2353131771087646,0.2111428671343992,0.0454718486672196,2.063669878584592,-9.825495719909668,-24.574960708618164,-35.837188720703125,0.05630773570763668,1011.9355560839606
3.1996171875,0.4546633741626515,0.8850473895281553,-0.1269786127060651,-0.2100217491388321,-0.2738224267959595,-0.2503443360328674,0.209126044889519,0.0431681419230068,2.061260083382958,-9.750368118286133,-24.79254722595215,-36.39669799804688,0.05694195802782918,1011.9354805449691
3.209685302734375,0.4204785978250205,0.9434333813928067,-0.3726987556487321,-0.2435721606016159,-0.2434256970882415,-0.2522009015083313,0.2067428949920565,0.0410624286240154,2.0587810366554327,-10.097400665283203,-24.831300735473636,-36.68109130859375,0.05757611883723727,1011.9354050133039
3.219754150390625,0.4021608143134042,1.0128474016197024,-0.5973907236099243,-0.271977961063385,-0.1930975466966629,-0.2542142570018768,0.2040445924895068,0.0393615789113911,2.056279407886319,-9.849597930908203,-24.50897789001465,-36.482513427734375,0.05821032577973366,1011.935329476144
3.229822021484375,0.4029376073721796,1.0298727707006037,-0.8049152836710214,-0.2690730988979339,-0.1189703941345214,-0.2530164420604706,0.201206002550641,0.0382602992665225,2.0537859367786897,-9.858681678771973,-24.47176742553711,-36.35983276367188,0.058844471211445676,1011.9352539463104
3.239891357421875,0.4187030395198613,1.0323270319849251,-0.9824088626056908,-0.2284625619649887,-0.0263144951313734,-0.2396625727415084,0.1985811480186315,0.0379695964277929,2.051352694938961,-9.620591163635254,-24.552095413208008,-36.2423095703125,0.059478708909334245,1011.9351784054874
3.249959228515625,0.4484385813636705,1.0551033658079805,-1.0836316872864962,-0.1584638357162475,0.0901229009032249,-0.2097128927707672,0.1965302921101401,0.0387057553580847,2.049117424462984,-9.757349967956545,-24.32026481628418,-36.0660400390625,0.06011285434104626,1011.9351028756537
3.260028076171875,0.477982911484316,1.0491579014070331,-1.0548340473473072,-0.0808790326118469,0.2122623920440673,-0.1645134538412094,0.1952588416035407,0.0405727004979418,2.0472397873060078,-9.83349609375,-24.54286003112793,-36.38494873046875,0.06074706128354265,1011.9350273384938
3.27009619140625,0.4788926102077588,1.03006624744609,-0.8634773627549409,-0.0102099357172846,0.2926486730575561,-0.1078947186470031,0.1947520201118631,0.0434005138654977,2.045863134409406,-9.838947296142578,-24.29698371887207,-36.43609619140625,0.061381222092950743,1011.9349518068285
3.280165283203125,0.5387712152503431,0.947057563239336,-0.5960813945770264,0.0408852063119411,0.3178544342517853,-0.0539659708738327,0.194880618842108,0.0466530849045809,2.045014930037338,-9.6380615234375,-24.45186424255371,-36.97222900390625,0.06201544441314324,1011.9348762678371
3.290233154296875,0.5669710719594732,0.8260117015831172,-0.2930664160072803,0.0899269804358482,0.3177321851253509,0.0017652241513133,0.1955039128655628,0.0499065682796169,2.0447168266380777,-9.486464500427246,-24.180952072143555,-37.0006103515625,0.06264958984485523,1011.9348007380034
3.30030224609375,0.5409995588243007,0.6853495775699615,0.014205635485053,0.1234324723482132,0.3273789584636688,0.0483303293585777,0.196608166335388,0.0530732957848233,2.044937356175986,-9.23292350769043,-24.21959114074707,-36.743988037109375,0.06328381216504772,1011.934725199012
3.3103701171875,0.4290609500681981,0.5573961284823715,0.3747860833168029,0.1321742832660675,0.32475346326828,0.0700092017650604,0.1979449982826275,0.0562524461252675,2.045477764431305,-8.916125297546387,-24.294795989990234,-36.48260498046875,0.06391795759675971,1011.9346496691783
3.320438232421875,0.350383317335695,0.4069154980272054,0.6618284167289733,0.1132834106683731,0.3049246370792389,0.0724387988448143,0.199226992579078,0.0592730674256938,2.0461370926697064,-8.830414772033691,-24.413330078125,-36.79791259765625,0.0645521184061678,1011.9345741375131
3.33050732421875,0.3463324345096945,0.2158247708946466,0.8969681289464235,0.0925158411264419,0.2828285098075866,0.0830005407333374,0.2002852855113978,0.0620634666217829,2.046860463269533,-8.864508628845215,-24.308269500732425,-36.981048583984375,0.0651863407263603,1011.9344985985216
3.340575439453125,0.3052219140294939,0.0590283814214169,1.0686083056777715,0.0482058972120285,0.2206279933452606,0.0819286108016967,0.2010663308553525,0.0644721725123949,2.0476875039912943,-8.895694732666016,-24.329673767089844,-36.886138916015625,0.06582050153576839,1011.9344230668564
3.35064404296875,0.2527719611503183,-0.0042768005363643,1.1851111170768738,-0.0009437697008252,0.132834181189537,0.0569974444806575,0.2013457580020842,0.0660913365983787,2.048387610404179,-8.716565132141113,-24.161151885986328,-36.702911376953125,0.06645469310056867,1011.934347531528
3.36071240234375,0.2499943861957639,-0.1117133851654827,1.2461959926366806,-0.0475717224180698,0.042507205158472,0.0239558704197406,0.2011436422578391,0.0668933493518156,2.0488211535375047,-8.51162338256836,-24.167377471923828,-36.64956665039063,0.06708886928767287,1011.9342719980312
3.37078125,0.1949374656885862,-0.1885506872609257,1.275320964834094,-0.111797884106636,-0.0562470257282257,-0.0275243781507015,0.200357445907862,0.0668035976112621,2.0488587795143167,-8.49655532836914,-24.372371673583984,-37.08050537109375,0.06772307623016927,1011.9341964608714
3.38084912109375,0.1159741113498806,-0.1889160134419798,1.2085375853717326,-0.183188185095787,-0.1384026110172271,-0.0889877378940582,0.1988249308284639,0.0659045510536817,2.048365219223852,-8.788875579833984,-24.23531913757324,-37.1202392578125,0.06835722166188128,1011.9341209310377
3.390918212890625,0.1180645808231085,-0.1891254184089601,1.059634725627303,-0.2399469763040542,-0.2034865468740463,-0.1341893374919891,0.1966089078656096,0.0643633324788218,2.047343540250904,-8.656525611877441,-24.35076332092285,-37.16552734375,0.06899144398207374,1011.9340453920463
3.400986328125,0.2078755289232358,-0.1766898613363504,0.811270205655694,-0.2576413154602051,-0.238775297999382,-0.15069480240345,0.1939973770332378,0.0623793707792503,2.046037736648611,-8.737940788269043,-24.249887466430664,-36.48541259765625,0.06962560479148186,1011.933969860381
3.41105517578125,0.3005086217720061,-0.123268506141752,0.5514455495148897,-0.2491847872734069,-0.2414204776287078,-0.1442426294088363,0.1913545354439609,0.060213074028128,2.044690959388113,-8.941549301147461,-23.858139038085938,-37.15786743164063,0.07025981173397826,1011.9338943232211
3.421123291015625,0.3918938334515318,-0.0684004592701792,0.3663900108933448,-0.2176377922296524,-0.2245299220085144,-0.121766097843647,0.1889098815334866,0.0580883110286142,2.043455146118655,-8.904489517211914,-23.665008544921875,-36.8692626953125,0.07089397254338635,1011.933818791556
3.431192138671875,0.5025588420752436,-0.0497439818561077,0.2302677222669124,-0.1821103543043136,-0.1976543068885803,-0.0772185772657394,0.1868546092465268,0.0561282231113895,2.0425410916399693,-8.966456413269043,-23.75080299377441,-37.027679443359375,0.07152817948588275,1011.9337432543961
3.441260498046875,0.5501632911520078,-0.0734403531335294,0.171641930297017,-0.1547655463218689,-0.1819304674863815,-0.0269279740750789,0.1851411434244989,0.0543045312850283,2.042118537247219,-8.925311088562012,-23.83317375183105,-36.6842041015625,0.07216235567298693,1011.9336677208993
3.4513291015625,0.5307470814118161,-0.1171060379892587,0.1613409010350704,-0.1424852460622787,-0.1840696036815643,0.0205504111945629,0.1836539910979269,0.0524672393091399,2.042174676344469,-8.893394470214844,-23.7828369140625,-36.868408203125,0.07279654723778722,1011.9335921855709
3.461397216796875,0.4394173262465745,-0.1660747976891696,0.1625549529999494,-0.1375056654214859,-0.2011798769235611,0.0453431084752082,0.1822690427882843,0.0504704041368127,2.0426043716913456,-8.637609481811523,-23.70490264892578,-36.95794677734375,0.07343070804719531,1011.9335166539057
3.47146630859375,0.2740272594185546,-0.2346085279501974,0.1703226643919944,-0.1495491713285446,-0.2206073403358459,0.0360741838812828,0.1808418106897175,0.0482560216340568,2.043101070451521,-8.850078582763672,-23.59825325012207,-36.97650146484375,0.07406493036738782,1011.9334411149142
3.481534423828125,0.1122785447675734,-0.329617446552217,0.1314659872531891,-0.1680125892162323,-0.2261954545974731,0.0020054294727742,0.179276462257108,0.0459591619474342,2.0433748411889527,-9.190009117126465,-23.71711158752441,-37.16827392578125,0.07469909117679589,1011.933365583249
3.49160302734375,-0.0124540791099891,-0.4326436673931777,0.0796802704364061,-0.1862543672323227,-0.2104477286338806,-0.0399715453386306,0.1775011066043995,0.0437806903732595,2.043262992698943,-9.414092063903809,-23.460344314575195,-37.01483154296875,0.07533328274159619,1011.9332900479207
3.50167138671875,-0.0949277065919712,-0.4972535022087395,0.0159843355953693,-0.1903854608535766,-0.1759768426418304,-0.0808468088507652,0.175567115227519,0.0419376715983145,2.0427325035273736,-9.322511672973633,-23.48248672485352,-37.1669921875,0.07596745892870038,1011.9332145144239
3.511740234375,-0.0910436682328581,-0.5207213254272938,-0.0857458540856838,-0.177880585193634,-0.1214908733963966,-0.1162605211138725,0.1736639329353682,0.0406218399081784,2.041793825984801,-9.408019065856934,-23.40606689453125,-37.24951171875,0.07660166587119677,1011.933138977264
3.521808349609375,-0.0158812040144577,-0.5358716944165528,-0.1680856991201639,-0.1433079689741134,-0.0637279748916626,-0.1398800909519195,0.1719872206871054,0.0399078511144135,2.0405380824767536,-9.34653377532959,-23.32131004333496,-37.03521728515625,0.07698203338402243,1011.9330912920078
3.531877197265625,0.0721310606332495,-0.530390048135072,-0.2127314810544252,-0.1012176126241684,-0.0077837905846536,-0.1534352600574493,0.1706962499848339,0.0398188292617641,2.039088477593795,-9.343236923217772,-23.267135620117188,-37.357452392578125,0.07735196362254333,1011.933044751505
3.5419453125,0.1497774506218731,-0.5404159137174487,-0.18209902690351,-0.0594989322125911,0.0193703323602676,-0.1613469868898391,0.1698291927472414,0.0401708538301391,2.0375033489195857,-9.344000816345217,-23.51688766479492,-37.04632568359375,0.07772186695182816,1011.9329982143876
3.55201416015625,0.2618498052928596,-0.552140546041727,-0.1217138240456581,-0.0285583063960075,0.0079337917268276,-0.1662941575050354,0.169312856344506,0.0406172363087705,2.035844015775418,-9.20526885986328,-23.371713638305664,-36.956878662109375,0.07809179719034906,1011.9329516738848
3.56208251953125,0.3575029766151681,-0.5955363279148936,-0.0594043751269578,-0.0134637774899601,-0.0326147004961967,-0.1652251631021499,0.1691424836515068,0.040798368627869,2.0341552393954268,-9.342143058776855,-23.54657554626465,-37.3153076171875,0.07846170948937924,1011.9329051356389
3.572151123046875,0.4064322080222889,-0.6483662930876016,0.0029787235498428,-0.0174691621214151,-0.0739209279417991,-0.1698167771100998,0.1690333139822096,0.0405344719064664,2.032433051032537,-9.501731872558594,-23.595163345336918,-37.07562255859375,0.07883163075815479,1011.9328585962645
3.58221923828125,0.4068293541137129,-0.6814832575306295,0.0943067616820335,-0.0300003979355096,-0.086847111582756,-0.1801399886608123,0.1688581712174455,0.0399964230630001,2.0306608362267906,-9.336844444274902,-23.2750186920166,-37.4345703125,0.07920153408743959,1011.9328120591471
3.592288330078125,0.4009845005430281,-0.6709552876450121,0.1509744053214788,-0.0458984300494194,-0.0779642388224601,-0.1963538527488708,0.1685541223364363,0.0394686042307495,2.0287552899976897,-9.352290153503418,-23.163728713989254,-37.620025634765625,0.07957147329570587,1011.9327655175158
3.602356201171875,0.4421136891910806,-0.6563951396338641,0.1499789645433425,-0.0515717640519142,-0.0659999921917915,-0.2043103128671646,0.1681563947519279,0.0390809023937559,2.026725528131056,-9.187007904052734,-23.18343544006348,-37.63494873046875,0.0799413676552453,1011.9327189815269
3.61242529296875,0.4795040931696072,-0.63114598595649,0.1195516775757074,-0.0461978279054164,-0.052769798785448,-0.1983406543731689,0.167780848630646,0.0388635413223247,2.024681070119476,-9.225264549255373,-23.22952079772949,-37.303131103515625,0.08031130686351158,1011.9326724398956
3.622493408203125,0.5103250190973282,-0.5946148291558027,0.0908750336676836,-0.0261996202170848,-0.0648237988352775,-0.1907748728990554,0.1675197772589785,0.038660945114806,2.0227010422515423,-9.331067085266112,-23.31647300720215,-37.471588134765625,0.0806812101927964,1011.9326259027782
3.632561279296875,0.5274564058359712,-0.5683570829577743,0.0759574505209922,-0.0030513601377606,-0.0714602991938591,-0.1849804520606994,0.1674652404241143,0.0383743031540954,2.0207790335103213,-9.27827262878418,-23.49968910217285,-37.455963134765625,0.08105110455233581,1011.9325793667892
3.64263037109375,0.5590661075212061,-0.5815184700869024,0.0866857652842998,0.0223823618143796,-0.0658024176955223,-0.1662538945674896,0.1676516550002319,0.0380775198951755,2.018951539970256,-9.018030166625977,-23.290319442749023,-37.3714599609375,0.08142104376060211,1011.932532825158
3.6526982421875,0.5714397783387452,-0.6282746683038771,0.1086012444943189,0.0449977815151214,-0.0613148137927055,-0.1442044079303741,0.1681242383814334,0.0378220545845473,2.017341014654035,-9.296504974365234,-23.37388229370117,-37.250579833984375,0.08179093812014153,1011.932486289169
3.662767333984375,0.5291668995482847,-0.6650229749865829,0.1398731655925512,0.0596441030502319,-0.0516406148672103,-0.1259987652301788,0.1688117580632592,0.0376019173750212,2.015928627770004,-9.113363265991213,-23.378759384155277,-37.435882568359375,0.08216087732840782,1011.9324397475377
3.672835205078125,0.4735633049437776,-0.7255636606670915,0.229015091857314,0.0579452700912952,-0.0346512123942375,-0.1182930320501327,0.1695767388863452,0.0375384793134508,2.0146403111039866,-9.054875373840332,-23.5529899597168,-37.39581298828125,0.08253077168794726,1011.9323932115489
3.682904296875,0.461532565812394,-0.8375288286365569,0.302701674836874,0.0370453149080276,-0.0383154600858688,-0.1111986339092254,0.1702541857372979,0.0375645316256489,2.0134203665072787,-9.035554885864258,-23.65572929382324,-37.41302490234375,0.08290071089621354,1011.9323466699175
3.69297216796875,0.4779159837279468,-0.9669108492225408,0.2727098566770553,0.031825765967369,-0.0650664791464805,-0.0995582342147827,0.170770768188082,0.0374363615122336,2.01230605550373,-8.758684158325195,-23.317197799682617,-37.20758056640625,0.08327060525575297,1011.9323001339286
3.70304150390625,0.4709909337051212,-1.0463954509563744,0.1468722306996583,0.0465117655694484,-0.0918578803539276,-0.0873729437589645,0.1713099425232273,0.0369947747625454,2.01130900562753,-9.054291725158691,-23.60488510131836,-36.79461669921875,0.08364055343376461,1011.9322535911688
3.713109375,0.4674546128051355,-1.104365409366041,-0.0335720147341489,0.0928918793797493,-0.1230572164058685,-0.0697828829288482,0.1721709395695388,0.0362506954937599,2.0104306137194428,-9.02773666381836,-23.619564056396484,-36.96652221679688,0.08401044779330406,1011.9322070551799
3.72317822265625,0.4379422121927142,-1.1204976289995014,-0.2123112098157405,0.155836746096611,-0.1508347690105438,-0.0544068589806556,0.1735834923870526,0.0351935456116642,2.009718261351497,-9.059453964233398,-23.56157493591309,-37.14306640625,0.08438037803182498,1011.9321605146771
3.733246337890625,0.3822820650953799,-1.1412043169416486,-0.3407604795962572,0.2200464308261871,-0.1661004871129989,-0.0402436107397079,0.1756383762739906,0.0338567286597935,2.0091543787809667,-9.315673828125,-23.32377052307129,-36.58810424804688,0.08475028136110978,1011.9321139775597
3.7433154296875,0.2987773409999907,-1.1306892065376042,-0.4058446539252996,0.2734473347663879,-0.1865019053220749,-0.0335809141397476,0.1782622079984738,0.0323065274793565,2.0086649672057573,-9.08814525604248,-23.37628555297852,-36.71514892578125,0.08512022056937607,1011.9320674359284
3.75338330078125,0.1780641453642398,-1.129503065492958,-0.4653016360223293,0.3138958811759949,-0.2020343989133834,-0.0465501211583614,0.1813318064839399,0.0305195559641993,2.0081344839241644,-9.22050952911377,-23.50912475585937,-36.99020385742188,0.08549011492891549,1011.9320208999394
3.763452392578125,0.1044496047075837,-1.1259648083642124,-0.5008943429291248,0.3373383581638336,-0.1961533278226852,-0.0779165625572204,0.1847092314147293,0.028736466604055,2.007392003063272,-9.181452751159668,-23.50278854370117,-36.27505493164063,0.08586005413718178,1011.9319743583081
3.773520263671875,0.1013965372798964,-1.1456504826955496,-0.5082347688198089,0.344306468963623,-0.2013033032417297,-0.1256409585475921,0.1881788422962093,0.0270211739061242,2.0062571030337017,-9.221795082092283,-23.518068313598636,-36.297393798828125,0.0862299484967212,1011.9319278223193
3.78358935546875,0.1617950380107387,-1.1972408230707048,-0.6025993981689214,0.3495302498340606,-0.261202335357666,-0.1760047823190689,0.1917251661684312,0.0250861725059411,2.004588365039893,-9.427624702453612,-23.95599937438965,-36.64385986328125,0.0865998877049875,1011.9318812806879
3.7936572265625,0.2210601507974788,-1.215062603226304,-0.7870657387256622,0.3062981367111206,-0.3342133462429046,-0.2351334542036056,0.1950354788426435,0.0225189018827847,2.002408562470048,-9.39579963684082,-24.15943145751953,-36.56158447265625,0.08696978206452692,1011.931834744699
3.803726318359375,0.2739472164522856,-1.010206970113516,-0.8468348555117845,0.2588379681110382,-0.3913429379463196,-0.3040027916431427,0.1978205340994294,0.0194114829758804,1.999577350599816,-9.555524826049805,-24.37643051147461,-36.2646484375,0.08733972127279321,1011.9317882030676
3.813794189453125,0.2085474551017396,-0.7396518072523176,-0.9405816452234984,0.2044565081596374,-0.4722033441066742,-0.3548016846179962,0.2001097813662124,0.0157307518099502,1.9961387704606,-9.711214065551758,-24.38153648376465,-36.2001953125,0.08770961563233264,1011.9317416670788
3.82386328125,0.1094625831645447,-0.4613189961269497,-1.165054417476058,0.1386671066284179,-0.5060065984725952,-0.3972697556018829,0.2017767395261168,0.0115019403901718,1.9922448018812104,-9.670489311218262,-24.554283142089844,-36.1387939453125,0.08807955484059893,1011.9316951254475
3.83393115234375,0.0474131140560144,-0.2398286006860434,-1.3416601076602934,0.0644244402647018,-0.4859853982925415,-0.4376313984394073,0.2027452471635613,0.0073239516044464,1.9879592967636783,-9.836676597595217,-24.39260673522949,-35.68365478515625,0.08844944920013835,1011.9316485894585
3.84400048828125,-0.0477250249828211,0.0278673733517527,-1.5195494079142808,-0.0081123458221554,-0.40607351064682,-0.4808997809886932,0.2029783379394873,0.0037223264027098,1.9832223569092016,-9.783230781555176,-24.57192039489746,-35.918365478515625,0.08881939737815,1011.9316020466988
3.854068359375,-0.0756297027042368,0.3117798843055963,-1.700664099955559,-0.0468904301524162,-0.2834856510162353,-0.4990627467632293,0.2026563866155757,0.0012527370617416,1.9781732046713016,-9.916827201843262,-24.62824821472168,-35.6968994140625,0.08918929173768944,1011.9315555107098
3.86413720703125,-0.0938181744474917,0.5682067147016525,-1.857588938114047,-0.0614280961453914,-0.1336138546466827,-0.5028601288795471,0.2021057899731526,0.0001708528711243,1.9730198340968936,-9.744378089904783,-24.678184509277344,-35.5531005859375,0.08955922197621036,1011.931508970207
3.874205078125,-0.0321272592859342,0.872148598857969,-1.8948282431840893,-0.0597942769527435,0.0165928900241851,-0.4873374998569488,0.2014856909263284,0.000618288558156,1.967910944466233,-9.650476455688477,-24.814525604248047,-35.5296630859375,0.0899291163357498,1011.9314624342181
3.8842744140625,0.0862787736522965,1.1091107041969894,-1.872555621099472,-0.0452217236161232,0.1455775052309036,-0.4293263852596283,0.2009495762000779,0.0024201492830876,1.963192570837624,-9.698765754699709,-24.88435173034668,-35.76177978515625,0.09029906451376143,1011.9314158914583
3.89434228515625,0.1951543963748961,1.266170128520578,-1.7740508232057093,-0.0100312391296029,0.2328319400548935,-0.3383737206459045,0.2006474563715756,0.0051512808653337,1.9592371761576608,-9.511185646057127,-24.89909553527832,-35.6024169921875,0.09066895887330088,1011.9313693554694
3.904411376953125,0.26365831601955,1.4180819608226418,-1.6129600975394247,0.0501418188214302,0.2803211510181427,-0.2338715642690658,0.2008062547034026,0.0083468418067146,1.956299187362436,-9.462252616882324,-25.012113571166992,-36.005401611328125,0.09103889808156716,1011.931322813838
3.914479248046875,0.2640273319950327,1.5152973034277557,-1.4349024549812075,0.1384488940238952,0.2906540036201477,-0.1267446279525756,0.2017199593702094,0.0116275438905929,1.9544296022952736,-9.172391891479492,-25.034269332885746,-35.87744140625,0.0914087924411066,1011.9312762778492
3.92454833984375,0.1828397988008335,1.5628228785820304,-1.207229425382614,0.2415481060743332,0.2675859630107879,-0.0324351750314235,0.2036142668382657,0.0146169833970342,1.9535913021550373,-9.25224781036377,-25.08139991760254,-35.611297607421875,0.09177873164937289,1011.9312297362179
3.934616455078125,0.0410414007667452,1.5675905313752592,-0.9291501506268978,0.3386590480804443,0.2354883700609207,0.051464132964611,0.2065421803087705,0.0171457577914869,1.9536525217677676,-9.258917808532717,-25.210981369018555,-35.479248046875,0.09214863497865769,1011.9311831991005
3.944685302734375,-0.1198107121043838,1.4905531766630709,-0.5980284369915724,0.4168630540370941,0.1882875561714172,0.1122987195849418,0.2103660050999469,0.0191406464482678,1.9544401505360545,-8.657991409301758,-25.06341552734375,-35.45465087890625,0.0925185652171786,1011.9311366585977
3.954753173828125,-0.3263116099398583,1.3514968804113563,-0.2878875520646572,0.4616591930389404,0.1328185200691223,0.1297247111797332,0.2148260359483167,0.0205025864020256,1.955620530979672,-8.615288734436035,-25.128890991210938,-35.48455810546875,0.09288845957671804,1011.9310901226087
3.9648212890625,-0.5436600102052093,1.1953956335954368,-0.0215863933861255,0.4795649647712707,0.0839106366038322,0.1111347824335098,0.2195889141036644,0.021329462158658,1.956780329932135,-8.596827507019043,-25.386207580566406,-35.253021240234375,0.09325836290600284,1011.9310435854914
3.974887451171875,-0.7403992646187544,1.025763581816107,0.2237450424998998,0.47836834192276,0.0513549968600273,0.0768272280693054,0.2244284901598741,0.0218188485508995,1.957663980002578,-8.863655090332031,-25.63370513916016,-35.194183349609375,0.09362819447732468,1011.9309970574017
3.984955810546875,-0.928530630489066,0.9290366072498262,0.4370248050868511,0.4647489488124847,0.0269010569900274,0.0268977526575326,0.2291983539486574,0.0221131780098006,1.9581088767498445,-8.97413444519043,-25.68912506103516,-35.224517822265625,0.09399810677635487,1011.9309505191558
3.995024658203125,-1.111830046158284,0.8742853186257183,0.6076975980907678,0.4232081770896911,0.0016981675289571,-0.0441413186490535,0.2336679250630567,0.0222926773006066,1.9579254712817489,-8.86995792388916,-25.683460235595703,-35.023193359375,0.09436803701487577,1011.930903978653
4.0050927734375,-1.2532231147944926,0.8370673486046493,0.7738052751362323,0.3536461293697357,0.0020081591792404,-0.1374390423297882,0.2375640085992831,0.0225318795478191,1.956909269065038,-8.72988224029541,-25.83370018005371,-34.71954345703125,0.09473794034416058,1011.9308574415356
4.01516162109375,-1.3800157034091651,0.8251740817151964,0.941357890293002,0.2611902058124542,0.0208288468420505,-0.2427344620227813,0.240619043681693,0.0231353483367963,1.9548833966417167,-8.793062210083008,-26.039119720458984,-34.496246337890625,0.09510787058268148,1011.9308109010328
4.025229736328125,-1.434510240793228,0.8494272100925445,1.0861012922704218,0.1598755866289138,0.0518077984452247,-0.3427835702896118,0.2426632973306492,0.0242347298482588,1.951788114586472,-8.700508117675781,-26.079931259155277,-34.57537841796875,0.0954777739119663,1011.9307643639154
4.035298583984375,-1.3719206597588955,0.8643653976358473,1.1198089160829785,0.066922403872013,0.0859396457672119,-0.4263300001621246,0.2436824894438421,0.0259037319313787,1.9477432519342943,-8.80904483795166,-26.233476638793945,-34.46502685546875,0.0958477041504872,1011.9307178234126
4.04536669921875,-1.2145236009787768,0.8656887551940977,1.038017937102914,-0.0014949990436434,0.1101078316569328,-0.4846785366535187,0.2438687144065388,0.0280307276339658,1.9429984488541103,-8.610754013061523,-26.336898803710938,-34.2156982421875,0.09621760747977201,1011.9306712862951
4.055435546875,-1.0043050525933503,0.8891803976796567,0.9383084395945072,-0.0298647508025169,0.1283782422542572,-0.513943612575531,0.2435383533645669,0.0304845775018496,1.9378095037861225,-8.236149787902832,-26.085857391357425,-34.004852294921875,0.09658753771829291,1011.9306247457923
4.065503662109375,-0.7901476303890347,0.9534059093527496,0.7990922766059637,-0.0427488572895526,0.1326813995838165,-0.5222428441047668,0.2429756518574869,0.0330727710123161,1.932440226137967,-8.256104469299316,-26.37244415283203,-34.150238037109375,0.09695744104757772,1011.9305782086749
4.07557275390625,-0.5909816237526014,1.000083635506034,0.6957528981626033,-0.0369505435228347,0.1371027678251266,-0.4992824196815491,0.2423930466891659,0.035710414652321,1.927131713890475,-8.280657768249512,-26.46584129333496,-34.442718505859375,0.097327380255844,1011.9305316670436
4.085640625,-0.4673233145756647,1.0148115412995218,0.6534101324737072,-0.0298992935568094,0.133677676320076,-0.4570516049861908,0.2418810478473814,0.0382633506609356,1.9221831903897488,-7.803117752075195,-26.56625747680664,-34.2637939453125,0.09769727461538344,1011.9304851310548
4.095709716796875,-0.3695758378552273,1.0264479108184577,0.658714668622613,-0.0379478819668293,0.1116390824317932,-0.4026108682155609,0.2413587294992257,0.040550908511183,1.9177351038898525,-7.77449893951416,-26.55106544494629,-34.686248779296875,0.09806721382364972,1011.9304385894234
4.10577783203125,-0.2743759632583707,1.0041215127199887,0.6936731692790985,-0.0579378381371498,0.0999414175748825,-0.3436210453510284,0.2407270248271764,0.0425385429099794,1.9138998066820097,-7.772215843200684,-26.568607330322266,-34.109588623046875,0.09843711715293453,1011.930392052306
4.115846435546875,-0.2058425252582877,0.9223572756163776,0.707704617241025,-0.0857774838805198,0.0975969657301902,-0.2900327742099762,0.2398564340989323,0.0442748121265921,1.910673607031012,-7.558933258056641,-26.530906677246094,-34.0384521484375,0.0988070384217101,1011.9303455129317
4.12591455078125,-0.1986424211537465,0.7965332397729158,0.694744597902894,-0.1099786907434463,0.1181922554969787,-0.2466067224740982,0.2387434918901327,0.0459744491152084,1.90795384406312,-7.491735458374023,-26.469810485839844,-34.461090087890625,0.09917694175099487,1011.9302989758143
4.135983642578125,-0.1934036071848124,0.6824857125714421,0.7041653371989727,-0.1326983124017715,0.1379547417163849,-0.2169296890497207,0.2374220762513291,0.0477983635537692,1.905624330422556,-7.301054954528809,-26.52862548828125,-34.31732177734375,0.09954688095926117,1011.930252434183
4.1460517578125,-0.1770651974547654,0.5832705744512379,0.6689940705746412,-0.1400646120309829,0.1528575271368026,-0.1989445686340332,0.2359303427370051,0.0497108336346456,1.9035533673185565,-7.012462615966797,-26.566913604736328,-34.4312744140625,0.09991678428854596,1011.9302058970655
4.15612060546875,-0.1156792200565338,0.447925846068561,0.607426964455843,-0.1376767307519912,0.1621889024972915,-0.1848597228527069,0.2344164754571072,0.0517312031765834,1.901644534324603,-7.092352867126465,-26.770511627197266,-34.42718505859375,0.10028671452706689,1011.9301593565627
4.166188720703125,0.0223959196707233,0.2935603370040655,0.5293664041757583,-0.1246584057807922,0.135426789522171,-0.1708930432796478,0.2329797571366957,0.0536493645046734,1.8998818039645315,-7.111586570739746,-26.445720672607425,-34.708984375,0.10065661785635167,1011.9301128194453
4.176257568359375,0.1478747222730889,0.2016368171967565,0.4414771083205938,-0.1168239042162895,0.07502943277359,-0.1515913009643554,0.2316734971186443,0.0550999897875647,1.8982903116598917,-7.135039329528809,-26.303939819335938,-34.5247802734375,0.1010265480948726,1011.9300662789425
4.186325927734375,0.2288556635119021,0.1511566300205886,0.3957394394963979,-0.1359890848398208,-0.0423443280160427,-0.1265237629413604,0.2303356235805139,0.0555821006759814,1.896934155577919,-6.981794357299805,-26.39901351928711,-34.473785400390625,0.10139646039390277,1011.9300197406966
4.19639453125,0.3054331456273794,0.1513907310374081,0.3354506827503442,-0.1861256659030914,-0.1755684614181518,-0.1035001203417778,0.228652174722564,0.0547168185217673,1.8958477130029368,-6.876242637634277,-26.44473648071289,-34.634521484375,0.10176638166267832,1011.9299732013222
4.206462646484375,0.3050320540132001,0.1683668541491031,0.219582077601552,-0.2297498434782028,-0.261819988489151,-0.0793748050928115,0.2265133945199867,0.0526461115786136,1.8950288844708223,-6.711061477661133,-26.26934051513672,-34.932220458984375,0.1021362849919631,1011.9299266642049
4.21653173828125,0.1781240588579326,0.1764526915796101,0.0143657944828271,-0.2543215453624725,-0.2950060367584228,-0.0516399182379245,0.224009277318656,0.0499065048706256,1.894484533875226,-6.907617568969727,-26.14951705932617,-34.933319091796875,0.10250622420022941,1011.9298801225735
4.226599853515625,0.0210940067593008,0.2133523894317448,-0.2524538351118564,-0.2602260410785675,-0.2731657028198242,-0.0367272831499576,0.2213745437184845,0.0470644193427514,1.8941721940728249,-6.992727279663086,-26.049360275268555,-34.81414794921875,0.1028761275295142,1011.9298335854562
4.23666845703125,-0.107100630673021,0.244039642509818,-0.449026208525896,-0.2425546646118164,-0.1820281893014907,-0.0395044386386871,0.2188114282134362,0.0447794154929113,1.8939095780341348,-6.995270729064941,-25.831615447998047,-35.073699951171875,0.10324604879828975,1011.9297870460819
4.24673681640625,-0.1400229493267834,0.2248432130001485,-0.5570967071443795,-0.2010458558797836,-0.0889027789235115,-0.0316920578479766,0.2165409843600294,0.0434747490431797,1.893638887706119,-7.022028923034668,-25.984251022338867,-35.00018310546875,0.10361596109731991,1011.929740507836
4.2568056640625,-0.0624855726705864,0.1700545149751007,-0.6811304985702037,-0.1267356425523758,-0.0199162811040878,-0.0119185093790292,0.2148517045540993,0.0429557959818334,1.8934731103637863,-6.942447662353516,-25.93609619140625,-34.80859375,0.10398589133584084,1011.9296939673332
4.266873779296875,0.0339490313529968,0.1018877183303236,-0.7160872456610202,-0.0504110604524612,0.0321389287710189,0.0089252535253763,0.2139530475592192,0.0430028019035737,1.89349220598817,-6.906863212585449,-25.81868934631348,-34.95751953125,0.10435579466512565,1011.9296474302157
