Timestamp,Acc x (m/s^2),Acc y (m/s^2),Acc z (m/s^2),Gyro x (rad/s),Gyro y (rad/s),Gyro z (rad/s),Beccheggio/Pitch (rad/s),Rollio/Roll (rad/s),Imbardata/Yaw (rad/s),Mag x (microTesla),Mag y (microTesla),Mag z (microTesla),Altitudine (m),Pressione (milliBar)
0.040885498046875,-0.1546757075248286,-0.0427011506725102,0.290651756080985,-0.0605489015579223,-0.0131402034312486,-0.0697420313954353,0.0682695118362087,0.0390974234972096,0.7738096647690996,15.24289321899414,-18.747358322143555,-32.137115478515625,0.012114011693984066,1015.7927333206486
0.0509541015625,-0.0702011885492131,-0.0378801602568477,0.2990098345816135,-0.0605449080467224,0.0665844529867172,-0.0720166340470314,0.0676457868011191,0.0394550227596515,0.773126004438727,15.271470069885254,-18.788299560546875,-31.961944580078125,0.012325698666464255,1015.7927073420993
0.061022216796875,-0.0712370344029739,-0.0494890572469681,0.2911550294280052,-0.0682846084237098,0.1042067483067512,-0.0816142782568931,0.0669792973370334,0.0403856838285894,0.772375583254214,15.169231414794922,-19.508203506469727,-32.20245361328125,0.012537375373093837,1015.79268136481
0.07109130859375,-0.0774921492749825,-0.0736569184936583,0.2042822171390056,-0.10580775141716,0.1437568217515945,-0.0960313007235527,0.0660692369222968,0.0416964295114218,0.7715106134926032,15.177989959716797,-19.715333938598636,-31.58251953125,0.012749072611424635,1015.7926553850009
0.0811591796875,-0.0287373245866969,-0.0801408006202429,0.1785883884340524,-0.1575507074594497,0.1678261160850525,-0.1087893843650817,0.0647032537169976,0.0433330609050091,0.7705250096300807,15.309280395507812,-19.796356201171875,-32.1092529296875,0.01296074418512891,1015.7926294083414
0.091228271484375,0.0002659209271892,-0.0640438714958727,0.1882879446715116,-0.2035363167524337,0.161626785993576,-0.1187868937849998,0.0628313530684272,0.0450599266203422,0.7694541273318753,15.48826026916504,-19.720048904418945,-32.48114013671875,0.013172441423459708,1015.7926034285324
0.10129736328125,0.0044275706512853,-0.0415201607270166,0.1912292588204145,-0.2516305148601532,0.1529670059680938,-0.1382283568382263,0.0604850014739896,0.0466630744938118,0.7682608866797512,15.339961051940918,-19.601003646850582,-32.5927734375,0.013384138661790506,1015.7925774487233
0.111365478515625,0.0241255930075421,-0.0186316352337598,0.2288689613848924,-0.2911664843559265,0.1704804897308349,-0.1548158526420593,0.0577024257107094,0.0483440824244942,0.7669226414546192,15.50490665435791,-19.354684829711918,-32.437469482421875,0.01359581536842009,1015.792551471434
0.121434326171875,0.0368740519542247,-0.0076776584884151,0.2412479659646749,-0.3275524079799652,0.1773662567138672,-0.1351708471775055,0.0545419813118004,0.0501685110603735,0.7655284504737176,15.800223350524902,-19.212797164916992,-32.067840576171875,0.013807507473825583,1015.7925254922548
0.131503173828125,0.2407840017147362,0.0299458966588601,0.1894382837504148,-0.3760315179824829,0.1494312882423401,0.0001547546125948,0.0509577639685479,0.0518465647696318,0.7650647306801032,15.802064895629885,-18.91014671325684,-32.036407470703125,0.014019199579231076,1015.7924995130757
0.141571533203125,1.0142444089360534,0.2153675286464393,0.1465086580842733,-0.4027743339538574,0.0544950179755687,0.0698201358318328,0.0470641999216813,0.0528326104911991,0.7656686205345739,16.042871475219727,-18.6290283203125,-31.778594970703125,0.014230881418785963,1015.7924735351563
0.15164013671875,0.3011205065926536,0.2818000488445162,-0.102470778915286,-0.399364173412323,0.0009465725161135,0.0577847808599472,0.0430769310599273,0.0530169272031152,0.7665500858161048,15.664605140686035,-18.87986183166504,-31.738525390625,0.014442568391266153,1015.792447556607
0.161708251953125,-0.2203997506599873,0.1394083976250141,-0.1370452486902475,-0.3919239044189453,-0.0213262289762496,0.0374731011688709,0.0391738377326699,0.0528894644393992,0.7672064845022494,15.80775260925293,-18.83525848388672,-32.119049072265625,0.014654245097895735,1015.7924215793176
0.17177734375,-0.1855946869995444,-0.1031360378909856,-0.1141278989613056,-0.3673112392425537,-0.0187448263168334,0.0376267656683921,0.0353583366660658,0.0526434782411298,0.7678052834876643,15.860337257385254,-18.57075309753418,-32.157562255859375,0.014865942336226533,1015.7923955995086
0.18184619140625,-0.0595708177350461,-0.241792813431099,-0.1158119065254926,-0.3049378395080566,0.0015648966655135,0.0111620053648948,0.0319748079311672,0.0525580766674818,0.7682381030471609,15.669068336486816,-18.596609115600582,-31.81671142578125,0.015077634441632027,1015.7923696203294
0.191914306640625,0.0582982770485803,-0.1522881730674765,-0.1286176120847463,-0.2176807075738906,-0.0136976791545748,-0.0205511823296546,0.0293512406276646,0.0525126121260436,0.7683100323510788,15.639225006103516,-18.41434669494629,-32.22705078125,0.01528931114826161,1015.79234364304
0.2019833984375,0.1406306328963488,-0.1333219903834164,-0.2209071887254715,-0.1401839554309845,-0.0407461039721965,-0.0367822647094726,0.0275613820385796,0.0522468397969086,0.7681138228380292,15.788728713989258,-18.169204711914062,-32.45709228515625,0.015501008386592408,1015.792317663231
0.21205126953125,0.2158487728247418,-0.0912791392228566,-0.2526286071568727,-0.091397501528263,-0.0795158669352531,-0.0529652275145053,0.0264007508167681,0.051669452629249,0.7677360147389055,15.783947944641112,-18.251014709472656,-32.689361572265625,0.015712679960296683,1015.7922916865715
0.222120361328125,0.1869072674354538,-0.0023324615355581,-0.2006523362040519,-0.064189426600933,-0.1016895920038223,-0.0711059719324112,0.0256133438559376,0.0507729205456421,0.7671387001394421,15.757927894592283,-17.979076385498047,-32.822601318359375,0.015924377198627482,1015.7922657067625
0.232189208984375,0.0426935153553262,-0.007314743460156,-0.1462362708836793,-0.0737570971250534,-0.1038621962070465,-0.0904655531048774,0.0248761761349339,0.0497289778110389,0.7663815576174098,15.681085586547852,-18.042015075683597,-32.8668212890625,0.016136069304032975,1015.7922397275833
0.24225732421875,-0.031257965638116,-0.0749816094924695,-0.0589162993490695,-0.0947453901171684,-0.0957219153642654,-0.1211714819073677,0.0239725105451499,0.0487682471145816,0.7653478606280549,15.622417449951172,-18.03799819946289,-32.496978759765625,0.016347746010662557,1015.7922137502939
0.252326171875,0.002109612565115,-0.1068831702637486,-0.0120908352881669,-0.1286618113517761,-0.1138186305761337,-0.1286003738641739,0.0228095933016286,0.0477738456384308,0.7641344742599899,15.53891372680664,-17.989009857177734,-32.796966552734375,0.016559438116068054,1015.7921877711148
0.262394287109375,0.1092293132647871,-0.1304347993082366,-0.0747848996102809,-0.1657664179801941,-0.1314212381839752,-0.1220341622829437,0.0212468480984785,0.0465519887522182,0.7629480962985928,15.58742332458496,-17.937875747680664,-32.731201171875,0.016771114822697632,1015.7921617938254
0.27246337890625,0.1074798392489552,-0.0569967111970297,-0.0911988587945699,-0.1735870540142059,-0.1298220008611679,-0.1188926994800567,0.0194577337218015,0.0452469630197118,0.7618110951869186,15.618924140930176,-17.8211612701416,-32.636474609375,0.016982812061028432,1015.7921358140163
0.2825322265625,0.0761640424763783,-0.0254329858116805,-0.0984247183948755,-0.1558158993721008,-0.1202260851860046,-0.1083157733082771,0.017732191761285,0.0440123610425289,0.760741444329911,15.594759941101074,-17.757356643676758,-32.745025634765625,0.017194504166433925,1015.7921098348371
0.29260009765625,0.0336255350196734,-0.0710159207318909,-0.1733078176826238,-0.1223961487412452,-0.0894327536225318,-0.100758783519268,0.0162729036053504,0.0429767842384942,0.7597527424975602,15.517474174499512,-17.75328826904297,-32.87042236328125,0.0174061757401382,1015.7920838581776
0.30266943359375,-0.0229164729461073,-0.0196575807480141,-0.2271481289416551,-0.0833496078848838,-0.0744590461254119,-0.0946824476122856,0.0152079849033666,0.0422254737261612,0.7588083563690312,15.580404281616213,-17.671953201293945,-32.830230712890625,0.017617878111394304,1015.7920578777387
0.3127373046875,-0.0139860744502395,0.0335883174149785,-0.2971054622650146,-0.0381243452429771,-0.0704201012849807,-0.082271046936512,0.0145797464695228,0.0415426404274141,0.7579509143651613,15.711469650268556,-17.84009552001953,-32.838470458984375,0.017829549685098582,1015.7920319010792
0.32280615234375,0.0090150811046361,0.0364372862384654,-0.3431809847414493,-0.0028040232136845,-0.0728296414017677,-0.0736668854951858,0.014366698140509,0.0408443371630654,0.7571793166467056,15.607759475708008,-17.527013778686523,-32.534271240234375,0.018041241790504075,1015.7920059219
0.33287548828125,-0.0271949539829045,0.0413546679669991,-0.3044745297282934,0.0237833783030509,-0.0639490634202957,-0.0740296095609664,0.0144866746798942,0.0401721636427693,0.7564189477025829,15.434534072875977,-17.646533966064453,-32.817474365234375,0.01825294416176018,1015.791979941461
0.342943359375,-0.0806893378810957,0.0480060612807516,-0.1959714849114417,0.0413838289678096,-0.0469633340835571,-0.0708766728639602,0.014814010247334,0.0396300683736545,0.7556680689301895,15.592897415161133,-17.52276039123535,-32.3524169921875,0.018464615735464457,1015.7919539648016
0.353012451171875,-0.1226803309902548,0.0526310085345059,-0.0568757334321737,0.0499288439750671,-0.0347093306481838,-0.0632938593626022,0.0152704165064064,0.0392426990142597,0.7549660847836154,15.439102172851562,-17.47473907470703,-32.788604736328125,0.018676312973795257,1015.7919279849925
0.363080322265625,-0.1065485862808302,0.046178562725801,0.0516489386945962,0.0518730171024799,-0.0264774188399314,-0.0555123873054981,0.0157874366376549,0.0389405337283597,0.7543397747730329,15.67190933227539,-17.634145736694336,-32.909820556640625,0.01888798454749953,1015.7919020083331
0.3731494140625,-0.0397636724485084,0.0127441663640551,0.1605839451879263,0.0444393381476402,-0.0189084485173225,-0.0502979196608066,0.016284393282132,0.0387375571099814,0.7537903441451991,15.729304313659668,-17.475341796875,-32.726806640625,0.01909968178583033,1015.7918760285239
0.38321826171875,0.0220888630155473,0.0047433038032613,0.1864665744632482,0.0204306431114673,-0.0101289823651313,-0.0439029112458229,0.0166129854799058,0.0386102580612996,0.7532933702152554,15.500662803649902,-17.563962936401367,-32.76544189453125,0.019311373891235824,1015.7918500493448
0.393286376953125,0.0176908472523093,-0.0182107794731855,0.1746802750796079,-0.0033641681075096,-0.0128182424232363,-0.0412117838859558,0.0166679597305264,0.0384940909209432,0.7528656831273418,15.80109977722168,-17.601030349731445,-33.100494384765625,0.019523050597865403,1015.7918240720554
0.403355224609375,0.0115197574019432,-0.0444103840094991,0.1449906547367572,-0.0297878719866275,-0.0220474265515804,-0.0393979474902153,0.0164682391721823,0.0383449102842631,0.7524652612341964,15.67799186706543,-17.489177703857422,-32.7945556640625,0.0197347427032709,1015.7917980928762
0.41342431640625,-0.0288970817256718,-0.0542482892717234,0.1415752933353185,-0.047107208520174,-0.0388434529304504,-0.03823734074831,0.016044829414441,0.0380559797079617,0.7520801987507678,15.896172523498535,-17.47157859802246,-33.10235595703125,0.0199464399416017,1015.7917721130672
0.4234921875,-0.0278418735843151,-0.0384182309226132,0.1246487084537744,-0.0527446493506431,-0.0611741468310356,-0.0381351485848426,0.0155074901869219,0.0375203554895675,0.7517130642228097,15.905817031860352,-17.511587142944336,-33.138031005859375,0.020158111515305974,1015.7917461364077
0.4335615234375,-0.0014219225618988,-0.0346529418386518,0.0767839644730091,-0.0470265746116638,-0.06329295784235,-0.0430489480495452,0.0149605941881728,0.0368701203572244,0.7513125165127037,15.905582427978516,-17.55422592163086,-33.282745361328125,0.020369813886562078,1015.7917201559687
0.44362939453125,0.0299601443799212,-0.0081770959105342,0.0278173967301845,-0.0272858627140522,-0.0482381954789161,-0.0429256074130535,0.0145628019072204,0.0362938877694089,0.7509024810883292,15.58836269378662,-17.446199417114258,-32.928192138671875,0.020581485460266353,1015.7916941793093
0.4536982421875,0.0411882253589108,0.0071004979212768,-0.0329337168306112,-0.001116044819355,-0.0245240777730941,-0.0335014797747135,0.0144116817734267,0.0359267848649349,0.7505272892424576,15.53733253479004,-17.42218780517578,-33.1077880859375,0.02079317756567185,1015.7916682001301
0.463767333984375,0.0027647520055994,0.0359379492810461,-0.055808396461606,0.0129476329311728,0.0037763598375022,-0.0239183567464351,0.0144683783224879,0.0358470548711414,0.7502289985454592,15.703271865844728,-17.41335678100586,-32.998809814453125,0.021004874804002645,1015.791642220321
0.47383544921875,-0.0345635099895298,0.0698868162372615,-0.057373161560297,0.0239254496991634,0.0152085106819868,-0.0184301156550645,0.0146648398775249,0.035961038461521,0.7500029833125748,15.653849601745604,-17.378936767578125,-33.1929931640625,0.02121671352916448,1015.7916162240285
0.483904052734375,-0.0340494595201686,0.0986169530313462,-0.0948608884334564,0.0293180532753467,0.0079831797629594,-0.0145147731527686,0.014924238634824,0.0360766939375579,0.7498307618788306,15.545611381530762,-17.36865997314453,-32.916961669921875,0.021428832925038974,1015.7915901947604
0.493972412109375,-0.0135732558656483,0.1198994407006073,-0.1185533141881227,0.0273582339286804,-0.0030023604631423,-0.0191926155239343,0.0152176498852298,0.0360945884550229,0.7496499698817272,15.343358993530272,-17.432857513427734,-33.2255859375,0.021640947177502885,1015.7915641661234
0.504041259765625,0.0051718131473287,0.1265094151585828,-0.1158715277582407,0.0181728117167949,-0.0136720463633537,-0.0224153622984886,0.0154492019994572,0.03602951649147,0.7494365914594339,15.330780982971191,-17.450571060180664,-32.899200439453125,0.02185307171678796,1015.7915381362242
0.5141103515625,0.0437146020313724,0.1076516978176776,-0.1033797104537486,-0.0022536348551511,-0.0304792560636997,-0.0158597249537706,0.0155251613697931,0.0357917327122252,0.7492458217021651,15.34569263458252,-17.60409164428711,-33.05206298828125,0.02206520139948362,1015.7915121056938
0.52417822265625,0.0902101765507832,0.0649460901657585,-0.1001151556998491,-0.0212600175291299,-0.0250780135393142,-0.0093814395368099,0.0153818092414663,0.0355057678713577,0.7491172797421155,15.504616737365724,-17.314531326293945,-32.580352783203125,0.022277305365126364,1015.7914860783192
0.534247802734375,0.0995947850875556,0.044881691315677,-0.1025496893703937,-0.0243591349571943,-0.0161194074898958,-0.0059321131557226,0.0151363193024044,0.0352962024025003,0.7490460944868337,15.323952674865724,-17.084394454956055,-33.01324462890625,0.022489445334643192,1015.7914600465265
0.5443154296875,0.0709862745122984,0.0499234300762414,-0.1036725559204816,-0.0085770674049854,-0.016642453148961,-0.0009896657429635,0.0149485081776439,0.035161500552744,0.7490149994480245,15.301400184631348,-17.49730682373047,-33.24908447265625,0.02270154415687535,1015.791434019783
0.554384521484375,0.0590118686780333,0.0844821725591085,-0.1044470474243164,-0.0054273474961519,-0.0398718751966953,0.0021025305613875,0.0148561755605766,0.0348411348215216,0.7490391342480646,15.372883796691896,-17.504554748535156,-33.073486328125,0.02291367383957101,1015.7914079892525
0.564453857421875,0.0506969717320054,0.1146190982780419,-0.134694301649928,0.0130769480019807,-0.033648420125246,0.0060870363377034,0.0148775299081438,0.0344527877747159,0.7490615596665737,15.644493103027344,-17.50627899169922,-32.93475341796875,0.023125808665677254,1015.7913819580909
0.574521728515625,0.0049503158837556,0.0734820185844786,-0.052346857830882,0.0347689278423786,-0.0168675761669874,0.0047890120185911,0.0150925299616109,0.0342195252795694,0.7491144003857217,15.649041175842283,-17.500341415405273,-33.06353759765625,0.023337912631319995,1015.7913559307163
0.584590576171875,-0.052023507628031,0.0558966592669486,-0.0163099142879247,0.0577850602567195,-0.0088688600808382,0.0023328159004449,0.0155424180357763,0.0340937184949618,0.7491295099304717,15.43890380859375,-17.45539093017578,-32.79669189453125,0.02355003717060507,1015.7913299008171
0.59465869140625,-0.0306767316840589,0.073158102126047,-0.0190647659540176,0.0726907700300216,-0.0147866699844598,0.0008078897371888,0.0161887857841485,0.0339771593941027,0.7491260416796278,15.55128574371338,-17.42122459411621,-32.856048583984375,0.0237621462796584,1015.7913038728112
0.604727783203125,0.0129626131540164,0.0933262262120842,-0.0543196192085742,0.0802679657936096,-0.0126304812729358,0.0020979135297238,0.0169484677352479,0.0338762918428694,0.7491210716244979,15.587320327758787,-17.46578598022461,-32.9130859375,0.023974275962354057,1015.7912778422809
0.614796630859375,0.0413949269121512,0.0838815580511465,-0.0108615857541561,0.0815785080194473,-0.0224016197025775,0.0088927019387483,0.0177555202739285,0.0337239465914898,0.7491444789149182,15.657832145690918,-17.273595809936523,-33.468353271484375,0.024186400501639133,1015.7912518123816
0.62486474609375,0.0780485045161098,0.0673922686083242,0.0516436779975891,0.0792611166834831,-0.0401747673749923,0.0169071368873119,0.0185613944908613,0.0334198188700034,0.7492594975800478,15.70248317718506,-17.205644607543945,-33.11297607421875,0.02439850961069246,1015.7912257843758
0.63493359375,0.0832705500133335,0.0362684142112731,0.0693190354198217,0.0608509518206119,-0.0494233928620815,0.0238081868737936,0.0192635044304984,0.0329637207304246,0.7494492203038133,15.499873161315918,-17.512475967407227,-33.220458984375,0.024610634149977537,1015.7911997544766
0.645001708984375,0.0709152185700833,0.0201888198141939,0.1112520512640476,0.0425491146743297,-0.0321531482040882,0.022657360881567,0.0197601675812343,0.0325604324905095,0.7496584633977127,15.662591934204102,-17.60675621032715,-32.776458740234375,0.024822743259030864,1015.7911737264708
0.655070556640625,0.025911088184826,0.0190203240240924,0.1793424216717481,0.0152541100978851,-0.0027137666475027,0.0273085720837116,0.0200377986350465,0.0323736215790502,0.7498956448635977,15.49994945526123,-17.57929229736328,-32.90643310546875,0.02503486779831594,1015.7911476965716
0.6651396484375,0.0026719956882297,0.0338141163943335,0.1994973209500312,-0.0064547974616289,0.0287697724997997,0.0283286403864622,0.0200662490071751,0.0325004189030595,0.7501730201562822,15.514886856079102,-17.75982093811035,-32.82672119140625,0.0252469974810116,1015.7911216660411
0.675207763671875,-0.0192840712605044,0.0384284235230647,0.1807102028936147,-0.0216635763645172,0.0433132946491241,0.0247850380837917,0.019895874374233,0.0328626341755266,0.7504541667067072,15.417150497436523,-17.648073196411133,-33.25634765625,0.025459106590064923,1015.7910956380354
0.685276611328125,-0.0267957620648667,0.0706889172672294,0.1171937162727117,-0.0275804661214351,0.0349458195269107,0.0174755118787288,0.0196149165724124,0.0332472478283653,0.7506782732514132,15.311786651611328,-17.76443099975586,-32.88214111328125,0.025671231129350002,1015.791069608136
0.695344482421875,-0.000994673593156,0.0704929015047848,0.0252718039005994,-0.0238027721643447,0.0198981612920761,0.0167604535818099,0.0193354763502014,0.0335459959392141,0.7508574809299895,15.38760757446289,-17.58603858947754,-32.6656494140625,0.025883335094992743,1015.7910435807614
0.705413818359375,0.0458425905033946,0.079362436658889,-0.0146633161246776,-0.0245135109871625,-0.006476629525423,0.0168854314833879,0.0190802007951792,0.0336373786245908,0.7510305378385141,15.655343055725098,-17.57134437561035,-32.71343994140625,0.02609546992109899,1015.7910175495998
0.715482421875,0.0654298459615558,0.0997604970432817,-0.0561614476829767,-0.0229965765029191,-0.03073669411242,0.0151794105768203,0.0188561086396619,0.0334555565058693,0.7512090920487234,15.498825073242188,-17.682632446289062,-32.945556640625,0.02630758931697348,1015.7909915203318
0.72555078125,0.0779982356335967,0.1066012480498291,-0.1009095209479331,-0.0073178661987185,-0.0386195704340934,0.0128929354250431,0.0186991511073305,0.033104365750293,0.7513637780701958,15.372976303100586,-17.611465454101562,-32.54901123046875,0.02651970356943739,1015.7909654916948
0.73561962890625,0.0638917862066999,0.0943981114936061,-0.0934521906793117,0.0179438143968582,-0.0395056009292602,0.0120255444198846,0.0187365226091913,0.0326962440981078,0.7514945472865758,15.50096321105957,-17.646883010864258,-32.771392822265625,0.026731828108722468,1015.7909394617956
0.7456875,0.0569123025828972,0.1080102015323005,-0.1038596029251813,0.0404275506734848,-0.0382467284798622,0.0143510159105062,0.0190412475648201,0.0323092277326394,0.7516319863494365,15.469830513000488,-17.630786895751953,-32.9422607421875,0.02694393207436521,1015.7909134344209
0.755756591796875,0.0321748247547075,0.1349824709415435,-0.0378384400069713,0.0489027947187423,-0.0349382832646369,0.0220792442560195,0.0195029220964537,0.0319326029883583,0.7518011109943616,15.322958946228027,-17.909170150756836,-33.17864990234375,0.02715606175706087,1015.7908874038905
0.76582568359375,0.0412253424989059,0.139616980608087,0.0112549689859151,0.0385130904614925,-0.0219034105539321,0.0259431432932615,0.019945077910817,0.0316201159470022,0.752017353582729,15.397992134094238,-17.876935958862305,-32.853271484375,0.02736819143975653,1015.7908613733601
0.7758935546875,0.0367236106328666,0.1136341058286838,0.0659936903893947,0.0251259133219718,0.000311613548547,0.029757322743535,0.0202558292259464,0.0315147148774408,0.7522913835867879,15.49510383605957,-17.830352783203125,-33.15350341796875,0.02758029540539927,1015.7908353459854
0.785962646484375,0.0384950407521799,0.0838870379438623,0.11186287663877,0.0068716024979949,0.0225466899573802,0.0364750511944294,0.0204115916205605,0.0316394414594861,0.7526250902015044,15.57387351989746,-17.927631378173828,-32.61370849609375,0.02779242508809493,1015.790809315455
0.796030517578125,0.0461261201525107,0.1039093238184228,0.1053366897404193,-0.0085438396781682,0.0364182963967323,0.0486646071076393,0.0203933575756931,0.0319448691366064,0.7530604634700642,15.307072639465332,-17.76486587524414,-33.00909423828125,0.028004529053737674,1015.7907832880804
0.806099853515625,0.0356821387559175,0.1189563237647525,0.0365682739406824,-0.0242496542632579,0.038684893399477,0.044050496071577,0.0202187044339522,0.0323233753337053,0.7535427219533912,15.409517288208008,-17.903228759765625,-33.266937255859375,0.028216663879843916,1015.7907572569188
0.81616845703125,0.0067010685412213,0.1057120806577615,-0.0290326177388429,-0.0313461795449256,0.0294772833585739,0.0380282886326313,0.0199362252038078,0.032684705928593,0.7539728685178693,15.105157852172852,-17.72051239013672,-33.565673828125,0.02842878327571841,1015.7907312276508
0.826236572265625,-0.0253293427741155,0.0818705287559889,-0.0540250201761722,-0.0335486121475696,0.0134221483021974,0.0288276001811027,0.0195954528093726,0.0328990814358884,0.7543173122940223,15.009932518005373,-17.800111770629883,-32.65594482421875,0.028640892384771736,1015.7907051996449
0.836305908203125,-0.0231574786277487,0.0833041965546086,-0.0916787512660026,-0.0251503325998783,-0.0070548965595662,0.0244174040853977,0.0192685622676164,0.0329215587852984,0.7545948868451618,14.943532943725586,-17.71440315246582,-32.699554443359375,0.02885302721087798,1015.7906791684834
0.84637451171875,-0.0110864074859768,0.0842243253405205,-0.1136152732640504,-0.0067237159237265,-0.0036024446599185,0.0179439596831798,0.019072435539672,0.032850146744574,0.7548059392659702,15.098133087158203,-17.774248123168945,-32.75909423828125,0.029065146606752475,1015.7906531392152
0.8564423828125,0.0022088716885074,0.0656189387928694,-0.1206482406407594,0.0107583384960889,0.0054134209640324,0.0074801333248615,0.0190673034696133,0.0328524318723589,0.7549280100045437,15.077293395996094,-17.8917293548584,-32.8671875,0.029277250572395216,1015.7906271118406
0.86651171875,-0.0293748187726363,0.0606002886469475,-0.1090314526051282,0.0206990037113428,0.0089906509965658,0.0040576509200036,0.0192269594305953,0.0329299159370236,0.7549915290567847,15.219852447509766,-17.6025333404541,-32.860382080078125,0.02948938539850146,1015.790601080679
0.876579833984375,-0.0072227908603847,0.0271055404000915,-0.0820674578338861,0.0275808777660131,0.0359591506421566,0.0098790545016527,0.0194735994806455,0.0331585473170642,0.7550539501903853,15.118802070617676,-17.982080459594727,-33.47259521484375,0.029701494507554785,1015.7905750526733
0.886648681640625,0.0064370838427916,0.0383239950342103,-0.0061100073128938,0.0199969056993722,0.0610783509910106,0.0163319502025842,0.0197020824114258,0.0336582424296573,0.7551727926193766,15.274598121643066,-17.81529426574707,-33.341766357421875,0.02991361904683986,1015.790549022774
0.8967177734375,-0.0262061621412634,0.0526089428331702,0.0570972672283649,0.0084467763081192,0.0657559335231781,0.0188137497752904,0.0198312507039619,0.0343019674219634,0.7553392579234436,15.139043807983398,-17.68797492980957,-33.481719970703125,0.030125748729535523,1015.7905229922436
0.90678564453125,-0.0173808679876849,0.0611651011891663,0.0274123230606317,0.0037887273356318,0.0571685694158077,0.0245686154812574,0.0198797718825044,0.0348826345527858,0.7555497832729001,15.271441459655762,-17.71425437927246,-33.36859130859375,0.030337852695178264,1015.790496964869
0.916854736328125,-0.018209208570607,0.0438327850509434,0.005518471160531,0.0095616616308689,0.0552292503416538,0.0233462247997522,0.0199281729944591,0.0354253434517196,0.7557919689829009,15.2653169631958,-17.736928939819336,-33.236846923828125,0.030549982377873923,1015.7904709343386
0.926922607421875,-0.0289260886244475,0.0442910502124577,0.025815409258008,0.0118118273094296,0.0527534000575542,0.0222610607743263,0.0200206967940842,0.0359540911179002,0.7560201439513999,15.078460693359377,-17.82288360595703,-33.780914306640625,0.030762086343516667,1015.7904449069639
0.93699169921875,-0.0543946572061628,0.0658388286212459,0.035207506981492,0.009558793157339,0.0436176918447017,0.0164561681449413,0.0201275267962723,0.036415403742973,0.7562287949549255,15.312511444091797,-17.794675827026367,-33.0048828125,0.03097421602621233,1015.7904188764335
0.947060546875,-0.0796898419823497,0.0633214755054563,0.0439168831378221,0.0012773666530847,0.0206507667899131,0.0147538017481565,0.0201760136405625,0.0367215390687287,0.7563910117867766,15.243199348449709,-17.9824161529541,-32.905303955078125,0.031186340565497402,1015.7903928465342
0.957128662109375,-0.0588026463741436,0.0381731518540531,0.0283002118110656,0.0015737768262624,0.0103488601744174,0.0103758312761783,0.0201903372010825,0.0368653319078435,0.7565177337683777,15.35623264312744,-18.082983016967773,-32.861419677734375,0.03139844967455073,1015.7903668185285
0.96719775390625,-0.0530131031872704,0.0258275198209099,-0.0131979197472333,0.0129898311570286,0.0051251593977212,-0.0018653688021004,0.0202589623467859,0.0369617463091485,0.7565642477298775,15.277310371398926,-18.043785095214844,-33.135498046875,0.031610579357246385,1015.790340787998
0.977265625,-0.0514874645225703,0.044971817284543,-0.057059857827425,0.0204714499413967,-0.0061296261847019,-0.0104543296620249,0.0204106303213049,0.0369283311451335,0.7565035273212961,15.49921417236328,-17.883047103881836,-32.8594970703125,0.031822683322889136,1015.7903147606235
0.98733447265625,-0.046045821457915,0.0894066781481728,-0.0761123488217592,0.0204304940998554,0.0113381370902061,-0.0163402762264013,0.0206082697387202,0.0369534414685263,0.756348301307781,15.535091400146484,-17.9530086517334,-32.620361328125,0.032034807862174206,1015.7902887307242
0.99740380859375,-0.0560510826436802,0.1099238896665163,-0.0605073679327964,0.0248534716665744,0.0217606853693723,-0.0139109408482909,0.0208083969274283,0.0371347776017777,0.7561888843343583,15.364118576049805,-17.74614143371582,-33.171783447265625,0.032246942688280454,1015.7902626995626
1.0074716796875,-0.0366270914558321,0.1223058899209834,-0.0702343966990709,0.0210004728287458,0.0378827489912509,-0.0203693956136703,0.0210181989239923,0.0374280733512874,0.7560087137036181,15.508758544921877,-17.77290153503418,-33.20501708984375,0.0324590466539232,1015.790236672188
1.01754052734375,-0.0363136415924876,0.11093229952408,-0.0669873776018619,0.0123907402157783,0.0509404949843883,-0.0290819257497787,0.0211707056739425,0.0378696649229648,0.7557448873978874,15.497843742370604,-17.676979064941406,-33.19171142578125,0.03267117119320827,1015.7902106422887
1.027608642578125,-0.084185326770693,0.084147552043572,0.0052057519495487,0.0012777522206306,0.0721471682190895,-0.0276963990181684,0.0212165315156361,0.0384641024630323,0.7554504614378038,15.450374603271484,-17.890451431274414,-33.1622314453125,0.0328832803022616,1015.7901846142829
1.037677734375,-0.077937335759215,0.0757720292177982,0.0505126281410455,-0.0085682207718491,0.1087062433362007,-0.0195846762508153,0.0211559097322448,0.039368962732986,0.7552113100545256,15.457157135009766,-17.81839370727539,-32.961578369140625,0.03309540998495726,1015.7901585837525
1.04774658203125,-0.0360630278322845,0.0939248314260505,0.1013736313283443,-0.0092484792694449,0.1375274956226349,-0.015592711046338,0.0210538308214205,0.0406085720264453,0.7550310946273379,15.785672187805176,-17.90478515625,-32.987396240234375,0.03330753452424233,1015.7901325538533
1.057814697265625,-0.0240736801572144,0.1107523033146746,0.0785299313575029,-0.0055826371535658,0.1402990520000457,-0.0116589553654193,0.0209539362977088,0.0420119285670928,0.7549128529516311,15.476916313171388,-18.087316513061523,-32.768524169921875,0.03351964363329566,1015.7901065258475
1.067883544921875,-0.0099339495152235,0.1021521779527887,0.0058761985570192,0.0087452270090579,0.1144550219178199,-0.0124976793304085,0.0209314553353218,0.0432875608143944,0.7547983461126733,15.559680938720703,-17.859500885009766,-32.4578857421875,0.03373176817258074,1015.7900804959482
1.07795166015625,0.0135781877690926,0.0720130968093872,-0.0698375063359737,0.0228432025760412,0.084618829190731,-0.0108856679871678,0.0210625006601533,0.0442634563877105,0.7546651506890533,15.65700626373291,-17.661880493164062,-32.84564208984375,0.03394387728163406,1015.7900544679425
1.0880205078125,0.0203211226906627,0.054059616565518,-0.0966845967292785,0.0310358852148056,0.0588386356830596,-0.0072267511859536,0.0213222673820758,0.0449655195902345,0.7545678773013719,15.744810104370115,-17.959524154663086,-33.12445068359375,0.034156001820919143,1015.7900284380431
1.098089599609375,0.0227480941092595,0.0523814359539188,-0.071627312362194,0.0240099336951971,0.0334509871900081,-0.0036136405542492,0.0215631838517537,0.045374909673718,0.7545128108880812,15.527311325073242,-17.814298629760742,-33.34600830078125,0.0343681315036148,1015.7900024075128
1.10815771484375,0.0222105166338384,0.0509122949831187,-0.0515793805897235,0.0044453162699937,0.030222350731492,-0.0062494305893778,0.0216880592726886,0.0456590895736125,0.7544655053842022,15.625186920166016,-17.777420043945312,-33.202484130859375,0.03458024061266812,1015.7899763795069
1.1182265625,0.0337539106396958,0.0329607509680092,-0.0210275904595851,-0.0173585154116153,0.0447866469621658,0.007155058439821,0.0215969935649926,0.0459776748458318,0.7544550573914107,15.582460403442385,-17.68307876586914,-33.159393310546875,0.034792365151953206,1015.7899503496077
1.12829443359375,0.0920379764998331,0.0300450461843982,0.0004985971719026,-0.0142377652227878,0.050507478415966,0.0030109887011349,0.0214064419292372,0.0464434613021771,0.7545459374136972,15.700113296508787,-17.73616600036621,-32.860107421875,0.03500446911759594,1015.7899243222331
1.13836376953125,0.0005158771002665,0.0124158477251417,-0.0601373655766248,-0.0103460885584354,0.0499175861477851,-0.0134137906134128,0.0212566785685038,0.0469112280790016,0.7545069478731609,15.732190132141112,-17.719772338867188,-33.10211181640625,0.03521660394370219,1015.7898982910715
1.1484326171875,-0.0824203263921663,-0.0613759857271797,-0.0674357058912515,-0.004985143430531,0.0723605677485466,-0.0128900194540619,0.0211630160714143,0.0475260786486645,0.7543650692823413,15.806095123291016,-17.774259567260742,-32.85882568359375,0.03542872848298726,1015.7898722611723
1.15850048828125,0.0033352453699335,-0.0512778038272634,0.0004091653227806,-0.0038370555266737,0.0928400084376335,0.0074717113748192,0.0211093553147296,0.0483803393426958,0.7543439955404998,15.934651374816896,-17.68643569946289,-32.615142822265625,0.035640832448630005,1015.7898462337976
1.16856982421875,0.0791471864730119,0.0492030799124389,0.037546179062128,-1.91461294889e-05,0.0820483565330505,0.0044523882679641,0.0210863849582712,0.0492721310438446,0.7544093320663672,15.845694541931152,-17.67595863342285,-32.70513916015625,0.035852967274736254,1015.7898202026361
1.1786376953125,-0.0485586810616776,0.0657462001680396,0.0123497784852981,-0.0081812031567096,0.0688374787569046,0.0005282200872898,0.0210337995734824,0.0500274762524117,0.7544353174243835,15.856639862060549,-17.88810920715332,-32.323455810546875,0.03606507124037899,1015.7897941752614
1.188706787109375,-0.0039950609855353,-0.010503566096723,-0.0059013329982757,-0.0130956834182143,0.0592638477683067,0.0005666483193635,0.020918374610805,0.0506720806379583,0.7544385261170705,15.780766487121582,-17.925674438476562,-32.441314697265625,0.036277200923074654,1015.789768144731
1.198775634765625,0.0300763181054964,-0.0008539499482139,-0.0830377641707658,-0.0223118215799331,0.0454364530742168,0.0003272304311394,0.0207273940156061,0.0511961610047919,0.7544473555579787,15.879892349243164,-17.854354858398438,-32.594970703125,0.03648932546235973,1015.7897421148317
1.20884375,0.0254081070987507,0.0537210870598442,-0.1303448742687702,-0.0289855524897575,0.0448051057755947,-0.0055234497413039,0.0204635830642296,0.0516420674673184,0.7544316190617839,15.869297981262209,-17.687313079833984,-32.79815673828125,0.036701434571413054,1015.7897160868259
1.21891259765625,-0.0018184475988149,0.085234397432208,-0.1109270570933818,-0.0248259603977203,0.049872301518917,-0.0055655278265476,0.0201827288467718,0.0521147669690306,0.7543890315400444,15.878825187683104,-17.42691993713379,-32.467071533203125,0.03691355911069813,1015.7896900569267
1.228980712890625,0.0053092853892594,0.0784417233510874,-0.0871837779343128,-0.0099784228950738,0.0440722927451133,0.0038290582597255,0.0200240946022069,0.0525634063527205,0.7543745335826936,15.868688583374023,-17.694175720214844,-32.809051513671875,0.037125668219751454,1015.7896640289209
1.239049560546875,0.0483186982933431,0.0866838655881583,-0.0797387226253747,0.0084530487656593,0.0260839723050594,0.0122987097129225,0.0200253260910012,0.0529237237359192,0.7544735715124726,16.047096252441406,-17.679527282714844,-32.774810791015625,0.03733779275903654,1015.7896379990217
1.24911865234375,0.0823531794400885,0.1204024491861462,-0.0662526335865259,0.0223468784242868,0.0117693915963172,0.0046732611954212,0.0201830561030498,0.0531157564335747,0.7545553271875838,15.790053367614746,-17.59033203125,-33.102325439453125,0.03754992244173219,1015.7896119684913
1.2591865234375,0.0041929216451942,0.0325162586035206,-0.0427297191798686,0.0326772816479206,0.0167963746935129,0.0096951844170689,0.020452780003743,0.0532433625260448,0.7545973205742744,15.792729377746582,-17.61476707458496,-33.020904541015625,0.037762026407374936,1015.7895859411166
1.269255859375,0.0727152171967551,0.0111927722035907,0.0380611428469419,0.0299155749380588,0.0204734094440937,0.0251222718507051,0.0207809001446546,0.0534283263532894,0.7547513305308551,15.813566207885742,-17.49724769592285,-32.939239501953125,0.037974161233481185,1015.7895599099551
1.279324462890625,0.0825862210109829,0.0749312127457931,0.0983557448118925,0.0238709971308708,0.019867805764079,0.0305812209844589,0.0210854115249168,0.0536125975832783,0.7550093660011874,16.160240173339844,-17.71152687072754,-32.330291748046875,0.038186280629355675,1015.7895338806869
1.289392578125,0.0438635820480063,0.0797865072898566,0.0933908158808946,0.0240395851433277,0.0303755681961774,0.030740451067686,0.0213211684034652,0.0538539954522991,0.7553042884368669,16.039297103881836,-17.729984283447266,-32.200164794921875,0.038398389738409,1015.7895078526811
1.299461669921875,0.0379027374148368,0.041405247376766,0.0773158793926239,0.0303608626127243,0.0291150938719511,0.02608497813344,0.0215730774758355,0.054157459856676,0.7555760776629581,16.151378631591797,-17.728775024414062,-32.70465087890625,0.03861051942110466,1015.7894818221507
1.30952978515625,0.0233528185367584,0.0526713588112033,0.0401034623295068,0.0424177311360836,0.0381761491298675,0.0227920748293399,0.0219437903053418,0.0544824678628011,0.7557996519965781,16.103145599365234,-17.77729034423828,-32.596527099609375,0.038822628530157985,1015.7894557941449
1.319598388671875,0.0339145080288872,0.0764210494447499,0.011945289337635,0.0582550168037414,0.0388699024915695,0.0246184710413217,0.022443098761045,0.0548868856654974,0.756006676954802,16.178001403808594,-17.56377410888672,-33.1617431640625,0.03903474792603248,1015.7894297648769
1.329666748046875,0.0509098838303238,0.0879859246300533,0.0171563019841909,0.0692971050739288,0.0280390847474336,0.0255673956125974,0.02307323527398,0.0552304328544731,0.7562252219371174,16.039897918701172,-17.7290096282959,-32.8138427734375,0.03924686217849639,1015.7894037362399
1.339735595703125,0.0581921497929841,0.0636419944304041,0.0381260247766971,0.0620703548192977,0.0223295334726572,0.0241428706794977,0.0237343373343457,0.0554656919864971,0.7564573748729063,16.217670440673828,-17.999465942382812,-32.8570556640625,0.03945898671778146,1015.7893777063406
1.3498046875,0.0511015339449048,0.0562749362611211,0.0855389333367347,0.0585529655218124,0.0431380569934845,0.0232115425169467,0.0243413152152953,0.0557934198977651,0.7566623877906249,16.268798828125,-17.872222900390625,-32.73101806640625,0.03967111640047713,1015.7893516758103
1.35987255859375,0.0535207604484632,0.0575880281536839,0.1458878958374261,0.04678525775671,0.0520170331001281,0.0245604366064071,0.0248721012162684,0.0562960801694846,0.7568811543155122,16.026226043701172,-17.967689514160156,-33.059967041015625,0.03988322036611987,1015.7893256484356
1.369941650390625,0.0872942525714635,-0.0113094939184375,0.1493880129128694,0.0324770398437976,0.0467129088938236,0.0260490626096725,0.0252776671496182,0.0568210031692951,0.7571150832867061,16.035400390625,-17.8931884765625,-32.937896728515625,0.04009535004881552,1015.7892996179052
1.380009521484375,0.121416777327843,-0.002377487987373,0.1115893203943967,0.0103019634261727,0.0174879133701324,0.0267436169087886,0.0254866422416451,0.0571571302977387,0.7573671561859434,16.149856567382812,-17.80462074279785,-32.643157958984375,0.040307454014458274,1015.7892735905306
1.39007861328125,0.1102953350611031,0.0264932537206448,0.0875157863676548,-0.0113557511940598,-0.0205715913325548,0.0229855179786682,0.0254704278483447,0.0571314596120891,0.7576097442968946,16.283283233642578,-17.82256507873535,-32.43292236328125,0.04051958369715393,1015.7892475600001
1.400147705078125,0.0933206732541322,0.0416404626384377,0.0352057534158229,-0.0188056752085685,-0.037756972014904,0.0243426635861396,0.0253212386442796,0.0568168879900525,0.757859959932744,16.020479202270508,-17.92285919189453,-32.784210205078125,0.04073171337984959,1015.7892215294697
1.4102158203125,0.1084889066936448,0.058112417353969,0.0161439100712537,-0.0249306261539459,-0.0251854285597801,0.0214235763996839,0.0250782267845069,0.0564898875759055,0.7580970751845542,16.03118896484375,-17.97624969482422,-32.80908203125,0.040943822488902916,1015.789195501464
1.420284423828125,0.0806292782569304,0.0675102689648047,0.0114917003512382,-0.0161919966340065,-0.007405100390315,0.0194448474794626,0.024861546523328,0.0563394616000624,0.7583135781048617,16.01134490966797,-18.03980255126953,-32.550323486328125,0.041155941884777406,1015.7891694721958
1.430353759765625,0.0217716502925381,0.0745372632584534,-0.0586930119872093,0.0066663632169365,0.0116322431713342,0.0096341576427221,0.0247998816819888,0.0563750693058033,0.7584648524364744,16.2408390045166,-17.923131942749023,-32.837646484375,0.041368076710883654,1015.7891434410343
1.440421875,-0.0166712218809872,0.0445469612022861,-0.0902361512422561,0.0239907577633857,0.0176773536950349,0.0068911011330783,0.024946113190323,0.0565267213644601,0.7585251240227373,16.215137481689453,-17.95977783203125,-32.551422119140625,0.04158018581993698,1015.7891174130285
1.450490478515625,-0.0068763155102729,0.0450980557464063,-0.0784720636904239,0.0279510263353586,0.0284099746495485,0.0043332506902515,0.0252160179561679,0.0567800098597999,0.7585615230334666,16.012338638305664,-17.938594818115234,-32.516082763671875,0.04179230521581147,1015.7890913837604
1.460558837890625,0.0397945059781894,0.0501280127376317,-0.0329337168306112,0.0260535255074501,0.0348891839385032,0.0058030490763485,0.0255001403993873,0.057103125375634,0.75859475801955,15.940473556518556,-17.892963409423828,-32.960418701171875,0.04200441946827538,1015.7890653551234
1.470627685546875,0.0307040215497836,0.053395234372653,0.0048047699332237,0.0174444708973169,0.0369273871183395,0.00187953049317,0.0257265667069095,0.0574818571866962,0.758606010135707,16.059045791625977,-18.15094375610352,-32.868560791015625,0.04221654400756046,1015.7890393252242
1.480696533203125,0.0091181396203115,0.0427022649173624,0.0674000500559806,0.0045582335442304,0.040422786027193,0.0034710359759628,0.0258264071930603,0.057883414963468,0.7586295189603185,16.21965789794922,-18.25432014465332,-32.888946533203125,0.042314513425490925,1015.789024826843
1.4907646484375,-0.0130935825899243,0.0329553989394567,0.1143219602286815,-0.016031228005886,0.0354193300008773,0.0058018681593239,0.0257632685658146,0.0582875279590299,0.7586789762683714,16.152008056640625,-18.060619354248047,-32.730133056640625,0.04236762351233597,1015.7890148603165
1.500833740234375,-0.019071487955749,0.0296341638285666,0.101650110182166,-0.026294782757759,0.0150754451751708,0.0033839843235909,0.025546594840866,0.0585616460743029,0.758735010251229,16.203205108642578,-18.035499572753903,-32.86309814453125,0.042420738750623764,1015.7890048928232
1.510901611328125,0.0029524931300431,0.015145199623797,0.0438303738981485,-0.0355010330677032,-0.0195169802755117,0.0005555753596127,0.0252286952271006,0.0585430934112011,0.7587726097420114,16.08793067932129,-18.270160675048828,-32.736236572265625,0.042473847549608125,1015.7889949265383
1.520970703125,-0.0001035699723288,0.0101349519800394,-0.0196487033218145,-0.0387588776648044,-0.0403748601675033,-0.0091535113751888,0.0248397427337808,0.0582432033554732,0.7587497530841197,16.08466148376465,-18.142457962036133,-33.21295166015625,0.04252696278789592,1015.788984959045
1.5310390625,-0.0065336030198261,0.0237174323317594,-0.040696167525649,-0.0331789068877697,-0.0457247048616409,-0.0128323230892419,0.0244698955305625,0.0577835503528184,0.7586600742563897,16.242000579833984,-18.17247009277344,-33.158905029296875,0.04258007416260165,1015.7889749922767
1.541107177734375,0.0209999718002974,0.0081141684758476,-0.0342564898669719,-0.0131572624668478,-0.0379261709749698,-0.0166307892650365,0.0242062417913519,0.0573550721500192,0.7585236601870823,16.23199462890625,-18.012611389160156,-32.486663818359375,0.04263318424944669,1015.7889650257501
1.55117578125,0.0356277782201766,-0.008132672246918,-0.0046060324907302,0.0010531283915042,-0.0187528319656848,-0.0177647266536951,0.0241211575805639,0.057083512388345,0.7583652992650515,16.216625213623047,-17.716197967529297,-32.31500244140625,0.04268629691201311,1015.7889550587402
1.561244140625,0.0161441292669624,0.0096574889277108,0.0355459451556205,0.0163798872381448,-0.0050812275148928,-0.0180275794118642,0.0241957693193477,0.0569644531824208,0.7581787239516031,16.161176681518555,-17.714580535888672,-32.792755126953125,0.04273940828671884,1015.788945091972
1.57131298828125,-0.0047311932403594,0.0196400998902507,0.0507704022943973,0.0199793856590986,0.0025927601382136,-0.0157170593738555,0.0243745303851803,0.0569571525049412,0.7579953341348661,16.07415771484375,-18.10260772705078,-32.801605224609375,0.04279252223714595,1015.7889351247203
1.581382080078125,0.0010861512688919,0.0263099147766828,0.0363373877942562,0.0215977877378463,0.0017155148088932,-0.0112426821142435,0.0245817018098918,0.0569899088339963,0.7578353122729526,15.992125511169434,-18.059062957763672,-32.4866943359375,0.04284563747543374,1015.788925157227
1.591449951171875,-0.0136813193500041,0.0287299449978396,-0.0017114800930023,0.0211806762963533,-0.0094525385648012,-0.0089772064238786,0.0247980238297173,0.056970155367606,0.7577163208109879,16.162656784057617,-18.02050399780273,-32.75115966796875,0.0428987462744181,1015.7889151909421
1.60151904296875,-0.0069818582439795,-0.0008858063912019,-0.0425076008617877,0.016759829595685,-0.0273548401892185,-0.0087353913113474,0.0249824609247355,0.0567904591974283,0.7576081497594283,16.171424865722656,-17.661190032958984,-33.15545654296875,0.04295186151270589,1015.7889052234489
1.6115869140625,0.0034490444753319,0.0116065954351797,-0.0757873546510934,0.0152803258970379,-0.0187394246459007,-0.0061204144731163,0.0251272275434617,0.0565658127865994,0.757528681457574,16.00430679321289,-17.90841293334961,-32.97161865234375,0.043004970311690253,1015.788895257164
1.621656005859375,0.0087394425010308,0.0134567898791283,-0.0767985775202512,0.020589604973793,-0.0080697368830442,-0.004485766403377,0.0253006901621139,0.0564230417402868,0.757468526992143,16.127601623535156,-17.909196853637695,-32.8199462890625,0.043058085549978045,1015.7888852896707
1.631724853515625,0.0312958134304732,-0.0103148933905176,-0.0674240154534578,0.0194190572947263,0.0080306688323616,-0.0059225824661552,0.0255012294522038,0.0564273053253535,0.7574085641358594,15.96046257019043,-17.86502456665039,-32.745269775390625,0.04311119950040515,1015.788875322419
1.641793212890625,0.0249062950564548,-0.0129865968178026,-0.041507483908534,0.0134626310318708,0.0164294801652431,-0.0086893402040004,0.0256560866885574,0.0565758166275538,0.7573277385605928,16.09122657775879,-17.76729965209961,-32.7879638671875,0.043164310875110884,1015.7888653556507
1.65186181640625,0.0221640106109902,0.001812255320046,-0.0308364522904157,0.0013489192351698,0.0128564964979887,-0.0070806974545121,0.0257155869285323,0.0567337773602339,0.7572478633161727,16.25212287902832,-17.89445686340332,-32.140899658203125,0.0432174235376773,1015.7888553886409
1.661929931640625,0.0365371481500566,0.000227360748779,-0.0598784223794937,-0.0147485584020614,0.0024419394321739,-0.007682038936764,0.02563023932101,0.0567940020727466,0.75717594411053,16.20651626586914,-18.14069366455078,-32.398345947265625,0.04327053362452235,1015.7888454221143
1.6719990234375,0.0490156675815582,0.0007954429603181,-0.1059083521485328,-0.0200120322406291,-0.0075539732351899,-0.0091767739504575,0.02544396557739,0.0567724532289003,0.7570990199724076,16.215770721435547,-17.895509719848633,-32.661346435546875,0.04332364886281014,1015.788835454621
1.68206787109375,0.0464895831700414,0.004434383984562,-0.1400625506848097,-0.0203196257352828,-0.016005516052246,-0.0081818168982863,0.0252351333316407,0.0566633242477988,0.7570314663232818,16.194664001464844,-18.157989501953125,-32.46478271484375,0.04337676281323725,1015.7888254873693
1.6921357421875,0.0542845844278112,-0.0081885123536922,-0.1668634638488292,-0.0030738245695829,-0.0227919593453407,-0.0028728428296744,0.0251075829745108,0.0564782695449931,0.7569982008052398,16.334854125976562,-17.93905258178711,-32.3026123046875,0.04342987161222161,1015.7888155210844
1.702205078125,0.0423813806662336,-0.0140894617594778,-0.1930862848639488,0.0204248428344726,-0.0218039266765117,-0.0054435920901596,0.0251772629028279,0.0562421189357341,0.7569440505519909,16.422565460205078,-18.131685256958008,-32.161895751953125,0.043482988138370086,1015.7888055533494
1.71227294921875,0.0217087776567786,-0.0119198078365065,-0.1717079812705516,0.0466979071497917,-0.0016573793254792,-0.0076430412009358,0.0255206870001582,0.0561226195677523,0.7568584226838133,16.229951858520508,-18.12115478515625,-31.957305908203125,0.04353609693735445,1015.7887955870646
1.722342041015625,-0.0037323549287393,-0.0091380316308699,-0.0718956079095602,0.0597774870693683,0.0030721281655132,-0.0048035788349807,0.0260639276372455,0.0561389689390132,0.7567816642064188,16.11292266845703,-17.980113983154297,-32.159332275390625,0.04358921217564224,1015.7887856195713
1.732410888671875,1.85951026156e-05,-0.0049196832834742,0.0071077861785888,0.0604897961020469,-0.0032715206034481,-0.0020396937616169,0.0266621353623531,0.0561388399963259,0.7567111300033514,16.151081085205078,-18.026296615600582,-32.328125,0.043642326126069345,1015.7887756523196
1.74247900390625,0.023047003990598,0.0099962741617113,0.0704389793604612,0.0441334582865238,-0.0088604306802153,-0.0025140026118606,0.0271915082603115,0.0560953824786226,0.7566542586321658,16.14250946044922,-17.852853775024414,-32.524139404296875,0.04369543621291439,1015.7887656857931
1.7525478515625,0.0627652298621833,0.0130430397127754,0.1118757361203432,0.0213762447237968,-0.0170409493148326,-0.0032439378555864,0.0275023104431304,0.0559669892645514,0.7566096412939876,16.23775863647461,-18.143644332885746,-32.32635498046875,0.0437485501633415,1015.7887557185414
1.762615966796875,0.0550700722496956,-0.0117850024756975,0.142490070092678,0.0004754913970828,-0.0256709232926368,-0.0035749687813222,0.027595101281478,0.0557595970930083,0.7565843539999417,16.07925033569336,-18.116230010986328,-32.487945556640625,0.043801660250186544,1015.7887457520148
1.772684814453125,0.0635053807049989,-0.0200377026394009,0.13700316311419,-0.015295305289328,-0.0417508259415626,-0.0024333838373422,0.0275164705342315,0.055432743110331,0.756538120195938,16.22845458984375,-18.24993133544922,-32.61224365234375,0.04385477420061365,1015.7887357847633
1.78275390625,0.0681632895134389,-0.0145111760365776,0.1126075575262308,-0.0220299065113067,-0.0468284077942371,-0.0016679915133863,0.0273170044903502,0.0549871378814326,0.7565165199023525,16.109493255615234,-18.20488166809082,-32.511627197265625,0.04390788943890144,1015.78872581727
1.79282177734375,0.0453390248954296,-0.009806962134689,0.0876075563043355,-0.0170996002852916,-0.0384301282465457,-0.0060645067133009,0.0271099788457872,0.0545516015434011,0.75649187900054,16.15871810913086,-18.19830322265625,-32.5523681640625,0.0439609982378858,1015.7887158509851
1.80289111328125,0.0140211457636207,0.0107792229666374,0.0679454089790582,-0.0121245495975017,-0.0354396626353263,-0.0033946877811104,0.0269355623061162,0.0541889130911121,0.7564458867560194,16.174419403076172,-18.10462760925293,-32.675384521484375,0.04401411476403428,1015.7887058832501
1.8129599609375,0.022071765750274,0.0114375955438241,0.0543693035691976,-0.0054156621918082,-0.0272771641612052,-0.0071881129406392,0.0268500785587927,0.0538708177070538,0.7564011540739145,16.142919540405273,-18.219995498657227,-32.58416748046875,0.044067228714461386,1015.7886959159985
1.82302783203125,0.0326756504163146,-0.0023504173173569,0.065866264617443,0.00045314617455,-0.0200104620307683,-0.0041398587636649,0.0268326366617401,0.053643578843842,0.7563564977567435,16.143985748291016,-18.158864974975582,-32.62518310546875,0.04412033751344575,1015.7886859497136
1.83309716796875,0.0661663435425609,-0.0181325996704399,0.0970955156177282,-0.0024860668927431,-0.02249501273036,-0.0003046593628823,0.0268254714908679,0.0534477206489429,0.7563292458616339,16.09579086303711,-18.082935333251957,-32.637969970703125,0.044173454039594225,1015.7886759819786
1.8431650390625,0.0835080120310187,-0.0244266400470398,0.1160451307594776,-0.0101581010967493,-0.0050832666456699,0.001357952132821,0.0267634694475204,0.0532964364813928,0.7563516684300771,16.092411041259766,-18.200252532958984,-32.48931884765625,0.04422656283857858,1015.7886660156937
1.85323388671875,0.0742502812769264,-0.0420823977196589,0.1195037467807531,-0.0146860340610146,0.0061841225251555,-0.001612770371139,0.0266415073507094,0.0533248120731568,0.756356505345499,16.23554039001465,-18.139568328857425,-32.753753662109375,0.044279676789005684,1015.788656048442
1.863302978515625,0.0500848311830312,-0.0675625654076226,0.1147124208509922,-0.0237303934991359,0.0074648363515734,0.0004389290697872,0.0264540761377929,0.0534237998633681,0.7563588851853607,16.271047592163086,-18.10416412353516,-32.75885009765625,0.044332792027293476,1015.7886460809488
1.87337109375,0.0582324452707543,-0.0726882926572114,0.1056441482543945,-0.0385419502854347,-0.0001860712654888,0.0024241656064987,0.0261449124389729,0.0534623576115343,0.7563899061301652,16.041908264160156,-18.21299743652344,-32.457763671875,0.04438590211413852,1015.7886361144222
1.88343994140625,0.0791682657936587,-0.0409629287030547,0.1062087963998317,-0.052130464464426,-0.0015573329292237,-0.0004121009260416,0.025687219224569,0.0534631003916727,0.7564425875945725,16.073463439941406,-18.21955299377441,-32.854705810546875,0.04443901606456563,1015.7886261471706
1.893508056640625,0.0771719408772885,-0.0097550310180522,0.0680535455286502,-0.0574992522597312,-0.0046233423054218,0.003025259822607,0.0251309570727543,0.0534369856588209,0.7564823504795709,16.119632720947266,-18.235740661621094,-32.696868896484375,0.044492126151410676,1015.788616180644
1.903576904296875,0.0723261813465505,-0.0316179032579995,0.0119534726440906,-0.0533969178795814,-0.0077232616022229,0.0046580443158745,0.024579857778215,0.0533809650079508,0.7565463471543885,16.033985137939453,-18.172176361083984,-32.6268310546875,0.04454524010183778,1015.7886062133924
1.91364599609375,0.0714286114523187,-0.051928888147138,-0.0155693250536918,-0.0429136790335178,-0.0160852260887622,0.0050740637816488,0.0241107479986557,0.0532886200794709,0.7566098727191112,15.84408950805664,-18.25880241394043,-32.371124267578125,0.04459835534012557,1015.788596245899
1.9237138671875,0.0790305743560195,-0.0478939335426315,-0.0343780704200267,-0.0380749814212322,-0.0224922578781843,0.0046503548510372,0.0237133695184387,0.0530924294391505,0.7566804236997016,16.110492706298828,-18.44985008239746,-32.50225830078125,0.044651464139109934,1015.7885862796142
1.933782958984375,0.0819599058061838,-0.0501085591184906,-0.0361263753920793,-0.0326352678239345,-0.0259845554828643,0.005162067245692,0.0233959000687771,0.0528539605824992,0.7567538298267602,15.973627090454102,-18.438268661499023,-32.399688720703125,0.044704579377397725,1015.7885763121209
1.94385107421875,0.0657385831171646,-0.0549923125720582,-0.0054372226178646,-0.0339479409158229,-0.0106482096016407,0.001714605372399,0.0230809176544618,0.0526763403190261,0.7567910603164736,15.785658836364746,-18.24365997314453,-32.965576171875,0.04475768946424277,1015.7885663455943
1.953919921875,0.0300402238788083,-0.0439485751840285,0.0598994651675224,-0.0428527817130088,0.0031851348467171,-0.0040044011548161,0.0227116070443715,0.0526539674969703,0.7567908493588137,15.632116317749023,-18.129697799682617,-32.89703369140625,0.04481080341466988,1015.7885563783427
1.963989013671875,0.010172580576688,-0.0450152728337794,0.0776215843409299,-0.045481588691473,0.0029347981326282,-0.005636918824166,0.0222822923948164,0.0527111085104005,0.7567727142396236,15.657427787780762,-17.90167999267578,-33.04718017578125,0.04486391865295767,1015.7885464108494
1.97405712890625,0.0161524952365085,-0.0772598931553773,0.0510679239362478,-0.0449278876185417,-0.0012632301077246,-0.0081721134483814,0.0218322780138813,0.0527417171887056,0.7567231723852862,15.644829750061035,-17.825410842895508,-33.1585693359375,0.04491702873980272,1015.7885364443229
1.984125732421875,0.0408988870235159,-0.0687681418051011,0.030981413719058,-0.0403427220880985,-0.0130903283134102,-0.0111250262707471,0.02141636157922,0.0526896566293062,0.7566436478357301,15.724085807800291,-18.05682373046875,-33.14801025390625,0.044970141402369136,1015.7885264773129
1.994194091796875,0.0546002262482419,-0.0501097829611972,0.0245861597239971,-0.0321724712848663,-0.0349421836435794,-0.0083868391811847,0.0210606029035224,0.0524666795424811,0.7565631961737312,15.750004768371582,-17.848432540893555,-32.846893310546875,0.04502325277707487,1015.7885165105446
2.004262939453125,0.0617051994152367,-0.0770426702081225,0.0154103350996971,-0.0290006455034017,-0.0419699996709823,-0.0087833842262625,0.0207708163883249,0.0520922171822773,0.7564794297672337,15.858223915100098,-17.738340377807617,-32.842041015625,0.045076366727501975,1015.788506543293
2.014331787109375,0.0635786651369184,-0.0892095846734941,0.0213484929770231,-0.0251194145530462,-0.0357441529631614,-0.0064128106459975,0.0205066419358991,0.0517019206967899,0.7564176953642828,15.651317596435549,-17.99401092529297,-32.750885009765625,0.04512948067792908,1015.7884965760414
2.02439990234375,0.0527162756651639,-0.0682217599687166,0.0291594589889049,-0.0224650409072637,-0.0189374759793281,0.0010203383862972,0.0202816465710999,0.0514356395178415,0.7564060084804575,15.646955490112305,-17.75310516357422,-32.829498291015625,0.04518259076477413,1015.7884866095148
2.034468994140625,0.0444772934995591,-0.0550845391664654,0.0491501076161861,-0.0231605116277933,-0.006826130207628,0.0055096475407481,0.0200648280211141,0.051344634954043,0.7564434475461939,15.727375984191896,-17.77248191833496,-33.156494140625,0.04523570600306192,1015.7884766420215
2.044536865234375,0.0266217572048306,-0.0486432540725916,0.0736141022652387,-0.026442589238286,-0.0072117559611797,0.0059956740587949,0.0198365992851313,0.0512882361653261,0.7565220126744464,15.87582015991211,-17.73874282836914,-32.94879150390625,0.04528881480204628,1015.7884666757366
2.05460595703125,0.0333088337533175,-0.0676018014394678,0.0632581279456615,-0.0314318425953388,-0.0210106596350669,0.0095023158937692,0.0195665239849021,0.0511551940972663,0.7566075827293648,15.850236892700195,-17.643808364868164,-32.792938232421875,0.04534193004033407,1015.7884567082433
2.064675048828125,0.0632896921277046,-0.0787492183976806,0.0300736512243747,-0.0315660648047924,-0.0292613990604877,0.0004387791268527,0.0192537187037271,0.0509049308404215,0.7566817679774855,15.972135543823242,-17.905540466308594,-33.038726806640625,0.045395045278621864,1015.78844674075
2.0747431640625,0.0780145291812717,-0.0634621443514712,0.0261070856809616,-0.0411479994654655,-0.0335694178938865,-0.0025368873029947,0.0188898916498147,0.0505927888326132,0.756690541823399,15.900835037231444,-17.686717987060547,-33.095977783203125,0.04544815536546691,1015.7884367742234
2.08481201171875,0.0787249059403315,-0.054152482480742,0.0160088855147361,-0.0457813665270805,-0.0289040897041559,-0.0030897594988346,0.018465849140994,0.0502906356861789,0.756667041134115,16.012527465820312,-17.754798889160156,-32.87030029296875,0.045501269315894016,1015.7884268069719
2.0948798828125,0.1031481301875785,-0.0656900495340116,-0.0110211602300405,-0.0489685274660587,-0.021763440221548,-0.0056390273384749,0.0180064322791081,0.0500424294732095,0.7566325297451589,16.025344848632812,-17.798309326171875,-32.856597900390625,0.04555437811487838,1015.788416840687
2.10494921875,0.1385855369348078,-0.085785437177401,-0.0533510664373636,-0.0505456514656543,-0.0106559284031391,-0.0074278721585869,0.0175135900224851,0.0498766318769718,0.7565901042993143,15.96945571899414,-17.607131958007812,-33.28765869140625,0.04560749464102685,1015.788406872952
2.115017822265625,0.1411305452425032,-0.1062749387049116,-0.0885603269845247,-0.0464902743697166,-0.0011551049537956,-0.0112328687682747,0.0170263421956672,0.0498302480939936,0.7565493478662926,16.006908416748047,-17.682544708251953,-33.34002685546875,0.04566060730359327,1015.788396905942
2.1250859375,0.1634680857894942,-0.1010922571036964,-0.1069148988425731,-0.0406941697001457,0.0054151793010532,-0.0186558980494737,0.01659346445987,0.0498714902692386,0.7564243975292967,16.043546676635742,-17.535104751586914,-33.130157470703125,0.04571371739043832,1015.7883869394154
2.135155029296875,0.1435767693508416,-0.1288048234862275,-0.082379008001089,-0.0276611912995576,0.0145245203748345,-0.0263286344707012,0.0162547068747411,0.0499923795746354,0.756213450365273,15.854058265686035,-17.638368606567383,-33.177154541015625,0.045766832628726106,1015.7883769719222
2.145223876953125,0.1606422512464225,-0.1914198677553795,-0.0547580106258392,-0.0191915426403284,0.0199190191924572,-0.0270719230175018,0.016034268756193,0.0501901414715785,0.7559502074038709,15.779016494750977,-17.46270179748535,-33.17926025390625,0.04581994657915321,1015.7883670046705
2.1552919921875,0.182323227580823,-0.2243601969898678,0.0059247138738632,-0.0185593329370021,0.012689160183072,-0.0338671132922172,0.015849097155486,0.0503903233107032,0.7556561313387832,15.859800338745115,-17.74571990966797,-32.8936767578125,0.04587305666599826,1015.788357038144
2.165361083984375,0.1859483958080411,-0.2384609107957221,0.0470703787326812,-0.0226347707211971,-0.0065109003335237,-0.0294025894254446,0.0156471604543503,0.0504631036879474,0.7553508989127515,16.03008270263672,-17.579326629638672,-32.825286865234375,0.04592617190428605,1015.7883470706506
2.175428955078125,0.2073216213675215,-0.2490941128877922,0.0796381848603487,-0.0289126131683588,-0.0198435708880424,-0.0245415549725294,0.015402081456009,0.0503432181246101,0.7550881514655641,15.895407676696776,-17.409427642822266,-32.947662353515625,0.04597928070327041,1015.7883371043657
2.185498046875,0.2003959868228063,-0.2974749531645327,0.0730693278640508,-0.0358126014471054,-0.0286905914545059,-0.0234720297157764,0.0150919851626899,0.0501028174291301,0.7548618713371562,15.826268196105955,-17.54266357421875,-32.81121826171875,0.0460323959415582,1015.7883271368725
2.19556689453125,0.1610936117431148,-0.3248556024452671,0.0702916798442602,-0.0435283035039901,-0.0426479466259479,-0.030284421518445,0.0147107830498487,0.0497763271260331,0.7546032507390367,16.009601593017578,-17.248428344726562,-32.83990478515625,0.04608550989198531,1015.7883171696209
2.205635009765625,0.1227609584784135,-0.3212224335746839,0.0173246442884206,-0.0426558554172515,-0.0609933957457542,-0.035238966345787,0.0142877605544127,0.0492744087853012,0.7542892207542817,16.169605255126953,-17.25364112854004,-32.576751708984375,0.046138619978830356,1015.7883072030943
2.215703857421875,0.1260325640276074,-0.3095231548873707,-0.0403910470992326,-0.0444351769983768,-0.0633559823036193,-0.039358127862215,0.0138632827584225,0.0486803365487428,0.7539226652565674,16.033580780029297,-17.668479919433594,-32.6876220703125,0.04619173392925746,1015.7882972358426
2.22577197265625,0.1205277925988659,-0.3157541582314297,-0.0475415033757686,-0.0425129048526287,-0.0581785291433334,-0.045584600418806,0.0134567380801369,0.0480962502841801,0.7535149910535532,15.770880699157717,-17.449777603149414,-32.80499267578125,0.04624484401610251,1015.788287269316
2.235841064453125,0.1035470298446714,-0.3482149237880483,-0.0421358449399471,-0.0379159897565841,-0.0611001104116439,-0.0499430187046527,0.0130763164931741,0.047522782003981,0.7530467861924158,15.883356094360352,-17.38368034362793,-33.0966796875,0.0462979592543903,1015.7882773018227
2.245909912109375,0.0966481737090274,-0.3729479811694473,-0.0554646975904703,-0.0302242450416088,-0.0507180392742157,-0.0592038929462432,0.0127514859989266,0.0469894692499757,0.7525132291592047,15.647979736328123,-17.03389549255371,-33.359375,0.046351073204817406,1015.7882673345712
2.255977783203125,0.0907630977258086,-0.3411252212554216,-0.0129395610719919,-0.0279829315841197,-0.0242781788110733,-0.0594422481954097,0.0124869593576035,0.0466735232452906,0.751928643980197,15.516847610473633,-17.18222427368164,-33.595733642578125,0.04640418200380177,1015.7882573682863
2.266047119140625,0.0708419341381639,-0.3111077571976929,0.0102940149992704,-0.0234534256160259,0.0043950108811259,-0.0602015145123004,0.0122672353298734,0.0466448180584678,0.7513405265383426,15.676384925842283,-17.177270889282227,-32.877166748046875,0.046457298529950244,1015.7882474005513
2.276114990234375,0.0829454097121954,-0.2933960498204455,0.0054629415810108,-0.0185115821659564,0.0134305888786911,-0.0598580949008464,0.0120896696877918,0.0467839612062924,0.7507480706664357,15.988948822021484,-16.971721649169922,-33.0599365234375,0.046510407328934605,1015.7882374342664
2.286183837890625,0.1071701157126575,-0.2598919674896635,-0.0245136790096759,-0.0115524744614958,0.007484283298254,-0.0637132823467254,0.0119660876649357,0.0469230729054451,0.7501344302605041,15.916885375976562,-17.194339752197266,-33.1904296875,0.04656352127936171,1015.7882274670147
2.296253173828125,0.1277514602420851,-0.2553590185014531,-0.0671937138289213,-0.0024980818852782,0.0001227711327373,-0.0640546455979347,0.0119247764230287,0.0470064393255415,0.7494969913675993,15.979697227478027,-17.158363342285156,-32.9334716796875,0.04661663780551019,1015.7882174992798
2.306321044921875,0.1155038634896278,-0.2580271782647818,-0.0833294405937194,0.0020665768533945,-0.016698021441698,-0.0731868967413902,0.0119578793714999,0.0469430384145404,0.7487972760986858,16.146642684936523,-16.96636199951172,-32.814239501953125,0.04666974660449455,1015.7882075329949
2.31639013671875,0.0918619258131831,-0.2481196418324485,-0.0540489855736494,-0.0024324236437678,-0.0353150181472301,-0.0831376761198043,0.0119916047336828,0.0467138258204004,0.7480151279633064,16.211929321289062,-16.97153663635254,-32.959564208984375,0.04672286184278234,1015.7881975655016
2.3264580078125,0.0906775018015876,-0.2615588595222681,-0.02571837862432,-0.0112011479213833,-0.0526796281337738,-0.0824324712157249,0.0119639592324085,0.0462847783958863,0.7471843860374464,16.048376083374023,-17.184396743774414,-33.175079345703125,0.0467759706417667,1015.7881875992167
2.33652685546875,0.1062939539326354,-0.2656011571830138,-0.008110825741291,-0.0113475248217582,-0.0568219199776649,-0.0841790586709976,0.0118569262042942,0.0457598069442367,0.7463587105783214,15.959539413452148,-17.04710578918457,-32.72381591796875,0.04682908459219381,1015.788177631965
2.346595947265625,0.1150086638512089,-0.258073666021321,-0.0258019652545452,-0.0095719955861568,-0.0633767619729042,-0.0888462513685226,0.0117547591050687,0.0451909052669805,0.7455051540312173,15.922574996948242,-17.366086959838867,-32.759307861328125,0.0468821998304816,1015.7881676644718
2.356663818359375,0.121363768498972,-0.2528865274406969,-0.1012304234653711,-0.0061052115634083,-0.0665540844202041,-0.0965788885951042,0.0116733433905904,0.0445573977698626,0.7445744574573819,15.9817533493042,-17.210617065429688,-33.0633544921875,0.04693530862946596,1015.7881576981869
2.36673291015625,0.1249548883261159,-0.2093231339156627,-0.1580892057627439,-0.003242046572268,-0.0735592693090438,-0.1038128286600112,0.0116294854203146,0.0438700318776324,0.7435637088621279,15.998640060424805,-17.236766815185547,-33.298980712890625,0.04698842386775375,1015.7881477306936
2.37680126953125,0.0814607241123914,-0.1733038173609413,-0.1721522179067134,0.0035061053931713,-0.0769491121172905,-0.1127656176686286,0.0116250657687927,0.0431622736802033,0.7424910234580865,15.909164428710938,-17.03291893005371,-33.38330078125,0.047041535242459485,1015.7881377639253
2.386869873046875,0.0217086680589243,-0.1488188712554052,-0.1462409470587968,0.0107951778918504,-0.0882153511047363,-0.1196730583906173,0.0116956913541897,0.0423728254872495,0.7413111026457339,15.974967002868652,-17.103120803833008,-33.101654052734375,0.047094647905025905,1015.7881277969153
2.396939208984375,-0.012274192498438,-0.1495300517320633,-0.1194102232784032,0.0220427364110946,-0.0951565131545066,-0.1207736805081367,0.0118520655188108,0.0414886001960738,0.740100128520901,16.139141082763672,-16.905033111572266,-33.628204345703125,0.04714776443117438,1015.7881178291804
2.407007080078125,0.0142972958238795,-0.1549779236081056,-0.0819938080757856,0.0286750737577676,-0.0786885917186737,-0.1318625509738922,0.0121052705649363,0.0406552602726242,0.7388236589789028,15.943846702575684,-16.851438522338867,-33.430389404296875,0.047200873230158744,1015.7881078628955
2.417075927734375,0.0336440935896709,-0.1097157359417062,-0.0045657004803419,0.0262224823236465,-0.0558024570345878,-0.1340359002351761,0.0123872550266746,0.0400247855510352,0.7374859609538595,15.775851249694824,-16.956281661987305,-33.63116455078125,0.04725398718058585,1015.7880978956439
2.42714501953125,0.0060603594848886,-0.0921421492603607,0.066470660251379,0.0203768424689769,-0.0225456990301609,-0.1360471248626709,0.0126076242520132,0.0396787793311334,0.7361244883697557,15.802474975585938,-16.968788146972656,-33.337249755859375,0.047307102418873634,1015.7880879281506
2.437213134765625,-0.0053492520734667,-0.0436639586895238,0.1229074177443981,0.0179702304303646,-0.0120533742010593,-0.1432576924562454,0.0127902961232187,0.0395604896639605,0.7347286086415402,15.905577659606934,-16.907495498657227,-33.074493408203125,0.04736021250571869,1015.788077961624
2.44728173828125,-0.075614957226254,0.0413275881638284,0.1281418112665414,0.0251852683722972,-0.0110725322738289,-0.1503584682941436,0.0129731499801184,0.0395082370991127,0.7332392340258295,16.031965255737305,-17.165132522583008,-33.105224609375,0.0474133251682851,1015.788067994614
2.45735009765625,-0.1073449973555281,0.104830046259379,0.0715858113080263,0.0438117757439613,-0.0208913497626781,-0.1566128879785537,0.0132840753404701,0.0393869237898579,0.7316720599456403,15.81848430633545,-16.915050506591797,-33.341644287109375,0.047466436542990834,1015.7880580278459
2.4674189453125,-0.1379242965470999,0.1236409927159547,0.0856733733713626,0.0694947689771652,-0.0310603640973567,-0.1653517931699752,0.0138137562112274,0.0391482879199052,0.7300227148938327,15.979822158813477,-16.924304962158203,-33.464813232421875,0.04751955049341794,1015.7880480605942
2.477488037109375,-0.1672756979115307,0.1148905082311015,0.1498918707817793,0.0944605693221092,-0.0422261953353881,-0.1714431345462799,0.0146000006071851,0.0387997565634516,0.7282903048176138,15.58811855316162,-16.875207901000977,-33.555816650390625,0.0475616455078125,1015.7880401611328
2.487555908203125,-0.1941681252839043,0.075939019815158,0.2479085928976535,0.1182609722018241,-0.0464869886636734,-0.1763039380311966,0.0156330561588174,0.0383836980293237,0.726504472152926,15.830291748046877,-16.735504150390625,-33.72125244140625,0.0475616455078125,1015.7880401611328
2.497625,-0.2375415857274085,0.026938330607023,0.4102408430576324,0.1234950870275497,-0.0466985180974006,-0.172080397605896,0.0168010773739169,0.0379546152630338,0.7247060584752318,16.033550262451172,-16.516206741333008,-33.8690185546875,0.0475616455078125,1015.7880401611328
2.50769287109375,-0.279619672598131,-0.0345973939928226,0.6009826106220484,0.1162797808647155,-0.0418563559651374,-0.1735073179006576,0.0179573881590884,0.0375460892774606,0.7229109637440357,15.68324851989746,-16.5811824798584,-33.685791015625,0.0475616455078125,1015.7880401611328
2.517761962890625,-0.3138964015355333,-0.1128635781139135,0.7516250075101852,0.0928676724433898,-0.0410052202641963,-0.173128992319107,0.0189640542791641,0.0371659679497614,0.721116948252015,15.92101764678955,-16.486345291137695,-33.80718994140625,0.0475616455078125,1015.7880401611328
2.527830810546875,-0.3215115527143701,-0.2074134278368204,0.8240630517333746,0.0554968640208244,-0.0422518476843833,-0.17203389108181,0.0196529843003936,0.0367677208445044,0.7193551728548331,16.253097534179688,-16.716392517089844,-33.42315673828125,0.0475616455078125,1015.7880401611328
2.53790283203125,-0.3143713621035218,-0.2701387092811055,0.8156009283363819,0.0051033189520239,-0.0263147801160812,-0.1693845987319946,0.0198944031793734,0.0364515100453748,0.7176166542736764,16.012096405029297,-16.424585342407227,-33.655303955078125,0.0475616455078125,1015.7880401611328
2.547971435546875,-0.2880400392126291,-0.2776834621048532,0.7223498131871223,-0.0571970716118812,-0.0117044122889637,-0.1668375581502914,0.0195674962819516,0.0362837887049204,0.7159375872654106,15.954758644104004,-16.812593460083008,-33.256317138671875,0.0475616455078125,1015.7880401611328
2.558039794921875,-0.264997857527621,-0.2573187742670997,0.53924774672091,-0.1174800544977188,-0.0059817302972078,-0.1689911186695099,0.0186227030938377,0.0362069811978488,0.7142840535990983,15.973949432373049,-16.886444091796875,-33.491607666015625,0.0475616455078125,1015.7880401611328
2.568108642578125,-0.2454138900050893,-0.1913704025904647,0.2652677239775657,-0.171687364578247,-0.0242334380745887,-0.176229327917099,0.0170923155671786,0.0361009833718693,0.7126018975573628,16.001243591308594,-16.68075942993164,-33.96533203125,0.0475616455078125,1015.7880401611328
2.578177490234375,-0.2406902955492958,-0.0893295029924251,-0.0607516980826854,-0.2171266078948974,-0.0769636780023574,-0.1826580762863159,0.0150614164034773,0.0356177690781974,0.7108687999451453,16.253585815429688,-16.637556076049805,-34.118560791015625,0.0475616455078125,1015.7880401611328
2.58824560546875,-0.1784208863800391,-0.0287752180448267,-0.4117062394350766,-0.2389378994703292,-0.1428188532590866,-0.1859374940395355,0.0127063449805259,0.0345304200251515,0.7090872496483095,16.28420639038086,-16.418893814086914,-33.69842529296875,0.0475616455078125,1015.7880401611328
2.598314697265625,-0.1359165734538808,-0.0108717052893713,-0.679760963782668,-0.2292305082082748,-0.1959837973117828,-0.1945720016956329,0.0102746322987729,0.032803403382987,0.7072446494787571,16.117816925048828,-16.351518630981445,-33.894134521484375,0.0475616455078125,1015.7880401611328
2.608382568359375,-0.1711603207925334,-0.0834504548911936,-0.8320026125609874,-0.1802033185958862,-0.2121169567108154,-0.196764588356018,0.0081378499397991,0.0307344957347164,0.7053386386957937,16.00265121459961,-16.163320541381836,-34.0477294921875,0.0475616455078125,1015.7880401611328
2.61845166015625,-0.2408936909005977,-0.1695754992865026,-0.8779688294440507,-0.1014897301793098,-0.2078799605369568,-0.2058033794164657,0.0066492010565267,0.0286277007303033,0.7033675982978348,16.054113388061523,-15.90102195739746,-34.1678466796875,0.0475616455078125,1015.7880401611328
2.6285205078125,-0.3040088484453037,-0.2121958398077637,-0.8057213393568993,-0.0182800646871328,-0.1785082221031189,-0.2078079283237457,0.0059957479520192,0.0266704205768304,0.7012985044038444,15.949328422546388,-15.967632293701172,-34.492950439453125,0.0475616455078125,1015.7880401611328
2.6385888671875,-0.3495286367351189,-0.219358918103855,-0.6248503929436207,0.0327265411615371,-0.1404933631420135,-0.2036041170358657,0.0060282580600851,0.0250554770210174,0.699220068133632,15.923850059509276,-15.987485885620115,-34.3575439453125,0.0475616455078125,1015.7880401611328
2.648657470703125,-0.3570788694515824,-0.278647904956527,-0.3422334747582674,0.0434146039187908,-0.0879398807883262,-0.1876075714826584,0.0063911629628255,0.0239177325362473,0.6972182952470027,15.644735336303713,-15.91875457763672,-34.07293701171875,0.0475616455078125,1015.7880401611328
2.6587265625,-0.3144130092881619,-0.3729053841367363,-0.0651274289488792,0.0192150268703699,-0.0382358059287071,-0.1722007095813751,0.0066825327776599,0.0232900249207044,0.6953959662286021,15.735291481018066,-15.693689346313477,-34.041839599609375,0.0475616455078125,1015.7880401611328
2.668794677734375,-0.243524295132514,-0.4881663422485813,0.1183627600520849,-0.0252461787313222,0.0102864559739828,-0.1560502350330352,0.006617417672519,0.0231566767686362,0.6937484914029289,15.86440658569336,-15.672664642333984,-34.239715576171875,0.0475616455078125,1015.7880401611328
2.678863525390625,-0.17594112532828,-0.5374105213563889,0.1850742433220148,-0.0718696415424346,0.0429840460419654,-0.1383582651615142,0.006081985205647,0.0234214798250489,0.6922799590854022,15.876668930053713,-15.843835830688477,-33.8153076171875,0.0475616455078125,1015.7880401611328
2.688931396484375,-0.0765445296939462,-0.5338169173112138,0.1260410395950079,-0.1040773764252662,0.0622075423598289,-0.1158297881484031,0.0051514166132483,0.0239670400636218,0.6910182215518237,15.91045093536377,-15.750862121582031,-33.59625244140625,0.0475616455078125,1015.7880401611328
2.699000732421875,0.0476591018734499,-0.5105692761819809,-0.037779403296113,-0.1117947399616241,0.0749559998512268,-0.096625842154026,0.004027742042093,0.0246685829125228,0.6899783028929704,15.965116500854492,-15.676446914672852,-33.815948486328125,0.0475616455078125,1015.7880401611328
2.7090693359375,0.1335109188179485,-0.5053053277717903,-0.1829442455559969,-0.0991577804088592,0.0914769172668457,-0.0819387733936309,0.0029318184615465,0.0254968241152324,0.6891232397141264,16.015899658203125,-15.618667602539062,-34.110107421875,0.0475616455078125,1015.7880401611328
2.7191376953125,0.1756237299421802,-0.4975352417595684,-0.2710153277188539,-0.0668117627501487,0.1109979823231697,-0.067630298435688,0.0020761933578442,0.0264975969966644,0.6883910797809077,16.0653076171875,-15.612516403198242,-34.5238037109375,0.0475616455078125,1015.7880401611328
2.72920654296875,0.1970593532133847,-0.5058736657116562,-0.2613087572187185,-0.0272798053920269,0.1337432414293289,-0.0584080405533313,0.0015921229181506,0.0277301706023228,0.6877666167586328,15.698356628417969,-15.664167404174805,-34.093475341796875,0.0475616455078125,1015.7880401611328
2.739274658203125,0.2130943595500662,-0.5193521924985572,-0.1747545093595981,0.0109450966119766,0.1400356888771057,-0.056001640856266,0.0014994348348231,0.0291168544712729,0.687203612436847,15.872686386108398,-15.702392578125,-34.391571044921875,0.0475616455078125,1015.7880401611328
2.749343505859375,0.2276139380888082,-0.5445951356308535,-0.0617249270290136,0.0320977866649627,0.1263515651226043,-0.0559571646153926,0.0017329876407696,0.0304597521779781,0.6866203681996879,16.060089111328125,-15.73175048828125,-34.0130615234375,0.0475616455078125,1015.7880401611328
2.75941259765625,0.2260377200143411,-0.568900030728057,0.0720160194188356,0.0380591601133346,0.0864481702446937,-0.0642290189862251,0.0021079736820824,0.0315365546337704,0.6859970928119924,16.065963745117188,-15.809391021728516,-34.0340576171875,0.0475616455078125,1015.7880401611328
2.76948046875,0.2139360710712149,-0.5749048971660435,0.1934726538330316,0.0333307199180126,0.0353804603219032,-0.07157002389431,0.0024874689672434,0.0321453051485936,0.6852969651382896,16.059425354003906,-15.914241790771484,-34.237548828125,0.0475616455078125,1015.7880401611328
2.779549560546875,0.1756151813095435,-0.5909298935653642,0.2946107228398323,0.0123928980901837,-0.0294798668473958,-0.0780434757471084,0.0027454648948639,0.0321772537154442,0.684523733753785,16.27499008178711,-15.616384506225586,-34.519775390625,0.0475616455078125,1015.7880401611328
2.789617431640625,0.109424032119289,-0.6400895361948759,0.3688806586652994,-0.0196409337222576,-0.0972304195165634,-0.0881850644946098,0.0027374597058092,0.0315412895273231,0.6836801034775181,16.18561363220215,-15.411100387573242,-34.150421142578125,0.0475616455078125,1015.7880401611328
2.7996865234375,0.0303026194083504,-0.6695913058154285,0.43689621027112,-0.0504192039370536,-0.1437493562698364,-0.0976524800062179,0.0024146581904307,0.0303162139672267,0.6827564296542428,16.33268165588379,-15.493904113769531,-34.07611083984375,0.0475616455078125,1015.7880401611328
2.809755615234375,-0.0513971376243047,-0.6826287743039429,0.4840338090211152,-0.072132758796215,-0.155511736869812,-0.1031540408730506,0.001817630952357,0.028804649126724,0.6817621432733044,16.338788986206055,-15.403017044067385,-34.013519287109375,0.0475616455078125,1015.7880401611328
2.819823486328125,-0.1026187177523039,-0.7239327715296298,0.5236351670473813,-0.0844656676054,-0.122971698641777,-0.1054431721568107,0.0010542768830834,0.0274048994789948,0.6807330065913743,16.191699981689453,-15.42522430419922,-34.2130126953125,0.0475616455078125,1015.7880401611328
2.829892822265625,-0.1423724167960695,-0.7517343861687928,0.5190834950923919,-0.096499428153038,-0.0539194010198116,-0.0996097847819328,0.0001724319627971,0.0265297247983463,0.6797324287599061,16.02227020263672,-15.242719650268556,-34.080474853515625,0.0475616455078125,1015.7880401611328
2.83996142578125,-0.2014316317471675,-0.7399355195645243,0.4993734169721603,-0.1036628410220146,0.0145703284069895,-0.0940076559782028,-0.0008064279825496,0.0263569662869229,0.6787809132459875,15.999342918395996,-15.266839981079102,-34.16119384765625,0.0475616455078125,1015.7880401611328
2.850029541015625,-0.2413788258027285,-0.7396256498977541,0.4120060991644859,-0.1066786050796508,0.0653152614831924,-0.0849707499146461,-0.0018429444523025,0.0267990484354849,0.677907456539224,16.34363555908203,-15.161760330200195,-34.62890625,0.0475616455078125,1015.7880401611328
2.8600986328125,-0.2509906854904256,-0.7364405170556158,0.2770949398934841,-0.1107357516884803,0.0870235040783882,-0.0734981372952461,-0.0029067051963539,0.0275964453253122,0.6771440798651689,16.16001319885254,-15.069961547851562,-34.423309326171875,0.0475616455078125,1015.7880401611328
2.870166748046875,-0.2171658467726782,-0.7152798748008906,0.1464753403365612,-0.1154966875910759,0.0912845581769943,-0.0579306297004222,-0.004014310179975,0.0284964952039666,0.676507515400586,16.1063232421875,-14.893390655517578,-34.73699951171875,0.0475616455078125,1015.7880401611328
2.8802353515625,-0.1694615905832499,-0.7082745991487056,0.0311024097502231,-0.1272642314434051,0.0809890404343605,-0.0379528701305389,-0.0052073306410597,0.0293698530263684,0.6760501934397568,16.228626251220703,-14.95262336730957,-34.34613037109375,0.0475616455078125,1015.7880401611328
2.8903046875,-0.1119330740644596,-0.7353481917742639,-0.0493920996785163,-0.1320637762546539,0.0672740265727043,-0.0151602067053318,-0.0064727269715654,0.0301111912486609,0.675826096840511,16.47006607055664,-14.857330322265623,-34.491363525390625,0.0475616455078125,1015.7880401611328
2.90037255859375,-0.084104571418371,-0.728326330313459,-0.1309101069360971,-0.1222302392125129,0.0553124621510505,0.0079275779426097,-0.0077251158305162,0.0307072651828092,0.6758294979209375,16.597476959228516,-14.648643493652344,-34.6654052734375,0.0475616455078125,1015.7880401611328
2.910441650390625,-0.0684335943548008,-0.7318479285683482,-0.1880126348614692,-0.0991978868842125,0.0501014553010463,0.0292634926736354,-0.0087861590118788,0.0312155139557344,0.6760400298692943,16.424152374267578,-14.614978790283203,-34.68865966796875,0.0475616455078125,1015.7880401611328
2.920509521484375,-0.096692378176935,-0.704059757932648,-0.2408978373527526,-0.0660336911678314,0.0517242960631847,0.0476565957069397,-0.0095384021401355,0.0316866863477794,0.6764597590151057,16.604080200195312,-14.680500030517578,-34.375823974609375,0.0475616455078125,1015.7880401611328
2.93057861328125,-0.1575026015138253,-0.6847338568244129,-0.2269037987917661,-0.0311196483671665,0.0694039538502693,0.0688351169228553,-0.0099328368663956,0.0322728246117446,0.677052790121364,16.58600425720215,-14.752058029174805,-34.574920654296875,0.0475616455078125,1015.7880401611328
2.9406474609375,-0.18752631264925,-0.6941777578003704,-0.1310842944592237,0.0102551039308309,0.0875798538327217,0.0880828648805618,-0.0099345481370635,0.0330460218523325,0.6778301673422555,16.672204971313477,-14.754531860351562,-33.898529052734375,0.0475616455078125,1015.7880401611328
2.950715576171875,-0.1642898505011573,-0.7329748137064278,0.009912322205305,0.0376574322581291,0.0957309901714325,0.1104467585682869,-0.0095877473039041,0.0339423778897257,0.6788118448278414,16.498863220214844,-14.748794555664062,-34.18438720703125,0.0475616455078125,1015.7880401611328
2.960784423828125,-0.0926150822680443,-0.7894198275711387,0.1755541353046893,0.0487222820520401,0.1154758259654045,0.1289621144533157,-0.0090416366784102,0.0349958948636489,0.6800079346172968,16.63758087158203,-14.703903198242188,-34.184112548828125,0.0475616455078125,1015.7880401611328
2.970853759765625,-0.0094918683035299,-0.8217635426193475,0.3197206141769886,0.0430196598172187,0.1313197612762451,0.1462313830852508,-0.0084487629202424,0.0362401888855836,0.6813702084593849,16.635862350463867,-14.462326049804688,-34.045013427734375,0.0475616455078125,1015.7880401611328
2.98092138671875,0.0273137580569833,-0.820817932332307,0.3957417775839567,0.0210835319012403,0.1299251466989517,0.1625866442918777,-0.0079861075212123,0.0375690428875964,0.6829207841493063,16.397994995117188,-14.667137145996094,-33.98760986328125,0.0475616455078125,1015.7880401611328
2.99099072265625,0.0239542915612459,-0.811728032425791,0.4005529772579669,0.0031218426302075,0.1068698912858963,0.1762585043907165,-0.0077000554677843,0.0387669293219755,0.6846202889176415,16.345829010009766,-14.687004089355469,-34.06524658203125,0.0475616455078125,1015.7880401611328
3.00105859375,0.0117187871053814,-0.7924765117280185,0.3392845618247985,-0.0108933253213763,0.0875138044357299,0.1828762292861938,-0.0075832600222987,0.0397406862281023,0.68642282042537,16.43606948852539,-14.78559684753418,-34.064117431640625,0.0475616455078125,1015.7880401611328
3.01112744140625,-0.0194213973719626,-0.7730322449371219,0.2789566421121359,-0.0125804366543889,0.0828612670302391,0.1886994987726211,-0.0075536176630905,0.0405669339769154,0.6883051773589001,16.603736877441406,-14.63532257080078,-34.01605224609375,0.0475616455078125,1015.7880401611328
3.02119677734375,-0.0422065355559811,-0.7499540786232799,0.2210299383223056,0.0075020450167357,0.079741284251213,0.1930726468563079,-0.0074128180073524,0.0413804084593298,0.6902185295831303,16.695919036865234,-14.747472763061523,-34.253204345703125,0.0475616455078125,1015.7880401611328
3.0312646484375,-0.0587467149358242,-0.7691989503845572,0.1839303339838981,0.0358940064907074,0.0779052972793579,0.1921594440937042,-0.0070253849543397,0.0421520900178398,0.6921511189833152,16.783740997314453,-14.903539657592772,-34.243072509765625,0.0475616455078125,1015.7880401611328
3.04133349609375,-0.0751419694196432,-0.8033095289748161,0.1574748732566833,0.0677009224891662,0.0733308568596839,0.1895447969436645,-0.0063075137417625,0.0429089088764254,0.694033786716538,16.588058471679688,-15.038877487182615,-33.783294677734375,0.0475616455078125,1015.7880401611328
3.051401611328125,-0.1042697180960327,-0.8377765197873115,0.1616004287540912,0.0849637985229492,0.0518838837742805,0.17831851541996,-0.0053360698935908,0.0435448814022308,0.6958537093876797,16.509475708007812,-15.088289260864258,-34.095916748046875,0.0475616455078125,1015.7880401611328
3.061470703125,-0.1256176996164023,-0.8766278631638735,0.1785293517231941,0.0901092812418937,0.0302073620259761,0.1734926849603653,-0.0042471348684875,0.0439671859145222,0.6975917567217007,16.751331329345703,-15.10178565979004,-33.994537353515625,0.0475616455078125,1015.7880401611328
3.07153955078125,-0.1321027873193845,-0.9114434482183308,0.1980892077177763,0.0867358520627021,0.0060178702697157,0.1621564030647277,-0.0031739109159471,0.0441554710234633,0.6992348799985137,16.538238525390625,-15.054473876953123,-34.022064208984375,0.0475616455078125,1015.7880401611328
3.081607666015625,-0.1888221246134489,-0.9396499173313378,0.1711936020076274,0.0805822908878326,-0.0120496284216642,0.1531111747026443,-0.0021744356924435,0.0441254854306555,0.700789927455104,17.04981803894043,-14.875009536743164,-33.927764892578125,0.0475616455078125,1015.7880401611328
3.091676513671875,-0.2291246166463941,-0.98643914103508,0.139985393795371,0.0802469998598098,-0.0126927820965647,0.1431749165058136,-0.0012388217295107,0.0440083276646561,0.7022398396847315,16.75107192993164,-14.96763038635254,-33.832366943359375,0.0475616455078125,1015.7880401611328
3.101745849609375,-0.2741423371655866,-1.0479309168953448,0.1117711067020893,0.0754581913352012,-0.0155918933451175,0.1369846165180206,-0.0003223499797318,0.0438684665977616,0.7036121807483385,16.721542358398438,-15.158658981323242,-33.969451904296875,0.0475616455078125,1015.7880401611328
3.1118134765625,-0.3642283393474295,-1.0414422855284065,0.1215817220985889,0.0788686349987983,-0.0229653865098953,0.1307565569877624,0.0005681896418668,0.0436703440155104,0.7049156593603106,16.91082763671875,-15.284626007080078,-33.543060302734375,0.0475616455078125,1015.7880401611328
3.121882568359375,-0.4640970460055396,-0.984997490859404,0.1578799469262361,0.0838975086808204,-0.0182998888194561,0.1293688118457794,0.0015021790115956,0.0434474508250622,0.7061836860363843,16.95050811767578,-15.198501586914062,-34.181610107421875,0.0475616455078125,1015.7880401611328
3.13195068359375,-0.5449026672100648,-0.9399754960238932,0.2370703880190849,0.0889897421002388,0.0048975767567753,0.1369894444942474,0.0024920703192379,0.0433254884255891,0.7074697601825237,17.00629425048828,-15.183671951293944,-33.968597412109375,0.0475616455078125,1015.7880401611328
3.14201953125,-0.5820786612529307,-0.916549612250924,0.2502764910727739,0.0893630981445312,0.0338368825614452,0.1607784330844879,0.0035380792609403,0.0435156258591294,0.7089174116132401,16.756521224975586,-15.233999252319336,-34.018524169921875,0.0475616455078125,1015.7880401611328
3.152088623046875,-0.6043662251783535,-0.9953469623729586,0.2132885304152965,0.0782377421855926,0.0330581739544868,0.1902207434177398,0.0045514602329772,0.0438356914773804,0.7106503025020604,16.633758544921875,-15.437278747558594,-33.742523193359375,0.0475616455078125,1015.7880401611328
3.16215673828125,-0.6930130248699337,-1.2352123879380523,0.1801537380546331,0.0464284047484397,0.0589182898402214,0.2098148763179779,0.0053758167743615,0.0442392472953822,0.7126424042445496,16.398475646972656,-15.322126388549805,-34.155181884765625,0.0475616455078125,1015.7880401611328
3.1722255859375,-0.6734262078031897,-1.3931883425846696,0.3677244743674993,-0.0195295698940753,0.1097074374556541,0.2289936244487762,0.0057309897283372,0.0450504694026142,0.7148214297912702,16.59986114501953,-15.239826202392578,-34.020660400390625,0.0475616455078125,1015.7880401611328
3.182293701171875,-0.5369323459180072,-1.2232143454998732,0.4979986214876175,-0.111223429441452,0.127968430519104,0.2645520865917206,0.005302272981448,0.0462393224471607,0.7173283301641978,16.542221069335938,-15.397686004638672,-34.244873046875,0.0475616455078125,1015.7880401611328
3.192362548828125,-0.3295999839607626,-0.8284361522510647,0.2404740589827299,-0.2399443835020065,0.1043312847614288,0.297840267419815,0.0037951281796823,0.0473608005287348,0.720228338826355,16.569643020629883,-15.219316482543944,-33.710723876953125,0.0475616455078125,1015.7880401611328
3.202431640625,-0.1493673719836399,-0.4688892852507531,-0.3667430621147156,-0.3974037766456604,0.0566028393805027,0.3244103193283081,0.0008468792142478,0.0481172456136927,0.7234997835172992,16.535694122314453,-15.395187377929688,-34.035858154296875,0.0475616455078125,1015.7880401611328
3.21249951171875,-0.0142618591843172,-0.2659016562332399,-1.0631482867062092,-0.5272584557533264,-0.0210504122078418,0.3416529595851898,-0.00363115513716,0.0482873509820562,0.7270922793596392,16.609210968017578,-15.290279388427734,-33.97705078125,0.0475616455078125,1015.7880401611328
3.222568603515625,-0.0036484029723331,-0.0781676556500606,-1.763793633085489,-0.5712849497795105,-0.1044031009078025,0.3332729041576385,-0.0090391196252839,0.0476637498459361,0.7307698829626383,16.437271118164062,-15.275867462158203,-34.231475830078125,0.0475616455078125,1015.7880401611328
3.232637939453125,-0.0911180851759389,0.1218521456709597,-2.396052840980887,-0.5160133838653564,-0.1497335582971573,0.2960280776023865,-0.014430507872845,0.0464070568104674,0.7342039499979239,16.555788040161133,-15.124935150146484,-34.15826416015625,0.0475616455078125,1015.7880401611328
3.24270556640625,-0.1262825567333027,0.3480138847906142,-2.7834979148626324,-0.375075489282608,-0.1580321490764618,0.2507023513317108,-0.0188196001655336,0.0448826726174047,0.7371805404787289,16.289417266845703,-15.048477172851562,-34.1981201171875,0.0475616455078125,1015.7880401611328
3.2527744140625,-0.1840929041344672,0.5527946260362864,-2.9436890613406894,-0.2027202546596527,-0.1343119144439697,0.1990644633769989,-0.021619989032606,0.0434390017357735,0.7395841225405071,16.17656707763672,-14.659917831420898,-34.31201171875,0.0475616455078125,1015.7880401611328
3.2628427734375,-0.2210702338000759,0.661791884110868,-2.878949754926562,-0.0408195815980434,-0.1066019833087921,0.1445522606372833,-0.0227584552332307,0.0422655066721265,0.7413634145820446,16.292152404785156,-14.792886734008787,-34.547698974609375,0.0475616455078125,1015.7880401611328
3.272911376953125,-0.2451895797299221,0.7286267014995217,-2.597353996482491,0.0666741207242012,-0.0883513391017913,0.0870836451649665,-0.0225502042301386,0.041336303726722,0.742513979203835,16.182945251464844,-14.817184448242188,-34.971221923828125,0.0475616455078125,1015.7880401611328
3.28298046875,-0.2948288591025397,0.7144890166841447,-2.19378839340508,0.1210298240184784,-0.1007525250315666,0.0284125134348869,-0.0215501934734307,0.0403994811115292,0.7430624940253155,16.503948211669922,-14.72603988647461,-34.63262939453125,0.0475616455078125,1015.7880401611328
3.293048583984375,-0.3286892257913947,0.6549005902271717,-1.704945138275623,0.1428307294845581,-0.1322404146194458,-0.0300257615745067,-0.0202104574621554,0.0392418435110483,0.742995306698659,16.5126953125,-14.806356430053713,-34.683380126953125,0.0475616455078125,1015.7880401611328
3.30311767578125,-0.3510726147741079,0.5569159072173759,-1.2158265733361244,0.1503327339887619,-0.1662808656692505,-0.0889871641993522,-0.0187577453155223,0.0377223668347508,0.7423237272205883,16.309768676757812,-14.404060363769531,-35.07147216796875,0.0475616455078125,1015.7880401611328
3.313185302734375,-0.4282199326667934,0.430801400527358,-0.7482055544555187,0.1559482812881469,-0.1786541789770126,-0.148808404803276,-0.0172590825149231,0.0359584344613403,0.741061983892821,16.227746963500977,-14.660858154296877,-34.9178466796875,0.0475616455078125,1015.7880401611328
3.323254638671875,-0.5426024639762937,0.3090239731935784,-0.2507166360557079,0.1601018905639648,-0.1531553864479065,-0.19605553150177,-0.0157149229249976,0.034238059225825,0.739267711190854,16.20632553100586,-14.940759658813477,-35.170074462890625,0.0475616455078125,1015.7880401611328
3.33332373046875,-0.5895089939167723,0.214234140702337,0.2629004103243351,0.1585447490215301,-0.1031878143548965,-0.2373073697090149,-0.0141806741808617,0.0329160201742758,0.7370336510210892,16.439647674560547,-14.785511016845703,-35.260101318359375,0.0475616455078125,1015.7880401611328
3.3433916015625,-0.5908378313677385,0.1297719788847956,0.7028028166741133,0.1524365097284317,-0.026432042941451,-0.2539160847663879,-0.0126919632897308,0.032226466143393,0.7344913180666187,16.451824188232422,-14.828336715698242,-35.41204833984375,0.0475616455078125,1015.7880401611328
3.353460693359375,-0.5252602840311825,0.0392941917732357,1.027771268376708,0.1370927095413208,0.0728010684251785,-0.2509975135326385,-0.0113131716172894,0.0324054463364667,0.7318920582924883,16.290664672851562,-14.80128288269043,-35.308441162109375,0.0475616455078125,1015.7880401611328
3.363529541015625,-0.3899494579181075,-0.0665676086866762,1.2263678410947323,0.1185583919286727,0.1762994080781936,-0.2386329025030136,-0.0100993356770595,0.0336378020528486,0.7293790888201485,16.320106506347656,-14.932554244995115,-34.785003662109375,0.0475616455078125,1015.7880401611328
3.37359765625,-0.3544574349068105,-0.104725033248635,1.2789829944729805,0.0913763046264648,0.2620622515678406,-0.2140990644693374,-0.0091227113210335,0.0358333229363507,0.7270559763037665,16.482728958129883,-15.06537628173828,-34.788818359375,0.0475616455078125,1015.7880401611328
3.38366650390625,-0.2709635609989985,-0.1417675462380982,1.2421885105609891,0.0422836765646934,0.3244904577732086,-0.1773688048124313,-0.0085207005901121,0.038795903653363,0.7250530190517703,16.82880973815918,-15.098779678344728,-34.81524658203125,0.0475616455078125,1015.7880401611328
3.393734619140625,-0.1889823932090774,-0.172880568713881,1.1223504172593357,-0.0261758062988519,0.3383599519729614,-0.1339435577392578,-0.0084889982233177,0.0421424923166938,0.7234814496204913,16.744998931884766,-14.89655876159668,-35.15576171875,0.0475616455078125,1015.7880401611328
3.4038037109375,-0.0706876203592866,-0.1220559154815971,0.8930202681034803,-0.1014598459005355,0.2917837500572204,-0.0887645632028579,-0.0091809864226539,0.0453420276306644,0.7223992108438079,16.884765625,-14.880552291870115,-35.078094482421875,0.0475616455078125,1015.7880401611328
3.41387255859375,0.0679511080674827,0.0152293342432938,0.6038806701511145,-0.1733191311359405,0.1835701912641525,-0.048594769090414,-0.0106084924865362,0.0477487258566498,0.7217747311951028,16.803367614746094,-14.678897857666016,-35.272186279296875,0.0475616455078125,1015.7880401611328
3.423940673828125,0.1628905781624838,0.2073695156298577,0.2087818666458129,-0.2313467264175415,0.0542059913277626,-0.0052535515278577,-0.0126680107884637,0.0489497549161829,0.7216016897861265,16.93453025817871,-14.787712097167969,-35.15948486328125,0.0475616455078125,1015.7880401611328
3.434009765625,0.2160978156823664,0.4323163351349532,-0.2001665985137224,-0.2665824592113495,-0.0758518800139427,0.0360483489930629,-0.015181723104594,0.0488357499533846,0.7218763135309686,17.044822692871094,-14.449785232543944,-35.502166748046875,0.0475616455078125,1015.7880401611328
3.444077392578125,0.2348455881090834,0.6582737929873168,-0.5928133326917886,-0.2815908193588257,-0.1719652712345123,0.08352080732584,-0.0179434684830631,0.0475654272645651,0.7226164616905164,17.122365951538086,-14.565629959106444,-35.161956787109375,0.0475616455078125,1015.7880401611328
3.454146728515625,0.2099278948757797,0.8724342108663171,-0.9148480690300465,-0.2362419813871383,-0.2288221716880798,0.1022196635603904,-0.0205349858144989,0.0455437031130245,0.7237086127337717,16.951190948486328,-14.514251708984377,-35.25115966796875,0.0475616455078125,1015.7880401611328
3.464215576171875,0.1958497582279145,1.0011310987323525,-1.1314753884792328,-0.1314932703971862,-0.2423985004425048,0.0965194553136825,-0.0223808526643667,0.0431634443011617,0.7247944816166092,16.660560607910156,-14.381595611572266,-35.498443603515625,0.0475616455078125,1015.7880401611328
3.47428369140625,0.1265805167665705,1.10222313664034,-1.262204293629527,0.0115432431921362,-0.2028758525848388,0.0873105078935623,-0.0229367285021872,0.040917043885946,0.7257452704266256,16.687313079833984,-14.340139389038086,-35.286895751953125,0.0475616455078125,1015.7880401611328
3.4843525390625,0.1234985885705798,1.1962569996651262,-1.2954524832367895,0.1638009846210479,-0.1337722092866897,0.0811518207192421,-0.0219994423824959,0.0392297870997575,0.7265561980070725,16.526731491088867,-14.31552505493164,-35.2357177734375,0.047596405213381765,1015.7880374009324
3.494421630859375,0.2467582538187503,1.2517678014196454,-1.1834364618629216,0.2825353443622589,-0.0558121800422668,0.0768015459179878,-0.0196953464669798,0.0382699474374683,0.7272491764868609,16.543392181396484,-14.497137069702148,-35.412750244140625,0.04770209634702916,1015.7880290082056
3.504489501953125,0.3509355078583583,1.2297589448377488,-0.8982114070057868,0.3459755480289459,0.0331303067505359,0.0697627738118171,-0.0164611902246958,0.0381577966987994,0.727866200182495,16.348655700683594,-14.750411987304688,-35.497802734375,0.04780777466745569,1015.7880206164964
3.51455859375,0.4932637749854475,1.1626795781034975,-0.4698486318022012,0.3697847425937652,0.1081078797578811,0.0674607381224632,-0.012802941859122,0.0388864414289275,0.7284160100958856,16.31502914428711,-14.514162063598633,-35.436920166015625,0.04791346580110308,1015.7880122237697
3.52462646484375,0.629559739678353,1.072868520405516,-0.0290086523413658,0.3595399856567383,0.1641672104597091,0.0620540790259838,-0.009097736980298,0.0402770003653685,0.7289176520540217,16.56665802001953,-14.729516983032228,-35.635589599609375,0.04801914412152961,1015.7880038320604
3.53469580078125,0.7266294632676988,1.0132370585244148,0.333664383855462,0.3239236772060394,0.1997845917940139,0.0604812167584896,-0.0056263580050289,0.0421284783452397,0.7293821694995012,16.70355224609375,-14.78453254699707,-35.568695068359375,0.04812483781782118,1015.7879954391302
3.5447646484375,0.8008193926595151,0.9838499282594768,0.6195920340240001,0.2738373279571533,0.2178014814853668,0.0654259398579597,-0.0025957652121572,0.0442540040990463,0.7298821200726201,16.703510284423828,-14.998937606811523,-35.525543212890625,0.0482305263888244,1015.787987046607
3.55483251953125,0.8416255233656614,0.9624190907612442,0.7965852622210979,0.2255523353815078,0.2039314657449722,0.0724718645215034,-5.08696457207e-05,0.0464121456163955,0.7304630316991884,16.624858856201172,-15.201997756958008,-35.339019775390625,0.04833620470925093,1015.7879786548978
3.56490185546875,0.8595582896150649,0.9649333386044948,0.8554401867717504,0.1810164749622345,0.1463890969753265,0.0693500936031341,0.0020213039729644,0.0482019490085091,0.7310817104513767,16.380475997924805,-15.238548278808594,-35.29461669921875,0.0484418984055425,1015.7879702619675
3.574969482421875,0.8257361725773662,0.9342928472775964,0.8249918570160866,0.1424147486686706,0.0491336435079574,0.0704063028097152,0.0036881135695407,0.0491955924295851,0.7317088244557592,16.901662826538086,-15.321161270141602,-34.7978515625,0.04854757416332486,1015.7879618704617
3.585038818359375,0.8075101224698126,0.888844005332142,0.7673392939925193,0.1262603998184204,-0.055598184466362,0.0682331472635269,0.0050503361366481,0.0491623020425604,0.7323413597162072,16.956905364990234,-15.327512741088867,-34.56109619140625,0.04865326785961642,1015.7879534775315
3.595107666015625,0.7973957018211484,0.8880963287699967,0.7137497426241636,0.1159736663103103,-0.1504264175891876,0.0616652555763721,0.0062863722834921,0.0481175655539833,0.7329309778056207,16.91436004638672,-15.199310302734377,-34.678497314453125,0.04875895643061964,1015.7879450850082
3.60517578125,0.7743694848902523,0.9225518483404068,0.6739882256001234,0.1140431314706802,-0.2187263667583465,0.0504238866269588,0.0074652917510284,0.0462371528556607,0.7334610190063706,16.754796981811523,-15.441923141479492,-34.842376708984375,0.04886463731369034,1015.7879366930955
3.61524462890625,0.6938852045945822,0.8244364150904119,0.6481675556451082,0.1040333732962608,-0.2492017149925232,0.0406708568334579,0.0085839948455779,0.043852579283707,0.7338735066013503,16.861377716064453,-15.250102996826172,-35.091827392578125,0.048970325884693564,1015.7879283005723
3.625313720703125,0.7145956188637763,0.7468753287650645,0.5813672250479459,0.0886344239115715,-0.2602687180042267,0.0179468356072902,0.0095708811865442,0.0412808818225112,0.7341358702539086,16.637935638427734,-15.07451629638672,-34.755889892578125,0.04907601701834096,1015.7879199078455
3.635381591796875,0.6994733069252222,0.6815154062345623,0.491501660683751,0.0669272691011428,-0.2669534981250763,-0.0053209369070827,0.0103523481611862,0.0386248164912749,0.7341790041578425,16.50663185119629,-15.233016967773438,-34.599365234375,0.049181695338767484,1015.7879115161363
3.64545068359375,0.6594789309933782,0.678030852054432,0.3025485301017761,0.0469270981848239,-0.2757536172866821,-0.0369163267314434,0.0109278412139233,0.0358958616491771,0.7339447203191659,16.420696258544922,-15.23944091796875,-35.27496337890625,0.04928738647241488,1015.7879031234096
3.6555185546875,0.5936838319160044,0.6651794807225465,0.0840928261816501,0.0384324118494987,-0.2885658144950866,-0.0617327243089675,0.0113263719651176,0.0330666518944938,0.7334364055268314,16.2915096282959,-15.372053146362305,-35.093994140625,0.04939306479284141,1015.7878947317004
3.665587890625,0.5290269796209409,0.611021627946943,-0.0799427207648754,0.0506083071231842,-0.2943582236766815,-0.0856309086084365,0.0117395080450378,0.0301215596837453,0.7326790435220095,15.948362350463867,-15.497943878173828,-34.919647216796875,0.049498758489132974,1015.7878863387701
3.675656494140625,0.449516257065162,0.5098925459641963,-0.1416115336924791,0.0824786201119422,-0.2753448486328125,-0.1074094399809837,0.012383068407281,0.0272571595020633,0.7316809693355601,16.18522071838379,-15.500326156616213,-35.040557861328125,0.049604444497492024,1015.7878779464504
3.685724609375,0.36237295727171,0.3912795374780893,-0.0806143364161253,0.1203261539340019,-0.2437829971313476,-0.1315016001462936,0.0133800340838916,0.0246221498614055,0.7304573321415633,16.101905822753906,-15.290292739868164,-35.397552490234375,0.04971012538056272,1015.7878695545376
3.695793701171875,0.2864185572243295,0.3182640221605077,0.0970177742063999,0.1543861329555511,-0.1824277639389038,-0.1448219269514084,0.0147389764042839,0.0224640223432155,0.7290242065408746,16.31679344177246,-15.214567184448242,-35.814727783203125,0.04981581651421012,1015.7878611618108
3.70586181640625,0.2533198408240452,0.2273392675995826,0.3192939131975174,0.1722051948308944,-0.1160922348499298,-0.1439047455787658,0.0163774665365386,0.0209868840931111,0.7275335916710625,16.060155868530273,-15.30845069885254,-35.49322509765625,0.04992149739728082,1015.7878527698981
3.715930419921875,0.252409338383004,0.0762068769711069,0.5342004002034664,0.1653307676315307,-0.0494229234755039,-0.1270690411329269,0.0180716026581817,0.0201797693344038,0.7261297641439046,15.983566284179688,-15.367286682128906,-35.343353271484375,0.050027183405639865,1015.7878443775784
3.725999755859375,0.2418638328406959,0.0242732213173061,0.6843500451385974,0.1334054768085479,0.00096550071612,-0.1048593297600746,0.019535748612313,0.0200043801767312,0.7249405333745876,15.990575790405272,-15.51682472229004,-35.232818603515625,0.050132877101931435,1015.7878359846482
3.736067626953125,0.2683000408781692,-0.0016552929263561,0.764294519469142,0.0945587456226348,0.0336257070302963,-0.0931528732180595,0.020630399423612,0.0202388609558142,0.7239093236109838,15.980639457702637,-15.474590301513672,-35.49237060546875,0.050238555422357965,1015.7878275929389
3.74613671875,0.2532072290287352,-0.0416420335410162,0.7272393387943505,0.0513731651008129,0.0533299818634986,-0.073016844689846,0.0213290408067794,0.0207408171961734,0.7230609252895712,16.017162322998047,-15.629802703857422,-35.28204345703125,0.050344246556005355,1015.7878192002122
3.756205810546875,0.2739237077125348,-0.0678529083900153,0.6045037704855203,0.0194663647562265,0.051878560334444,-0.0478270724415779,0.0216470739085138,0.0212990088168187,0.7224440310095721,16.0301570892334,-15.69553565979004,-35.208587646484375,0.05044993768965275,1015.7878108074855
3.766273681640625,0.3175459735516459,-0.0910861191350966,0.4620879346728324,-0.0032833348959684,0.0340598858892917,-0.0247929170727729,0.0217041046668849,0.0217643510576823,0.7220749919907672,16.252643585205078,-15.597585678100586,-35.179290771484375,0.05055561601007928,1015.7878024157762
3.7763427734375,0.3339046954173594,-0.0453048120985738,0.293714066261053,-0.0109061002731323,0.0140909720212221,-0.0006327186711132,0.0215964722249534,0.0220189016937409,0.7219536880318097,16.25271987915039,-15.657089233398438,-35.149169921875,0.05066130714372667,1015.7877940230495
3.78641064453125,0.3519209021665155,0.0247087266577407,0.1313613578349352,-0.0073039652779698,0.0043413108214735,0.0136371236294507,0.0214726548537505,0.0221196139882251,0.7220142430891892,16.186262130737305,-15.736791610717772,-35.10809326171875,0.0507669854641532,1015.7877856313402
3.796479736328125,0.3406505894809961,0.1028503710837103,0.0159726451575756,0.0138356741517782,0.0081456368789076,0.0276000760495662,0.0214910602110384,0.0221855306170504,0.7222169337559011,16.117626190185547,-15.573707580566406,-35.243896484375,0.0508726765978006,1015.7877772386134
3.806548583984375,0.3127867963258177,0.1451287115005776,-0.0939484497636556,0.0450976304709911,0.0140011366456747,0.0401008427143096,0.0217739962384701,0.022310981829066,0.7225515942510985,16.23094940185547,-15.665325164794922,-35.20697021484375,0.050978365168803816,1015.7877688460902
3.816616455078125,0.2765249214531853,0.132519551426731,-0.151734868299961,0.0852724835276603,0.0136421415954828,0.0424910299479961,0.0224415071200166,0.0224537640597845,0.7229486717071638,16.07807731628418,-15.6890869140625,-35.29107666015625,0.051084043489230346,1015.787760454381
3.826685791015625,0.2372784230128861,0.0833460446686483,-0.1617319461792707,0.1290558278560638,0.0050273593515157,0.0406581312417984,0.0235310090721275,0.0225654254714559,0.7233397350511573,16.456762313842773,-15.546756744384766,-34.78973388671875,0.051189737185521916,1015.7877520614508
3.83675390625,0.2214613337432034,-0.0215890602672472,-0.1076245084166526,0.165599450469017,-0.004240175243467,0.0333717241883277,0.0250380806103684,0.0225769785410475,0.7236840270240733,16.456762313842773,-15.546756744384766,-34.78973388671875,0.05129541806859261,1015.787743669538
3.846822509765625,0.2089465922208502,-0.1179798982143402,-0.0203746795088052,0.1953802555799484,-0.023294560611248,0.0198226235806942,0.0268672839497299,0.0224503132194737,0.7239084617760356,16.555419921875,-15.825122833251951,-35.5230712890625,0.05140110407695166,1015.7877352772183
3.856891845703125,0.1943218728072009,-0.2274232926212251,0.090027476927638,0.2033628076314926,-0.045143399387598,0.0103505589067935,0.0288915434130907,0.0221116059523762,0.7240021570787151,16.353290557861328,-16.032386779785156,-35.317047119140625,0.05150679777324323,1015.7877268842881
3.866959716796875,0.1608573370355181,-0.3299609992928802,0.2387479658424854,0.1847066581249237,-0.05464369058609,0.013821667060256,0.0308418692991532,0.0216339916754992,0.7240742941217422,16.25314712524414,-16.09470558166504,-35.241455078125,0.05161247609366976,1015.7877184925788
3.877028564453125,0.1627388216668739,-0.3892109875757247,0.405454193302989,0.1569178998470306,-0.0398093499243259,0.0172195956110954,0.0325676477969001,0.0211683081544172,0.7241713384484044,16.380393981933594,-16.084705352783203,-35.098052978515625,0.05171816466467298,1015.7877101000556
3.88709765625,0.1632177825565449,-0.4055805230963974,0.5309042812675238,0.118302434682846,-0.0107678733766078,0.0248683765530586,0.033935674813996,0.0209218699108411,0.7243395002784186,16.307132720947266,-16.07097625732422,-34.919677734375,0.05182385579832038,1015.7877017073289
3.897165771484375,0.1504590579441748,-0.3413441247031092,0.597145224416256,0.0889514684677124,0.0055482489988207,0.0339508168399333,0.034962892888519,0.0209266442709944,0.7246235625823493,16.532928466796875,-15.956707000732422,-34.76483154296875,0.051929536681391074,1015.787693315416
3.907234619140625,0.1439374010904692,-0.3161319420352578,0.527429298633337,0.0696640163660049,0.0022340561263263,0.0507928095757961,0.0357490331774364,0.02098194485557,0.725046785425557,16.123851776123047,-16.232769012451172,-35.153411865234375,0.0520352252523943,1015.7876849228928
3.917302734375,0.1333526412500068,-0.3120090899515896,0.3480857079178094,0.06697928160429,-0.0151337478309869,0.0518721900880336,0.0364292882578904,0.0209173390792583,0.7255584996265545,16.24530792236328,-16.158527374267578,-35.235198974609375,0.052140906135465,1015.7876765309801
3.92737158203125,0.0859548937264829,-0.332720307938382,0.1878998221367597,0.0802657157182693,-0.0259248949587345,0.0437281988561153,0.0371712286718172,0.0207002804395561,0.7260354482070396,16.50908851623535,-16.16139030456543,-35.01837158203125,0.05224659470646822,1015.7876681384569
3.937440673828125,-2.0458266139e-06,-0.3759090594647452,0.1126250931829214,0.1086797788739204,-0.0248873271048069,0.0213307477533817,0.038138980169435,0.0204480209868717,0.7263555084994251,16.224384307861328,-15.95234489440918,-34.891326904296875,0.052352285840115614,1015.7876597457301
3.947508544921875,-0.082138130183611,-0.4414788253536447,0.0986930139422416,0.1480547338724136,-0.0177205689251422,-0.0075990902259945,0.0394645887225737,0.0202489850359856,0.7263929701896571,16.14193344116211,-15.782760620117188,-34.80755615234375,0.052457964160542145,1015.7876513540209
3.95757763671875,-0.1410542468695901,-0.5178631229845807,0.1579185253709554,0.1770994365215301,-0.0151948276907205,-0.0349723920226097,0.041122089000515,0.0201239418657613,0.7261452299376283,16.19720458984375,-16.151737213134766,-34.78863525390625,0.052563655294189535,1015.7876429612942
3.967646484375,-0.100042017398402,-0.5645477538026868,0.2394739420294761,0.1931160688400268,-0.0332277119159698,-0.0491651929914951,0.0430160946712682,0.0199410626027727,0.7256753528192488,16.393638610839844,-16.28596305847168,-35.052154541015625,0.05266934386519276,1015.787634568771
3.977714599609375,-0.0551113358418457,-0.600860482079722,0.3370218775898217,0.1874943971633911,-0.0517153739929199,-0.0532885678112506,0.0449608543261796,0.0195568139401947,0.7251144443265518,16.243648529052734,-16.385469436645508,-34.877960205078125,0.052775024748263455,1015.7876261768582
3.987783447265625,-0.0104336974645964,-0.6520161208320409,0.4909095400094985,0.159276008605957,-0.0629588067531585,-0.0582470148801803,0.0467195470934672,0.0190149125569332,0.7245210901858047,16.232463836669922,-16.497297286987305,-34.977935791015625,0.05288071331926668,1015.7876177843349
3.997851806640625,0.0120822318566031,-0.6431717931844294,0.6573883884549141,0.1114690825343132,-0.073256716132164,-0.0660862922668457,0.0480807182321653,0.0183825193214051,0.7238654312445888,16.046110153198242,-16.52739906311035,-35.1400146484375,0.052986396764981555,1015.7876093922187
4.00792041015625,-0.0342187699387781,-0.6333558440256863,0.7379290751129388,0.0527772642672061,-0.0776591673493385,-0.0727616772055625,0.0488995176069194,0.0176715405612324,0.7231489922474498,16.040611267089844,-16.622957229614258,-34.876190185546875,0.0530920827733406,1015.7876009998989
4.01798974609375,-0.0696011037642136,-0.6550784310121088,0.7229775896966457,-0.0026447167620062,-0.080429121851921,-0.0846960991621017,0.0491413856031054,0.0169147047763252,0.7223569738865553,16.179119110107422,-16.56726837158203,-34.636199951171875,0.053197776469632176,1015.7875926069687
4.0280576171875,-0.1194239778091199,-0.6390433150775731,0.6852145530134439,-0.0478199422359466,-0.0657670125365257,-0.1019766852259635,0.0488688390332973,0.0162109800217498,0.7214087817185993,16.259750366210938,-16.465225219726562,-34.87646484375,0.05330345479005869,1015.7875842152595
4.03812646484375,-0.1779358428094536,-0.6387226317558438,0.6053869830608367,-0.0720970556139946,-0.045434046536684,-0.1166171506047248,0.0482446737154938,0.0156913818080108,0.720311190426884,16.38161849975586,-16.3659610748291,-34.6724853515625,0.05340914336106192,1015.7875758227362
4.048194580078125,-0.2285196182242594,-0.6489097523145377,0.4819038112550973,-0.0789032578468322,-0.0408902540802955,-0.1242926120758056,0.0474796655745998,0.015309501650976,0.719125412472869,16.285682678222656,-16.260019302368164,-34.824615478515625,0.05351482424413262,1015.7875674308235
4.058263671875,-0.1960157441782765,-0.6408439347587526,0.3336965325593948,-0.0626918002963066,-0.0376310758292675,-0.1287475377321243,0.0467602107833397,0.0149695632125022,0.717855858166859,16.15838623046875,-16.289600372314453,-34.997161865234375,0.053620515377780016,1015.7875590380968
4.06833251953125,-0.1665871311254799,-0.6519261775262654,0.1905067897647619,-0.0541206412017345,-0.0420275516808033,-0.1559021025896072,0.0461788262393318,0.0146381754795917,0.7164428949393954,16.056758880615234,-16.314851760864258,-35.040435791015625,0.05372620394878323,1015.7875506455736
4.078400634765625,-0.1344317417236045,-0.6189321818757801,0.1155301669746637,-0.0470558106899261,-0.0552850365638732,-0.150535836815834,0.0456669967224819,0.014211798273422,0.7148837278229961,16.05178451538086,-16.153047561645508,-35.12579345703125,0.053831884831853936,1015.7875422536607
4.0884697265625,-0.1117685128862038,-0.6427225881122053,0.1148684881955385,-0.031451441347599,-0.0393908098340034,-0.1347524225711822,0.0452700607207191,0.0137768793491682,0.7134659803990886,16.278961181640625,-16.24019432067871,-34.850982666015625,0.05393757596550133,1015.787533860934
4.09853857421875,-0.0806399457814171,-0.6542834081768989,0.1848801820546388,-0.0232704766094684,0.0092968372628092,-0.1147704571485519,0.0450064490566682,0.0136693818960562,0.7122085457849079,16.415401458740234,-15.988189697265623,-35.459716796875,0.05404326453650456,1015.7875254684108
4.108606689453125,-0.0641147539081517,-0.5860016433829441,0.260011703145504,-0.0154880760237574,0.0785267055034637,-0.1025763005018234,0.0448279499503157,0.0141514497957228,0.7111161404691732,16.292436599731445,-16.286365509033203,-35.218536376953125,0.05414894541957525,1015.787517076498
4.118675537109375,-0.0226469809554982,-0.5804854007121175,0.3154144414156675,-0.006543050520122,0.1333617269992828,-0.0947130471467971,0.0447189620214542,0.0152646559378403,0.7101391221170478,16.42616844177246,-16.203744888305664,-35.167724609375,0.05425463399057848,1015.7875086839748
4.128743896484375,0.0159395831381902,-0.5712103534970432,0.3157616474181413,0.0023844102397561,0.1844371259212494,-0.0916002690792083,0.0447034336088308,0.0169012144088056,0.7092034790189607,16.283580780029297,-15.937644958496094,-35.26556396484375,0.05436031743629335,1015.7875002918586
4.1388125,0.0536538122436031,-0.5675158463606611,0.2691162160992622,0.0196406282484531,0.2083975821733474,-0.0823353976011276,0.0448208814872937,0.0189325178322544,0.7083110828822045,16.273509979248047,-15.714784622192385,-35.452850341796875,0.0544660034446524,1015.7874918995388
4.148881591796875,0.1381528628722764,-0.5681756619762629,0.2197720472157001,0.0374903455376625,0.2116581797599792,-0.0661606714129448,0.0451353926161704,0.0210916230341347,0.7075499361158901,16.435420989990234,-15.662860870361328,-35.5294189453125,0.05457169457829979,1015.7874835068121
4.15894970703125,0.2626933617112226,-0.6085978348661214,0.1266366674005985,0.0477315336465835,0.1996507942676544,-0.0456615276634693,0.0455915819460474,0.0231961898585442,0.7069897462134451,16.849369049072266,-15.874885559082031,-35.5379638671875,0.0546773754613705,1015.7874751148994
4.1690185546875,0.3940152460522949,-0.6074952073864639,0.0617512305140495,0.0428909584879875,0.1889478415250778,-0.0208872742950916,0.0460860095915182,0.025173885067795,0.7066488871677743,16.640621185302734,-16.132905960083008,-35.481109619140625,0.054783064032373714,1015.7874667223762
4.17908642578125,0.5163945482693613,-0.5659576206006109,0.0798357532590627,0.0193267781287431,0.1671243011951446,0.0172949992120265,0.0464463156762024,0.0269645959718113,0.7066234497861386,16.510255813598633,-15.989660263061523,-35.4918212890625,0.054888742352800245,1015.7874583306668
4.18915576171875,0.6380347225569188,-0.6196570620842278,0.0740378806352615,-0.0257284566760063,0.1355305910110473,0.054061684757471,0.046463677007208,0.0284484460783107,0.7069863270763739,16.444595336914062,-16.088014602661133,-35.532623291015625,0.05499443604909181,1015.7874499377366
4.199224365234375,0.6769026517421006,-0.6191507199972868,0.0454641125798225,-0.0654268637299537,0.10974932461977,0.0900252759456634,0.0460571109034885,0.0295978772747898,0.7077421482309468,16.808929443359375,-15.915534973144531,-35.254730224609375,0.05510012205745086,1015.7874415454169
4.209292724609375,0.6822903361298144,-0.591500313864462,0.0206780463695526,-0.0947205200791359,0.0865559428930282,0.0997276157140731,0.0453053258956374,0.0305595124124957,0.7087320838078098,17.050731658935547,-15.91891860961914,-35.223388671875,0.05520580550316573,1015.7874331533006
4.219361572265625,0.6039047451464459,-0.6989293362416327,-0.059115036791563,-0.1174753680825233,0.0391753837466239,0.1106843948364257,0.0442983443196261,0.0311515909515885,0.7098116771612444,17.043270111083984,-16.025243759155273,-35.45416259765625,0.05531149407416895,1015.7874247607774
4.229430419921875,0.6000962197089568,-0.6565178161654621,-0.1756494123727083,-0.1275016069412231,-0.0116578070446848,0.1366112679243087,0.0431135570571517,0.0312332778143518,0.7110950269901937,17.17542266845703,-15.865806579589844,-35.566650390625,0.055417182645172175,1015.7874163682542
4.23949853515625,0.5986456921070814,-0.6787769211813807,-0.2625777542412281,-0.1143501028418541,-0.0584271773695945,0.1426888704299926,0.0419565983443547,0.0308145095623645,0.7125501970961519,17.195798873901367,-15.870882034301758,-35.502777099609375,0.05552286352824288,1015.7874079763415
