time,seconds_elapsed,z,y,x
1739817638304434000,0.028433837890625,-1.0607324577361346,0.04632913191132247,-0.8308461360022426
1739817638314503000,0.0385029296875,-0.8835188647866249,0.02757474708072841,-0.883352568309009
1739817638324573000,0.048572998046875,-0.6419394749104976,-0.07946377814151347,-0.919285759216547
1739817638334642000,0.058641845703125,-0.34418110169470306,-0.16392017693854868,-0.9430041961953043
1739817638344707800,0.068707763671875,-0.10372925454378128,-0.24325645624287426,-0.9222663824625312
1739817638354777600,0.078777587890625,0.10808861879706382,-0.3600581775233149,-0.8926762769713997
1739817638364846600,0.0888466796875,0.2944721911519766,-0.4313021165911108,-0.8309044420607388
1739817638374916600,0.09891650390625,0.4765840775370598,-0.43146636724211274,-0.762279599450156
1739817638384985600,0.108985595703125,0.5920663137167692,-0.4525236221875995,-0.6367150913257151
1739817638395055900,0.119055908203125,0.6275397781580686,-0.47303296092674135,-0.5484384035881609
1739817638405124600,0.12912451171875,0.5597691412240267,-0.4505524682451039,-0.5121873423704877
1739817638415193600,0.139193603515625,0.4313894295483827,-0.375256404242292,-0.41465814804323015
1739817638425263600,0.149263671875,0.23312661882936953,-0.24790128637403247,-0.29523831668626516
1739817638435332900,0.159332763671875,-0.002422258710861206,-0.15236140270046888,-0.16458930837176738
1739817638445402600,0.169402587890625,-0.16870003162622452,-0.09568214168846606,-0.07377195970807224
1739817638455471900,0.179471923828125,-0.21569325346946716,-0.03643434536270797,-0.06267039118558168
1739817638465541600,0.189541748046875,-0.2374859830826521,0.023402649027854203,-0.07491079101227223
1739817638475610600,0.199610595703125,-0.23321897328794,0.08207965972833335,-0.0444411262076348
1739817638485679600,0.2096796875,-0.17669453751146794,0.09828794027268886,-0.044531434839591384
1739817638495749600,0.21974951171875,-0.06332651700675487,0.0923143457558006,-0.06641640931349248
1739817638505818600,0.229818603515625,-0.007024199548363685,0.10595810957439243,-0.04786302694771438
1739817638515888600,0.239888671875,-0.006105331137776375,0.07916055741123855,-0.0363008917087689
1739817638525957600,0.24995751953125,0.03030804450213909,-0.025387685365229843,-0.08186101200897246
1739817638536027600,0.260027587890625,0.11484276923239231,-0.1543482656687498,-0.1094785387855023
1739817638546096600,0.2700966796875,0.18615619333982467,-0.2711098010692745,-0.1372279848460108
1739817638556165600,0.28016552734375,0.24824878463745115,-0.24739253313429652,-0.19219857877660543
1739817638566235600,0.290235595703125,0.21820786663889882,-0.15324140040539205,-0.16861078244019298
1739817638576304600,0.3003046875,0.10481120456159114,-0.0035692367888987063,-0.09572316781859844
1739817638586374700,0.310374755859375,-0.11375088234245777,0.14351210661679506,-0.009954407781362532
1739817638596443600,0.320443603515625,-0.43980186858475206,0.26386172963716087,0.040318493319675325
1739817638606512600,0.3305126953125,-0.759503193539381,0.38465032859668136,0.050993762721493835
1739817638616582700,0.340582763671875,-1.0089321278721093,0.4596197179283946,0.005789981578290462
1739817638626651600,0.350651611328125,-1.0912748955160378,0.49226351190172135,-0.11518628544043749
1739817638636721700,0.3607216796875,-1.0704717614620924,0.5171194284778088,-0.21797164673022926
1739817638646790700,0.370790771484375,-0.8066314399391412,0.41077904158756134,-0.28119269406851377
1739817638656860700,0.380860595703125,-0.345861602127552,0.22124774579145012,-0.3568808991940692
1739817638666929700,0.3909296875,0.16344401079416274,0.02136968189552426,-0.44274194062463934
1739817638676998700,0.40099853515625,0.596031710216403,-0.14667422390952706,-0.49210291451252997
1739817638687068700,0.411068603515625,0.9510440025269985,-0.28055450576283036,-0.5457725088471547
1739817638697137700,0.4211376953125,1.1628244664669036,-0.4318595312781632,-0.5771253862271085
1739817638707207700,0.431207763671875,1.178570317131281,-0.5251676373116672,-0.546855993234925
1739817638717276700,0.441276611328125,1.1230120960384606,-0.51965603428334,-0.5125320276223123
1739817638727346700,0.4513466796875,1.0256120445162058,-0.42751857946440575,-0.4712091065004468
1739817638737415700,0.461415771484375,0.7984861274063587,-0.3456112806282937,-0.4488214432014152
1739817638747484700,0.471484619140625,0.5327081158190965,-0.23432028559334575,-0.46345107625219967
1739817638757554700,0.4815546875,0.3150198891401291,-0.07743439120575785,-0.4844492944868281
1739817638767623700,0.491623779296875,0.14691431627571583,0.10235212097167969,-0.4707806154226884
1739817638777693700,0.501693603515625,-0.02521685884296894,0.23811039859130978,-0.39300278107412157
1739817638787762700,0.5117626953125,-0.2738204482674598,0.30216800635159013,-0.3189648273736238
1739817638797831700,0.521831787109375,-0.5211147086590528,0.3212948046911508,-0.16843893300462512
1739817638807901700,0.531901611328125,-0.6655296093344688,0.3263488732103258,-0.020818112427368758
1739817638817970700,0.541970703125,-0.6629343321442603,0.2915983162160963,0.07348978176582605
1739817638828040700,0.552040771484375,-0.511140427133441,0.2657276696395129,0.10696911324784159
1739817638838109700,0.562109619140625,-0.28890812728404996,0.27877565952204164,0.11905940054673701
1739817638848179500,0.572179443359375,-0.12098083359599113,0.2420896044205874,0.10431907366309315
1739817638858248700,0.582248779296875,-0.02342003855407238,0.13134900981001554,0.18337412487324325
1739817638868317700,0.592317626953125,0.03436287285089493,0.04601422074325382,0.31646157584842294
1739817638878387700,0.6023876953125,0.07705226002037524,-0.061474824725463985,0.4165495878130197
1739817638888456700,0.612456787109375,0.14312076921164987,-0.136212597258389,0.44773222319260236
1739817638898526700,0.622526611328125,0.19068331537544725,-0.1833122020855546,0.4419342044383287
1739817638908595500,0.632595458984375,0.19208616791069508,-0.17528262488692997,0.4367728396197781
1739817638918664700,0.642664794921875,0.16653788515627382,-0.15413542663566768,0.34386045490559186
1739817638928734500,0.652734375,0.15663725338876247,-0.10411211638152598,0.18468319817781448
1739817638938803700,0.6628037109375,0.040109307548403736,-0.03896444836221635,0.07481832695584743
1739817638948873700,0.672873779296875,-0.14180968661308288,-0.004116568473353982,-0.03662800477128476
1739817638958942700,0.682942626953125,-0.2337035419344902,0.005600888746976852,-0.10544731050804257
1739817638969012700,0.6930126953125,-0.25504852778017517,0.009346505016088484,-0.12814623171333223
1739817638979081700,0.703081787109375,-0.321493469068408,0.04374452224560082,-0.14595533505044878
1739817638989150700,0.713150634765625,-0.406677597618103,0.07023666172139346,-0.14240301286373286
1739817638999220700,0.723220703125,-0.3517787172168493,0.06309694603458046,-0.1420508749578148
1739817639009289700,0.733289794921875,-0.24486089576482772,0.04550393313355744,-0.14423245678059757
1739817639019359500,0.743359375,-0.16183131490051744,0.020943565437942742,-0.11035499282646924
1739817639029428700,0.7534287109375,-0.088735099029541,-0.037050139173492785,-0.06068860625121742
1739817639039497700,0.763497802734375,-0.008815759140253067,-0.06202749017216265,-0.03221563168913126
1739817639049567700,0.773567626953125,0.06494739620685577,-0.08133753612414002,-0.03319525384362787
1739817639059636500,0.783636474609375,0.08423311143517494,-0.07539959744252264,-0.020579846692085266
1739817639069706800,0.793706787109375,0.0808317785590887,-0.06980864556767045,-0.0118795306250453
1739817639079775500,0.803775390625,0.06759411132335662,-0.06323299350440502,0.02439987990427762
1739817639089844700,0.8138447265625,0.09221300427317619,-0.039820334539189935,0.03697648941539228
1739817639099914500,0.82391455078125,0.12023089201152325,0.009760931035876273,0.025943017693050203
1739817639109983700,0.833983642578125,0.07375964821577072,0.04388327312916517,0.03776676301024854
1739817639120053800,0.8440537109375,0.04250993894934654,0.06534596707038581,0.06359075743351131
1739817639130122800,0.854122802734375,0.0306996741682291,0.07509243118949234,0.0895255552874878
1739817639140192800,0.86419287109375,0.023214871370792388,0.08642930630519986,0.11466891050282865
1739817639150261800,0.87426171875,0.024954408514499662,0.10569617070257663,0.1309476259348914
1739817639160330800,0.884330810546875,0.03449789740741253,0.09549706744514405,0.10752462823875247
1739817639170400500,0.894400390625,0.08282908985614776,0.09578918225951492,0.09253387025799602
1739817639180469800,0.9044697265625,0.07697568765282631,0.10521876244917511,0.11191307245604694
1739817639190539500,0.91453955078125,0.005685644420981407,0.09308218832314014,0.12196549725178628
1739817639200608800,0.92460888671875,0.021312252619862554,0.07526603419072926,0.13880144470781086
1739817639210677500,0.934677490234375,0.08716507323384284,0.059981955819204444,0.14901888733953236
1739817639220747800,0.944747802734375,0.11654022080004214,0.05415171529576182,0.17553959532268346
1739817639230816500,0.95481640625,0.12930091817378997,0.04448489228412509,0.15632800477650016
1739817639240886800,0.96488671875,0.13961129978597164,0.029016908713057635,0.12753741563260554
1739817639250955500,0.97495556640625,0.10053834954798221,0.02111563406921923,0.12270784005168825
1739817639261024800,0.985024658203125,0.018671382722258566,0.02307750872671604,0.14861852637771517
1739817639271094500,0.995094482421875,-0.025818916389346122,0.009656155487149954,0.1668624044029042
1739817639281163800,1.005163818359375,-0.09766250185072421,0.032193346792086956,0.16777612171433864
1739817639291233500,1.015233642578125,-0.14303133736252785,0.02764832377359271,0.1634012310983613
1739817639301302800,1.025302734375,-0.10218377866744995,0.00782455614581704,0.11535912125669419
1739817639311372800,1.035372802734375,-0.0833200882434845,0.0075205316979438065,0.06388762148823589
1739817639321441500,1.045441650390625,-0.07256780808269978,0.016889540806785223,0.05505326724536717
1739817639331510500,1.055510498046875,-0.031927754658460615,-0.008452405720576643,0.05292242922913283
1739817639341580500,1.06558056640625,0.026088380980491637,-0.030397257155552505,0.038237120468355715
1739817639351649800,1.07564990234375,0.011038695886731146,-0.013672113130241631,0.060078365398384626
1739817639361719800,1.0857197265625,0.002639700853824615,0.015051146398484707,0.07157985649127513
1739817639371788800,1.095788818359375,-0.010161328530311584,0.012174129657447337,0.05704655995443463
1739817639381857800,1.10585791015625,-0.03785305305421352,0.0056870326604694125,0.041901524727419016
1739817639391927800,1.115927734375,-0.04778115735054016,0.002610986215993762,0.041764454344287515
1739817639401996800,1.125996826171875,-0.0272837282449007,0.01102386364378035,0.03801913033612072
1739817639412066800,1.13606689453125,0.02965980972647667,0.007529591787233949,0.03691485888864845
1739817639422135800,1.1461357421875,0.0983294413268566,0.020675927477702496,0.03994998880084604
1739817639432204800,1.156204833984375,0.08046236072480678,0.00897862155176699,0.07359214616175741
1739817639442274800,1.16627490234375,0.018516484421491623,0.004570668916404247,0.08702073285970836
1739817639452343800,1.17634375,-0.021292963397502897,0.026406433953717348,0.07236841305308044
1739817639462413800,1.186413818359375,-0.030791444104909894,0.029543636000901458,0.06768730603214353
1739817639472482600,1.196482666015625,-0.011218728628754615,0.015615794543921946,0.0704474914604798
1739817639482551800,1.2065517578125,-0.02236731463074684,0.01723806198351085,0.07519172684550285
1739817639492621800,1.216621826171875,0.005990764847397804,0.006156038411706686,0.06511566544584929
1739817639502690800,1.22669091796875,0.08093582345545292,0.014084201062470674,0.04578965473975986
1739817639512760800,1.2367607421875,0.05078092368841171,0.027816593012586235,0.02264883498586714
1739817639522829800,1.246829833984375,-0.03537292667627334,0.01600325949154794,0.026437523211725055
1739817639532898600,1.256898681640625,-0.024091654205322263,0.016308087657019497,0.049338542860373855
1739817639542968800,1.26696875,0.038458033210039134,0.026223186341300605,0.031549495930597186
1739817639553037800,1.277037841796875,0.03074935852885246,0.0005635521668940782,0.04288673637248575
1739817639563107800,1.28710791015625,-0.01713409015238285,-0.005274360206350684,0.06329020358435809
1739817639573176800,1.2971767578125,0.01038636945784092,0.00231521813981235,0.05357358661424368
1739817639583246600,1.30724658203125,0.0044505496680736535,-0.005199322208762168,0.037210882693156595
1739817639593315800,1.31731591796875,-0.012348609441518783,-0.020247692128270864,0.026038404358923434
1739817639603384800,1.327384765625,0.0008078092515468597,-0.03385492332875729,0.055439490083977576
1739817639613454800,1.337454833984375,0.02409925298988819,-0.044709787081182,0.05910480765849351
1739817639623523800,1.34752392578125,0.009791326174139976,-0.03344984965920448,0.04592738271001726
1739817639633593900,1.35759375,-0.07293196521997451,0.011832330482453107,0.040800248954631385
1739817639643662600,1.36766259765625,-0.12130582776665687,0.03757167882956564,0.060738363677076995
1739817639653731800,1.37773193359375,-0.07943535576462746,0.036394817069917915,0.035684001919440926
1739817639663801600,1.387801513671875,-0.049068274551630015,0.018133476453274486,0.037499746104516084
1739817639673870800,1.397870849609375,-0.04516717545986175,-0.02558642280772328,0.07754300267938524
1739817639683940900,1.40794091796875,-0.03637304362952709,-0.030113837104290723,0.08373316255640238
1739817639694009900,1.418009765625,0.0037789340168237684,-0.012839827024564146,0.08079853387661277
1739817639704078600,1.42807861328125,-0.02112520561516285,-0.04606441656053066,0.08093805194515734
1739817639714148900,1.43814892578125,-0.007449731484055519,-0.048355303976684805,0.09614515609033406
1739817639724217900,1.4482177734375,-0.0032891046732664107,-0.027942995871230957,0.10177998363953084
1739817639734287600,1.45828759765625,0.009542319849133491,-0.02832951097078621,0.10302136200275272
1739817639744356900,1.46835693359375,-0.02153378641605377,-0.024217910933494565,0.11101780411675571
1739817639754425900,1.47842578125,-0.04113397442102432,-0.00813522953018546,0.10058006979785859
1739817639764496000,1.488495849609375,-0.005606149443984031,0.0001958878982812166,0.09054846859443932
1739817639774564900,1.49856494140625,0.02127250513136387,0.005686082812398672,0.0890036503052339
1739817639784635000,1.508634765625,0.03475917869210243,-0.017687632381916046,0.09760054253041743
1739817639794703600,1.51870361328125,0.05789163247644901,-0.04245813569687307,0.1143209007827565
1739817639804772900,1.52877294921875,0.08520107968449592,-0.05368212502263486,0.12437723456863313
1739817639814842600,1.538842529296875,0.06597790829837322,-0.046704906421154734,0.12552501636426894
1739817639824912000,1.548911865234375,0.03921908071041107,-0.014715192442387342,0.1117582837531343
1739817639834981600,1.558981689453125,0.013986439776420593,-0.007115896419808268,0.104828484489955
1739817639845051000,1.56905078125,0.005865677163004875,-0.024156024678424,0.11327340102382004
1739817639855119600,1.57911962890625,0.02393792494833469,-0.040336248172074554,0.12806151257194578
1739817639865190000,1.58918994140625,0.07583820805549621,-0.029553645938262343,0.11607285901661962
1739817639875258600,1.599258544921875,0.1396697519749403,-0.04649688969366252,0.1315254623554647
1739817639885329000,1.609328857421875,0.22501637760996818,-0.05692826733700931,0.11448968147840351
1739817639895398000,1.61939794921875,0.21573767713308334,-0.060308630490303036,0.08650938580408692
1739817639905467000,1.629466796875,0.20206804822087288,-0.07655768143646419,0.08351575694605708
1739817639915537000,1.639536865234375,0.1782768382668495,-0.07472856631316244,0.085637096481584
1739817639925606000,1.64960595703125,0.12994739938378333,-0.08393361703194677,0.08969082885179668
1739817639935676000,1.659676025390625,0.12712240509092806,-0.10059658254124224,0.09616090164873749
1739817639945744600,1.66974462890625,0.12091828975379466,-0.11900076569467782,0.10289309598058462
1739817639955814000,1.67981396484375,0.1026169093877077,-0.09312540641035884,0.11130973626803606
1739817639965883600,1.689883544921875,0.0718821639060974,-0.09720368869993835,0.1244135114584118
1739817639975953000,1.699952880859375,0.0491126982152462,-0.10240735829025506,0.10794296324867754
1739817639986022700,1.710022705078125,0.07209259178638458,-0.09393770917393267,0.08471581691820174
1739817639996092000,1.720091796875,0.02972819878757,-0.0848539102146402,0.06675630879234522
1739817640006160600,1.73016064453125,-0.0575216301202774,-0.10028517850451171,0.07248257748465985
1739817640016231000,1.74023095703125,-0.14494681559503078,-0.1036133730791509,0.08800842872280627
1739817640026299600,1.750299560546875,-0.12280804902315139,-0.09932553969211876,0.11546773273032158
1739817640036370000,1.760369873046875,-0.06485504174828528,-0.0885068066990003,0.13022563180327415
1739817640046438700,1.770438720703125,-0.035191724890470504,-0.0861298849672079,0.11706336789131164
1739817640056508000,1.7805078125,-0.014577391406893729,-0.10776610884442925,0.14775847548227755
1739817640066577700,1.79057763671875,-0.012568389672040938,-0.11073029241226613,0.13555183179471642
1739817640076647000,1.80064697265625,-0.037034137886762616,-0.09960406437255441,0.16277038584891707
1739817640086717000,1.810717041015625,-0.040243747583031654,-0.1596970062855631,0.20587810802832246
1739817640096785700,1.82078564453125,0.02385433831810951,-0.21237042918968946,0.19903459880910812
1739817640106854700,1.830854736328125,0.07985738056898116,-0.1957886756904423,0.19969028623886406
1739817640116924700,1.840924560546875,0.09292553645670414,-0.1460110107604414,0.23299572245869785
1739817640126994000,1.850993896484375,0.0814981335133314,-0.13493991044145076,0.260426567556709
1739817640137063700,1.861063720703125,0.11828618768453597,-0.16857947398647666,0.2520573466075584
1739817640147133000,1.8711328125,0.14496961194872857,-0.19681089487764983,0.23857403404768554
1739817640157201700,1.88120166015625,0.18068331488668918,-0.1843715018801391,0.20729908074215053
1739817640167272000,1.89127197265625,0.22160218525230882,-0.17951379618328064,0.2044809911141172
1739817640177340700,1.901340576171875,0.23466508044302462,-0.1930456605926156,0.19348006995450703
1739817640187411000,1.911410888671875,0.2180132208496332,-0.18472963113542645,0.1781720627181232
1739817640197479700,1.921479736328125,0.1687660825997591,-0.15225856338050214,0.19225816347673536
1739817640207549000,1.931548828125,0.1350385850429535,-0.11845540677160024,0.21449491053037345
1739817640217618700,1.94161865234375,0.0787929662078619,-0.10886241618115454,0.19452040932029485
1739817640227688000,1.95168798828125,0.004071779483556747,-0.08351199408639222,0.12349051486197858
1739817640237757700,1.9617578125,-0.025176526832580565,-0.06655004563052207,0.05160126362796873
1739817640247826700,1.97182666015625,-0.0026648352950811383,-0.10347348968442528,-0.00639923605043441
1739817640257895700,1.981895751953125,0.06099661275446414,-0.15954097547363488,-0.08509356418941169
1739817640267965700,1.991965576171875,0.10185644640922546,-0.17802074461393058,-0.15114128632098436
1739817640278034700,2.00203466796875,0.11235796667933463,-0.1681343240348622,-0.18635463852137327
1739817640288104700,2.012104736328125,0.0863917507737875,-0.1541694385031238,-0.22416476574931293
1739817640298173700,2.022173583984375,-0.004635258585214614,-0.12612524727974087,-0.22285664229281246
1739817640308242700,2.03224267578125,-0.15637538758218286,-0.05966488922666758,-0.2131310382986441
1739817640318313000,2.04231298828125,-0.33121173000633714,0.022555969070643184,-0.21161442319061605
1739817640328381700,2.052381591796875,-0.4746610005199909,0.06709920394588262,-0.2512984545316547
1739817640338452000,2.062451904296875,-0.5370037671864032,0.07605316598042845,-0.3139946012130007
1739817640348520200,2.072520263671875,-0.5283516741752624,0.04752429651264101,-0.3826296364240348
1739817640358589200,2.082589111328125,-0.4524140973985195,-0.014245967495441436,-0.4394444334492087
1739817640368659200,2.0926591796875,-0.30979601701200005,-0.09140658326111734,-0.41648415789399296
1739817640378728200,2.102728271484375,-0.1275567048549652,-0.18616057725399732,-0.3702630894670263
1739817640388797200,2.112797119140625,0.005211597168445587,-0.2868858276762068,-0.31154713499564674
1739817640398867200,2.1228671875,0.07391922269165516,-0.3619589696433395,-0.23928422814365474
1739817640408936200,2.132936279296875,0.06026946752369403,-0.3249363395312801,-0.18510032761134207
1739817640419006200,2.143006103515625,-0.02415361352562904,-0.28963508985172953,-0.13374416131824254
1739817640429075200,2.1530751953125,-0.1723258209079504,-0.28385698137432336,-0.08295078000705688
1739817640439144200,2.163144287109375,-0.30967092932760715,-0.28789982702434064,-0.03774663353767246
1739817640449214200,2.173214111328125,-0.3642892392218113,-0.28638591533005237,0.009098558137007056
1739817640459283200,2.183283203125,-0.36381694553494454,-0.28550138758048416,0.06881554287709295
1739817640469353200,2.193353271484375,-0.30745676040947434,-0.31157095426265147,0.1152376503014937
1739817640479422200,2.203422119140625,-0.15063129097223282,-0.3429113374872133,0.13859554687216877
1739817640489491200,2.2134912109375,0.006654197192192077,-0.4110879979388788,0.13270835199709982
1739817640499561200,2.223561279296875,0.1881108345389366,-0.511019869493693,0.10856463881097733
1739817640509630200,2.233630126953125,0.4080249205738306,-0.5738804129565135,0.09345105816815048
1739817640519700200,2.2437001953125,0.5505342798888683,-0.6295517025023698,0.1074383747274056
1739817640529769200,2.253769287109375,0.6317459976762533,-0.689924484270066,0.09856054666899144
1739817640539838200,2.263838134765625,0.6512643526166677,-0.7150939968399703,0.05165387059804052
1739817640549908200,2.273908203125,0.6154945355772972,-0.6868295139294117,0.01125697827991098
1739817640559977200,2.283977294921875,0.5378647679299116,-0.6599899492554366,-0.017027962896786628
1739817640570047200,2.294047119140625,0.4434305804759264,-0.6375191742502152,-0.05406637509986758
1739817640580116200,2.3041162109375,0.335911870521307,-0.5859386246167123,-0.11578669901899993
1739817640590185200,2.314185302734375,0.19130407762229443,-0.5020595507835969,-0.17905366785824298
1739817640600255200,2.324255126953125,0.0828489636003971,-0.42414219836648553,-0.19947898157574234
1739817640610324200,2.33432421875,-0.017690554991364477,-0.3719035501504317,-0.22200477470383045
1739817640620394200,2.344394287109375,-0.1525917773902416,-0.3295993994388729,-0.25449794469270853
1739817640630463200,2.354463134765625,-0.21995266447961329,-0.26317298018801955,-0.2966542113661766
1739817640640532200,2.3645322265625,-0.19693185437619684,-0.27791422038711605,-0.3091815749080851
1739817640650602000,2.37460205078125,-0.17983984979987144,-0.3461227007491514,-0.2664928087931126
1739817640660671200,2.384671142578125,-0.15214637171030043,-0.37729751814845947,-0.20093849620167165
1739817640670740200,2.394740234375,-0.19080957210361957,-0.384684523127228,-0.13158873685002326
1739817640680810200,2.404810302734375,-0.24316402871906756,-0.4207469299050048,-0.0993062870023772
1739817640690879200,2.414879150390625,-0.2806383115887642,-0.4537056350464001,-0.07931267923302948
1739817640700949200,2.42494921875,-0.23632395356595515,-0.504206572749652,-0.07281352647207677
1739817640711018000,2.43501806640625,-0.16426584857106208,-0.5400153335599228,-0.07029653868246823
1739817640721087200,2.445087158203125,-0.04415595259070396,-0.6041201049301773,-0.0428748998042196
1739817640731157200,2.4551572265625,0.08818506393134594,-0.6724275521546602,-0.034896139477379615
1739817640741226200,2.465226318359375,0.16728958030641078,-0.7082929385229945,-0.04395524238683283
1739817640751296300,2.475296142578125,0.2357639815956354,-0.7417552092723548,-0.028463476081378756
1739817640761365200,2.485365234375,0.28530571887791156,-0.773705029632151,-0.02813285588752478
1739817640771434200,2.495434326171875,0.3345394131243229,-0.7964318252250552,-0.03534139902684837
1739817640781504300,2.505504150390625,0.3694564127266407,-0.7860222940873354,-0.03776248869393021
1739817640791573200,2.5155732421875,0.3870896845728159,-0.7377499191537499,-0.022101503301411866
1739817640801643000,2.52564306640625,0.3396002036452293,-0.6930960269782692,0.0016352365190163253
1739817640811712300,2.535712158203125,0.2991331687003374,-0.6992633905015886,0.015806714006140827
1739817640821781200,2.54578125,0.2985509848982096,-0.69510159464702,0.01902710082475096
1739817640831851300,2.555851318359375,0.2968278143674135,-0.6774078247852623,0.011206563266925514
1739817640841920300,2.565920166015625,0.29092122067213055,-0.658226738975197,-0.004890840781480074
1739817640851990300,2.575990234375,0.2899725416451692,-0.6725937025018036,-0.011009250596538185
1739817640862059000,2.58605908203125,0.28384558319747444,-0.7028815809987485,-0.028244937959872183
1739817640872128300,2.596128173828125,0.28977205063700673,-0.7333494191724806,-0.059473531373031435
1739817640882198000,2.606197998046875,0.3075263185143471,-0.7934386347584426,-0.08642378987986594
1739817640892267300,2.616267333984375,0.3251256880909204,-0.8544459150373935,-0.13088183068968354
1739817640902337300,2.626337158203125,0.3428986606687307,-0.8405848552063107,-0.1776975040089339
1739817640912406300,2.63640625,0.3239607359647751,-0.8241433504279703,-0.1921377519674599
1739817640922475000,2.64647509765625,0.24137772982418534,-0.8635241975713521,-0.23821466268338262
1739817640932545300,2.656545166015625,0.1472550925374031,-0.8664920344009995,-0.29754191745352
1739817640942614300,2.6666142578125,0.037353286838531494,-0.8674149944648146,-0.3235019228139892
1739817640952684300,2.676684326171875,-0.05622048439383506,-0.848351251424104,-0.3390377474568784
1739817640962753300,2.686753173828125,-0.15287059433162212,-0.8270365876514464,-0.33767431361656636
1739817640972822300,2.696822265625,-0.22415888399779796,-0.8110619697324931,-0.34195166214220224
1739817640982892300,2.706892333984375,-0.27948037372529505,-0.7635635748460888,-0.32152148958649485
1739817640992961300,2.716961181640625,-0.3509726615309715,-0.8732633551668375,-0.3064501406501978
1739817641003030300,2.7270302734375,-0.30445933215916154,-1.2079210609085858,-0.37082404781803485
1739817641013100000,2.73710009765625,-0.08402911329567432,-1.3369757492363452,-0.32726978744752705
1739817641023169300,2.747169189453125,-0.03153378690481186,-1.1346600098647177,-0.16504019394442437
1739817641033239000,2.757239013671875,-0.21394261040985582,-0.8819409479454159,-0.006626724663376808
1739817641043308300,2.767308349609375,-0.5887380460768937,-0.6808293236665427,0.0858497528515756
1739817641053377000,2.777376953125,-1.1005208627671004,-0.4310990682996809,0.1551382470026612
1739817641063447300,2.787447265625,-1.6478507936567066,-0.11860358307063579,0.2141314840454608
1739817641073516000,2.79751611328125,-2.2441683350771666,0.1348807641327381,0.22818360946923494
1739817641083586300,2.80758642578125,-2.583469263514876,0.2878890133693814,0.11994206513278186
1739817641093655000,2.817655029296875,-2.7484043896496293,0.4196151493960991,-0.030263401642814276
1739817641103724300,2.827724365234375,-2.9196435843646524,0.6113315341463312,-0.13410079273618758
1739817641113794000,2.8377939453125,-2.7738521346390246,0.7981510502330958,-0.16916761260535568
1739817641123863300,2.84786328125,-2.4432646740108726,0.899297594807297,-0.17462277273871005
1739817641133933300,2.857933349609375,-2.0289374384224415,0.8840158545233309,-0.2410135361542925
1739817641144002300,2.868002197265625,-1.5711340492010115,0.7861169135682284,-0.3459635281320661
1739817641154071000,2.878071044921875,-1.180737139776349,0.6193427354380489,-0.3406369262818247
1739817641164141000,2.88814111328125,-0.8023276052653789,0.47083545088246465,-0.2443160117657855
1739817641174210300,2.898210205078125,-0.15782383282482623,0.3168107911448926,-0.2207224798083305
1739817641184280000,2.908280029296875,0.5601169317483902,0.06196728441752493,-0.3398453375127166
1739817641194349300,2.918349365234375,1.1005892518281937,-0.16693082999661563,-0.30630254887305197
1739817641204418300,2.928418212890625,0.12392916200757026,-0.15540047813542188,-0.10349997583255172
1739817641214488300,2.93848828125,0.5097106865912675,0.16300912650823593,0.14805223426446318
1739817641224557000,2.94855712890625,2.499265962696075,-0.0072859192244708534,-0.016823928224667904
1739817641234626300,2.958626220703125,2.9356209056973457,-0.5325461301904172,-0.1400991563681513
1739817641244696000,2.968696044921875,3.293881970670819,-0.6137995682276784,0.5631869868434966
1739817641254765300,2.978765380859375,3.0380916846126316,-0.2659519068494439,1.0623917692504823
1739817641264835000,2.9888349609375,1.8104478322327135,-0.3000113397743553,1.2017008712194859
1739817641274904300,2.998904296875,1.2679121498823165,-0.3955735083449632,1.1178428767070174
1739817641284973000,3.00897314453125,0.7251543492138386,-0.04514445217140019,0.8385391747228801
1739817641295043300,3.019043212890625,0.21647709732353687,0.39263869700208304,0.23512108058221637
1739817641305112000,3.029112060546875,-0.13994272369742392,1.023226391488686,-0.2658412860818207
1739817641315182300,3.039182373046875,-0.35507892780601974,1.5922645155131816,-0.38559447757899756
1739817641325251000,3.0492509765625,-0.45474575521647925,1.9377876794666051,-0.3485536907557398
1739817641335320300,3.0593203125,-0.4494686915963888,2.104856164368242,-0.46015893937163055
1739817641345390000,3.06939013671875,-0.20677929465174674,2.073138399198651,-0.7069330483466386
1739817641355459300,3.079459228515625,-0.19868834265470503,1.9046825515918433,-0.4748163372121751
1739817641365529300,3.089529296875,-2.826666025459766,1.793042085532099,1.616046080856025
1739817641375598300,3.099598388671875,-1.278047759449482,1.9190316872008144,0.5689950886003673
1739817641385667300,3.109667236328125,-1.611320513638854,1.6198953036300836,0.23468232383877038
1739817641395737300,3.1197373046875,-0.8462135087430477,1.2708213153272867,0.31906054283306
1739817641405806300,3.129806396484375,-0.039322541084885594,0.7414512578897178,0.5786000984221696
1739817641415875300,3.139875244140625,0.5679886880367994,0.217577167519927,0.6895768398761749
1739817641425945600,3.149945556640625,0.9273457315534352,-0.08586202781125903,0.5028732417866587
1739817641436014300,3.160014404296875,0.8245797690838574,-0.015615940674394369,0.01003843280300498
1739817641446084600,3.170084716796875,0.5466419486254454,0.3385216146282852,-0.23952245734632013
1739817641456153300,3.1801533203125,0.38666298359334467,0.6636503714591264,-0.5321630491569638
1739817641466222600,3.19022265625,0.285593888169527,0.6226603355534375,-0.3115177262380719
1739817641476292400,3.200292236328125,0.2190203520655632,0.7052778284855187,0.4315712158560753
1739817641486361600,3.210361572265625,0.29089199457764625,0.5778922424137592,0.9229825679078698
1739817641496431400,3.220431396484375,0.2913479216516018,0.3604368015773594,1.0798980537161231
1739817641506500600,3.23050048828125,0.4444751210927963,0.2981504412733018,0.9961470267094671
1739817641516569300,3.2405693359375,0.58421326212883,0.3788854814596474,0.6872283770538866
1739817641526639400,3.250639404296875,0.585671644243598,0.4955604345552623,0.36746845377981663
1739817641536708400,3.260708251953125,0.4971346981346607,0.6155018421009183,0.3423207146503031
1739817641546778400,3.2707783203125,0.36959611345827575,0.6866776113033294,0.5831523548990488
1739817641556847400,3.280847412109375,0.2103974851489067,0.47831572363525626,0.5440177376016974
1739817641566916400,3.290916259765625,0.04965747261643409,0.3813745217964053,0.3184760209433734
1739817641576986400,3.300986328125,-0.07997662303447722,0.36139965526014567,0.2802193555243313
1739817641587055400,3.311055419921875,-0.02337035419344902,0.32002441942915316,0.3669762863487005
1739817641597124400,3.321124267578125,0.16094693328142165,0.26004706671983,0.38913887218758464
1739817641607194400,3.3311943359375,0.2849585128754377,0.2648115046426654,0.33113340407311914
1739817641617263400,3.341263427734375,0.31458909650743005,0.2950288021214306,0.26906777384765446
1739817641627333400,3.35133349609375,0.2516197223752737,0.24733546918481586,0.34916239723861214
1739817641637402400,3.36140234375,0.20162498062849044,0.13377455645650624,0.4268386343762278
1739817641647471400,3.371471435546875,0.31155192076861854,-0.08951689705699682,0.3736615362662822
1739817641657541600,3.381541748046875,0.4040951799094677,-0.2793500253438949,0.22882285722084342
1739817641667610400,3.3916103515625,0.42291795380115504,-0.34657281913682814,0.10734057690873741
1739817641677680400,3.401680419921875,0.4654676402390003,-0.21816621945425868,0.12106222826912999
1739817641687749400,3.411749267578125,0.5258101729989052,0.041390141139179465,0.2009166862286627
1739817641697818600,3.421818603515625,0.5314981555074453,0.29402035573124885,0.0699492961473763
1739817641707888400,3.431888427734375,0.39791386092603204,0.3753706052064895,-0.17872012505494056
1739817641717957400,3.441957275390625,-0.03634849371016025,0.40018472846746445,-0.5432151890471577
1739817641728027400,3.45202734375,-0.35596857012212274,0.1761617458090186,-0.38697811395712195
1739817641738096400,3.462096435546875,-0.5142576823711394,-0.08945347643196583,0.07762699116840958
1739817641748165400,3.472165283203125,-0.3823544727444649,-0.210602067810297,0.6487752392146736
1739817641758235400,3.4822353515625,-0.08695172274410724,-0.28298399793207646,0.7125002540197223
1739817641768304400,3.492304443359375,0.1759381661862135,-0.34646935876235363,0.43041568914540107
1739817641778373400,3.502373291015625,0.28763737669587136,-0.26139482806697484,0.13149543254338203
1739817641788443400,3.512443359375,0.4496989932209253,-0.07342369425967335,0.2074331554505974
1739817641798512400,3.522512451171875,0.6716477999538183,-0.10274404289871454,0.588201966438815
1739817641808582400,3.53258251953125,0.6795195562422275,-0.206728441247344,0.7118178247135132
1739817641818651400,3.5426513671875,0.7029729125440121,-0.2139168914467096,0.7461771173678338
1739817641828720400,3.552720458984375,0.6034405251681805,-0.19746230799108744,0.6677977734621614
1739817641838790400,3.562790283203125,0.44393385382294653,-0.19966887812465428,0.6820102770794183
1739817641848859400,3.572859375,0.28772213236987587,-0.476214367441833,0.7636965535759925
1739817641858929400,3.582929443359375,0.1777542756974697,-0.5989562193609774,0.48756096023395656
1739817641868998400,3.592998291015625,0.24359482135176658,-0.6192451202824711,0.28566434132354335
1739817641879067400,3.6030673828125,0.1985807906270027,-0.5947855095475911,0.23077347983196375
1739817641889137400,3.613137451171875,0.18338088340759276,-0.501653052341938,0.08396490721935405
1739817641899206400,3.623206298828125,0.24047698159217834,-0.6246541397191584,-0.13173990882374345
1739817641909275400,3.633275390625,0.2497282095402479,-0.8291881396621466,-0.1847832975514233
1739817641919345400,3.643345458984375,0.5565548553526402,-0.5478061700992286,-0.18757899268455802
1739817641929414400,3.653414306640625,0.6255611715614795,-0.795489429808408,0.28452264220882206
1739817641939484400,3.663484375,0.4947743987441063,-1.2698068775877356,0.28193353903107343
1739817641949553400,3.673553466796875,0.9208166220456361,-1.024421665687859,0.5245248824287205
1739817641959622400,3.683622314453125,0.43584056373834607,-0.8199316510170698,0.2154639747582376
1739817641969692400,3.6936923828125,-0.09604162265062331,-0.705182989808917,-0.11240257300604134
1739817641979761400,3.703761474609375,-0.31019290737509725,-0.44215931843109424,-0.19217589202076196
1739817641989831400,3.71383154296875,0.020030980637669563,-0.726483259730041,-0.28395214884448794
1739817641999900400,3.723900390625,0.2055617355555296,-0.9245502556160092,-0.22551539490697903
1739817642009969400,3.733969482421875,0.23078034796416758,-0.801314628830552,-0.023791849274840203
1739817642020039400,3.744039306640625,0.13360767545700072,-0.5747855816353112,0.09680349213490262
1739817642030108400,3.7541083984375,0.002540332132577896,-0.5158279273625463,0.10251022500968537
1739817642040177400,3.764177490234375,-0.04382803581058979,-0.536494210229069,0.11357413753606378
1739817642050247400,3.774247314453125,-0.023728666111826894,-0.6416719100154936,0.08995631138756871
1739817642060316400,3.78431640625,-0.09409516475796699,-0.7440566180825233,0.10709596363105811
1739817642070386400,3.794386474609375,-0.22724282148778438,-0.7038857896052301,0.16181440029833466
1739817642080455400,3.804455322265625,-0.3849246154934168,-0.5896110295191407,0.21975403663497417
1739817642090524400,3.8145244140625,-0.474869674834609,-0.3570025893449783,0.24842481705779207
1739817642100594400,3.824594482421875,-0.6448270130455493,-0.044142070195823904,0.18146714047444984
1739817642110663400,3.834663330078125,-0.9144979404181242,0.20970964901521802,0.2780345588311553
1739817642120733400,3.8447333984375,-1.1447867054730654,0.45328415823131796,0.37931064806915815
1739817642130802400,3.854802490234375,-1.5598130292415617,0.6623578474305569,0.18850615399945525
1739817642140871400,3.864871337890625,-1.931930185610056,0.7730866785380989,-0.05962305937893688
1739817642150941400,3.87494140625,-2.089388107731938,0.7916448832094669,-0.20569553626934065
1739817642161010400,3.885010498046875,-2.1427064409434795,0.7037896357543766,-0.35439167619422074
1739817642171079400,3.895079345703125,-2.0343623860806224,0.5108988003972917,-0.4115819920009002
1739817642181149400,3.9051494140625,-1.7181471496760845,0.28214316319376226,-0.3285380903502926
1739817642191218400,3.915218505859375,-1.2759732912629842,0.24427564322277903,-0.20288696338832377
1739817642201288400,3.925288330078125,-0.8423346214830875,0.22891974172405896,-0.13677178377741947
1739817642211357400,3.935357421875,-0.4841805240154266,0.12462554677389562,0.004106250292027835
1739817642221426400,3.945426513671875,-0.1150175412774086,0.05472798081375658,0.11406820466332136
1739817642231496400,3.955496337890625,0.17722469886541364,0.026825243887677788,0.14235647030826656
1739817642241565400,3.9655654296875,0.3430003674775362,0.08223674998618662,0.10552669588718562
1739817642251634400,3.975634521484375,0.430437827911973,0.13275829208604992,0.1053855612502899
1739817642261704400,3.985704345703125,0.47428690651059147,0.22576734210774302,0.10290260359444654
1739817642271773400,3.9957734375,0.37485447237789626,0.24863946445547042,0.08510718172281048
1739817642281843500,4.005843505859375,0.19115736262798308,0.2761753408305347,0.1305598869926296
1739817642291912200,4.015912109375,0.20514964762330054,0.3677079616241157,0.15527739974502472
1739817642301981400,4.0259814453125,0.268922739353776,0.5584112238090485,0.16951361303143203
1739817642312051200,4.03605126953125,0.24260230318307874,0.7473758986983448,0.1339142389218323
1739817642322120400,4.046120361328125,0.18556524170935154,0.8698903716024011,0.055955805575661356
1739817642332190500,4.0561904296875,0.18155542154610155,0.9276019713368266,-0.029676432067714628
1739817642342259500,4.066259521484375,0.16980419347584247,0.9920794850096106,-0.08192662459108978
1739817642352328000,4.076327880859375,0.15259528452157972,1.0708668982595204,-0.11755896938852965
1739817642362398000,4.08639794921875,0.21670856799185276,1.1341847935684024,-0.15659812695477157
1739817642372466700,4.096466796875,0.3280722629368305,1.17387675248757,-0.1915032899888232
1739817642382536000,4.106535888671875,0.42988136307299135,1.1684119112104177,-0.2509619891189039
1739817642392605700,4.116605712890625,0.49624856294989583,1.1110869727060197,-0.32160259199868885
1739817642402675000,4.126675048828125,0.4592892438650131,1.0399486859697848,-0.453147270511277
1739817642412744700,4.13674462890625,0.36263504227399823,0.9784425893232226,-0.5893839427649974
1739817642422814000,4.14681396484375,0.23370588002204892,0.9074228874653577,-0.6627377866588533
1739817642432882700,4.156882568359375,0.11167875224351882,0.7894966921996325,-0.6655820701740681
1739817642442953000,4.166952880859375,0.056150341767072676,0.6552431931197643,-0.6384156846985221
1739817642453021700,4.177021728515625,0.004017418947815895,0.5480981387831271,-0.6227304051149636
1739817642463091000,4.187091064453125,-0.04135959987044334,0.49530156442336737,-0.603568608527258
1739817642473160700,4.19716064453125,-0.11440905399024486,0.4487998524241149,-0.5745051572587341
1739817642483230000,4.20722998046875,-0.15947627620697022,0.4503673209365457,-0.5406141397032886
1739817642493299700,4.2172998046875,-0.13414134394228458,0.4589077702667564,-0.5495835550352931
1739817642503369000,4.227368896484375,-0.0927092633575201,0.4353222389526665,-0.5325368509054184
1739817642513437700,4.237437744140625,0.0020335516542196275,0.3388637791294604,-0.46911885622292754
1739817642523507700,4.2475078125,0.12486322798728942,0.2108525354400277,-0.42840223043113945
1739817642533576700,4.25757666015625,0.262848387876153,0.062060223397985094,-0.36698045106716454
1739817642543646000,4.26764599609375,0.4174579348295927,-0.05216149132661521,-0.31461956471092994
1739817642553715700,4.2777158203125,0.5656687206566333,-0.09495711534954607,-0.26051103096976874
1739817642563785000,4.287784912109375,0.6881213803708552,-0.08597856686301529,-0.2162234148234129
1739817642573855000,4.29785498046875,0.7694429882735013,-0.05912351235896349,-0.17954466624557971
1739817642583923700,4.307923828125,0.8025397867113352,-0.12158252581618725,-0.09862743789274245
1739817642593992700,4.31799267578125,0.7232189972370863,-0.08984992840364575,-0.050952626993507145
1739817642604062700,4.328062744140625,0.5909224043786525,-0.037915231570228934,0.007892104956693947
1739817642614132000,4.338132080078125,0.44276656360924244,0.01566862070970237,0.06713131611719728
1739817642624200700,4.34820068359375,0.3102519440859556,0.05658566444441676,0.093994663525559
1739817642634271000,4.35827099609375,0.18159516903460024,0.08553359957449137,0.09472067624516785
1739817642644339700,4.368339599609375,0.054337739387154575,0.11119279535748064,0.09909311917573213
1739817642654410000,4.378409912109375,-0.03293547039628029,0.138096219047904,0.06531290505100042
1739817642664478700,4.388478759765625,-0.10330898330509662,0.19846176735721527,0.003805785491131246
1739817642674548000,4.3985478515625,-0.13692600622475146,0.18611440002471208,-0.034709786592423915
1739817642684617700,4.40861767578125,-0.14758476288318634,0.1343122435297817,-0.03587470218595117
1739817642694687000,4.41868701171875,-0.1832575492888689,0.0705420378761366,-0.07220259149949997
1739817642704755700,4.428755615234375,-0.158100311678648,-0.029736966615915298,-0.11347217499893159
1739817642714826000,4.438825927734375,-0.043406011006236075,-0.16310173669513314,-0.1463417040195316
1739817642724894700,4.448894775390625,0.10522329249382019,-0.3108251773966476,-0.18190233528763056
1739817642734964700,4.45896484375,0.2509679804682731,-0.4343785648943856,-0.191981830753386
1739817642745033700,4.46903369140625,0.3477560375720262,-0.505131943966262,-0.18070121586956084
1739817642755103000,4.47910302734375,0.38318975452482695,-0.550045875317417,-0.136813558826223
1739817642765172700,4.4891728515625,0.3328220878124237,-0.5912337718827649,-0.09536014319248497
1739817642775241700,4.49924169921875,0.2588227856218815,-0.6085878979939967,-0.0779767544541508
1739817642785310700,4.509310791015625,0.18212123873531819,-0.6149723383340984,-0.04030314962007105
1739817642795380700,4.519380615234375,0.06401742188036441,-0.6099910427901893,0.0032400048345327375
1739817642805449700,4.52944970703125,-0.04226502427756786,-0.6114755091942846,0.016994389420747755
1739817642815519700,4.539519775390625,-0.1264332537829876,-0.6162561675995588,0.029947175300493834
1739817642825589000,4.549589111328125,-0.1912269207328558,-0.5858530652251094,0.04890585053153336
1739817642835657700,4.55965771484375,-0.23810206915438173,-0.5386181070478633,0.0687354633782059
1739817642845728000,4.56972802734375,-0.24513795914053915,-0.522556504965201,0.09484985558278858
1739817642855796700,4.579796630859375,-0.24159517196714878,-0.49646143851559604,0.06098864864371717
1739817642865865700,4.58986572265625,-0.24680384652614593,-0.44409806794133033,-0.0029151567943394184
1739817642875935700,4.599935791015625,-0.27621815705895425,-0.3977466876655817,-0.0641476241312921
1739817642886005000,4.6100048828125,-0.3287251738876104,-0.3849094179242849,-0.0904794584788382
1739817642896073700,4.62007373046875,-0.3431242861181497,-0.4121344747845083,-0.11403927082978188
1739817642906144000,4.63014404296875,-0.33705811794698237,-0.4682883967481553,-0.17558299607299266
1739817642916212700,4.640212646484375,-0.2345744795501232,-0.5441923269836232,-0.22695779400132596
1739817642926283000,4.650282958984375,-0.03527063534557819,-0.614645371402055,-0.2365969252884388
1739817642936351700,4.660351806640625,0.17026479672491548,-0.655778907431662,-0.26795126397311686
1739817642946421000,4.6704208984375,0.32785598983764647,-0.6890839417926967,-0.3357813760094344
1739817642956490800,4.68049072265625,0.4333633599698543,-0.7203931261613965,-0.38631723889559505
1739817642966560000,4.69056005859375,0.48568742144703864,-0.7355449564553797,-0.42718116420358415
1739817642976628700,4.700628662109375,0.4424404003947973,-0.7132737226102501,-0.43991979587599633
1739817642986698800,4.71069873046875,0.34022973372042176,-0.6908689255133271,-0.390382150246948
1739817642996767700,4.720767822265625,0.20218904425203799,-0.6763381497271359,-0.306399944832921
1739817643006837800,4.730837646484375,0.0847445680886507,-0.7115697682365775,-0.17035218274742364
1739817643016906800,4.74090673828125,0.07321370477080345,-0.9141868286423385,-0.022740604922547935
1739817643026975700,4.750975830078125,0.026268413722515104,-1.0891485510118306,0.04034121660813689
1739817643037045800,4.761045654296875,-0.14626023628115653,-0.9659436846908181,0.01478168180733919
1739817643047114800,4.77111474609375,-0.3361111924856901,-0.6351600439034402,0.04070186661407351
1739817643057183700,4.781183837890625,-0.5803296986937523,-0.37899398333542045,0.153750153645128
1739817643067253800,4.791253662109375,-0.9079992260485887,-0.2029356979008764,0.2470852207507938
1739817643077322800,4.80132275390625,-1.2783838595360517,-0.054948893555440005,0.288905716131255
1739817643087392800,4.811392822265625,-1.5732921040177343,0.1340422674819827,0.24226386500895022
1739817643097462000,4.8214619140625,-1.761425150388479,0.3097935327939689,0.12112623341605067
1739817643107530800,4.83153076171875,-1.762757275775075,0.4449241069693118,-0.0036591800946742296
1739817643117601000,4.84160107421875,-1.5226327608823775,0.4484963759655133,-0.11001702957637607
1739817643127669800,4.851669677734375,-1.04660397914052,0.3224897500967607,-0.22216617581062018
1739817643137739000,4.861739013671875,-0.5245528664141893,0.2041494576048106,-0.3364871131259948
1739817643147808800,4.871808837890625,-0.08159341058135032,0.1540721521411091,-0.38961496526673434
1739817643157878000,4.8818779296875,0.28028701393306255,0.14788867773320524,-0.3435883234333247
1739817643167946800,4.89194677734375,0.4611024307668209,0.1495017389530316,-0.2721215353950858
1739817643178017000,4.90201708984375,0.4605728539347648,0.15514774548336863,-0.22985987211838363
1739817643188085800,4.912085693359375,0.36936581183373923,0.13965689249336719,-0.21742427851315588
1739817643198155800,4.92215576171875,0.16642390338778495,0.11471366296000778,-0.252047154007107
1739817643208224800,4.932224853515625,-0.11049801802635192,0.1443170663241297,-0.28192827833406625
1739817643218294000,4.9422939453125,-0.3780219964981079,0.23893578003216534,-0.24835290259905157
1739817643228363800,4.95236376953125,-0.5690612857043743,0.3576123552737757,-0.13424392753392458
1739817643238432800,4.962432861328125,-0.6956652198791503,0.47171248944532124,0.027877383289113638
1739817643248501800,4.972501708984375,-0.7507873876422643,0.5630387740118429,0.19340945240370927
1739817643258571800,4.98257177734375,-0.7485358093231916,0.6607290771849453,0.3014493366882205
1739817643268640800,4.992640869140625,-0.7019511682808399,0.7481747209258377,0.37228089556284244
1739817643278710000,5.0027099609375,-0.6544605183094739,0.7806653701640665,0.389827292843163
1739817643288779800,5.01277978515625,-0.5910042374432086,0.7970525144066661,0.37452012585699557
1739817643298848800,5.022848876953125,-0.465781528493762,0.8166751334391534,0.33380255021713673
1739817643308918800,5.032918701171875,-0.23728549207448957,0.8031594529796391,0.27606654669381675
1739817643318987800,5.04298779296875,0.04755085572600364,0.757514577005431,0.23895327915623782
1739817643329056800,5.053056884765625,0.32756022176146504,0.7059213870860636,0.2471439652007073
1739817643339126800,5.063126708984375,0.5977841068416834,0.6715174515724182,0.2854629552662372
1739817643349195800,5.07319580078125,0.8117021673321724,0.7110242631830275,0.30195275616571304
1739817643359268600,5.0832685546875,0.9014572570592164,0.8093116189338266,0.3327304640062153
1739817643369338600,5.093338623046875,0.8679244052916765,0.89752488604635,0.36804552301540966
1739817643379407600,5.10340771484375,0.7515484351426363,0.9737592538125812,0.4039159508850425
1739817643389476600,5.1134765625,0.5511930360585451,0.994930198265612,0.44355289168134326
1739817643399546600,5.123546630859375,0.38272856675386424,0.9992450657900422,0.46236857824511823
1739817643409615600,5.13361572265625,0.255582196265459,1.0157971913360058,0.4702531940151006
1739817643419685600,5.143685546875,0.20455226625204084,1.026697940056771,0.5044292390570044
1739817643429754400,5.15375439453125,0.18547873246967791,1.0913408734243362,0.49567741199843585
1739817643439823600,5.16382373046875,0.13949731801748275,1.1639213217929005,0.5225755019266158
1739817643449893400,5.173893310546875,0.07317278823852538,1.158869518296048,0.5556063224561513
1739817643459962600,5.183962646484375,-0.0006792144358158111,1.1376695669442414,0.5523376760490238
1739817643470031600,5.194031494140625,-0.059201546031236646,1.0697086681351065,0.5491213443510234
1739817643480101600,5.2041015625,-0.09296762203276157,1.0121136074524373,0.4711965392798185
1739817643490170400,5.21417041015625,-0.0727490098685026,0.9238709681149572,0.3950836790014058
1739817643500239600,5.224239501953125,-0.02062836200892925,0.8237882533799856,0.3526518467895686
1739817643510309400,5.234309326171875,0.05105740254223346,0.7143668516092002,0.29938129824250936
1739817643520378600,5.244378662109375,0.13321546126902103,0.6484837089221924,0.2551550568945706
1739817643530448600,5.25444873046875,0.15258008695244787,0.6255276346180587,0.24584186962619423
1739817643540517600,5.264517578125,0.10126432573497295,0.6475639637287706,0.22310564861781892
1739817643550586400,5.27458642578125,0.020818916144967076,0.6400066071517765,0.22038930233120918
1739817643560656600,5.28465673828125,-0.03525952942967415,0.5759489993914961,0.20989041240960357
1739817643570725600,5.2947255859375,-0.0063899932980537415,0.45321668248567726,0.16656879175119102
1739817643580794600,5.304794677734375,0.08442541913688183,0.3298523878192529,0.13715316604413091
1739817643590864600,5.31486474609375,0.21649404845833778,0.22539715708848088,0.15488514902442693
1739817643600933600,5.32493359375,0.3468336620301008,0.14399389878436922,0.1593662399612367
1739817643611002600,5.335002685546875,0.4492255304902792,0.0663639484738931,0.1537563641902059
1739817643621072600,5.34507275390625,0.5350526331186294,-0.017468509738519787,0.13967472041100262
1739817643631141600,5.3551416015625,0.5624164408624172,-0.05323723079934716,0.14964140315204857
1739817643641211400,5.36521142578125,0.5614788677513599,-0.03872179871276021,0.18569054858945308
1739817643651280600,5.37528076171875,0.5070189632892609,0.03659150868579745,0.22270283997058868
1739817643661349600,5.385349609375,0.40951311330497264,0.14350680938716978,0.2286721236385405
1739817643671419600,5.395419677734375,0.27195933057069777,0.22151706425212322,0.2538881787639111
1739817643681488600,5.405488525390625,0.11735036813914775,0.266464861340262,0.28574513320848344
1739817643691557600,5.4155576171875,-0.041376551005244254,0.31149310325346885,0.273731089483574
1739817643701627400,5.42562744140625,-0.12783259918689727,0.329699571877718,0.25777422641701997
1739817643711696600,5.435696533203125,-0.14556231714487075,0.35281185965687034,0.25871720635555684
1739817643721765600,5.445765625,-0.12742869456112385,0.38790772295743225,0.2441809506766498
1739817643731835600,5.455835693359375,-0.06734452047646046,0.3909676585173234,0.23296821339726448
1739817643741904400,5.465904296875,0.004295066845417022,0.33643278912287206,0.23029132233820854
1739817643751973600,5.4759736328125,0.0890402194559574,0.24023082481138408,0.22967647837549446
1739817643762043400,5.48604345703125,0.1997662010192871,0.11067370338682085,0.2422130846697837
1739817643772112600,5.496112548828125,0.31798750677406784,0.005764554876089096,0.21661351011954247
1739817643782182700,5.5061826171875,0.429637617444992,-0.06678758071344346,0.1670891623634845
1739817643792251600,5.516251708984375,0.5263724830567836,-0.13257913612686098,0.15840207110419868
1739817643802320400,5.5263203125,0.5725730932176113,-0.22177513066641985,0.17712416110038756
1739817643812390700,5.536390625,0.6372469331800937,-0.3178068164449185,0.15757555715218186
1739817643822459400,5.54645947265625,0.6601140140265226,-0.3893658493438735,0.10474639569707214
1739817643832528600,5.556528564453125,0.6190379072725772,-0.4502925021346658,0.06979834336936473
1739817643842598700,5.5665986328125,0.5533312171310186,-0.4989723984232172,0.04337020904049277
1739817643852667600,5.576667724609375,0.4751245263785124,-0.4956907829366624,0.01447173907533288
1739817643862736400,5.586736328125,0.3350006008952856,-0.4732447405138984,-0.014271540328115223
1739817643872806700,5.596806640625,0.17012217338383198,-0.4411778331130743,-0.014741203666478395
1739817643882875600,5.606875732421875,0.046888007903099056,-0.38290940321348604,0.024926351463794707
1739817643892944600,5.616944580078125,-0.06749298903644084,-0.3587616349067539,0.07844824442341923
1739817643903014700,5.6270146484375,-0.17369243308603763,-0.33840628115292637,0.13482903394550083
1739817643913083600,5.637083740234375,-0.19504092606306075,-0.33021661802176383,0.14679368557073175
1739817643923153700,5.647153564453125,-0.10266600922644138,-0.3427346292134374,0.15485468082092702
1739817643933222700,5.65722265625,0.04736322419941425,-0.39696854289993644,0.13899440999664364
1739817643943291600,5.667291748046875,0.1687391945928335,-0.4237133784951642,0.1605995080832392
1739817643953361400,5.677361328125,0.2578571554601192,-0.463812310780026,0.19777100861407815
1739817643963430700,5.6874306640625,0.30275895798206326,-0.504481078842096,0.20822730150297283
1739817643973499600,5.697499755859375,0.30529519846141334,-0.5325322843281551,0.19954525174498558
1739817643983569700,5.707569580078125,0.302759542503953,-0.5646551596999168,0.19428228971548378
1739817643993638400,5.717638427734375,0.28133681524693965,-0.5656742370819673,0.16582053066715596
1739817644003707600,5.727707763671875,0.2450496963351965,-0.5674236745651811,0.12281447876393795
1739817644013777400,5.73777734375,0.21892039882242678,-0.5937078338460996,0.10163790828771889
1739817644023846700,5.7478466796875,0.21884733358621597,-0.6558398438386619,0.09983429293185472
1739817644033915400,5.757915283203125,0.22250644061565397,-0.7178479717232287,0.08194127417095005
1739817644043985700,5.767985595703125,0.23580022195279596,-0.78045377324,0.08080657105259596
1739817644054054400,5.778054443359375,0.222135269215703,-0.8212025477357209,0.04828282326236367
1739817644064123600,5.78812353515625,0.2123620632201433,-0.9149714031487702,0.03236665753237903
1739817644074193400,5.798193359375,0.2267144136995077,-1.1548355866048485,0.007027706679701804
1739817644084262700,5.8082626953125,0.18945523488521576,-1.334762457101047,-0.015434081301465629
1739817644094332400,5.81833251953125,-0.0002291325807571411,-1.2773964559338986,-0.06161226043477654
1739817644104401700,5.828401611328125,-0.2652700620651245,-1.074271153745055,-0.05214264049567282
1739817644114470400,5.838470458984375,-0.5213134461015463,-0.8042332196909934,0.0043399289004504675
1739817644124540700,5.848540771484375,-0.9522405188351869,-0.534486158342287,0.12803199421651662
1739817644134609400,5.858609375,-1.4063082286596298,-0.25562961560375985,0.2418749752892181
1739817644144678700,5.8686787109375,-1.8480892883628606,0.08456793288011104,0.36215102161671964
1739817644154748700,5.878748779296875,-2.293504320654273,0.4075896709617227,0.5226344655722379
1739817644164817700,5.888817626953125,-2.7086475488007067,0.6743063516385853,0.6360035089902579
1739817644174886400,5.898886474609375,-2.9939655426383016,0.7801846739750355,0.6902174758672713
1739817644184956700,5.908956787109375,-3.058183455526829,0.7340439042426645,0.6459814437776804
1739817644195025700,5.919025634765625,-2.8562667984753847,0.6051558046534657,0.5314100388325751
1739817644205094700,5.9290947265625,-2.4203484933257102,0.4742634891023859,0.42154330444708465
1739817644215164700,5.93916455078125,-1.8904285469204187,0.3998087347619235,0.34051709929443896
1739817644225233700,5.949233642578125,-1.2791671188682316,0.3623204598994925,0.29449564509280024
1739817644235302700,5.959302734375,-0.6803273654937744,0.2992183627657592,0.22029921289496124
1739817644245372400,5.969372314453125,-0.16371464442908762,0.23219832500331103,0.14659034501835702
1739817644255441700,5.979441650390625,0.23597557851970194,0.168755999597162,0.0777257023025304
1739817644265510700,5.9895107421875,0.5006371532976627,0.15065905576199293,-0.0049267888776957985
1739817644275580700,5.99958056640625,0.6068541330039501,0.1614407081477344,-0.08143398223593831
1739817644285649700,6.009649658203125,0.5729501098364591,0.20882972437553107,-0.16932594497222453
1739817644295719700,6.0197197265625,0.49293490835726256,0.28907135502174497,-0.30415180057995017
1739817644305788400,6.029788330078125,0.41733167810142036,0.39492958441823717,-0.4132839736131951
1739817644315857700,6.039857666015625,0.2904921816051006,0.5380510112170129,-0.491533517126739
1739817644325927400,6.049927490234375,0.21469898173511026,0.656238780028373,-0.5555110819207504
1739817644335996700,6.05999658203125,0.23206220446825027,0.747658076640591,-0.609246508033201
1739817644346065400,6.0700654296875,0.2374929973453283,0.886653290354833,-0.5770393519114703
1739817644356132900,6.0801328125,0.2879915969610214,1.046035239341855,-0.5173385876538231
1739817644366201900,6.090201904296875,0.3782224875062704,1.1779986547231673,-0.4636454663131386
1739817644376270800,6.100270751953125,0.510095886516571,1.2951137528017163,-0.3853426217097789
1739817644386340900,6.1103408203125,0.6200485456198453,1.2902172129318117,-0.3520522003959864
1739817644396409900,6.120409912109375,0.6939017173379659,1.332019003611803,-0.2911016552729532
1739817644406478800,6.130478759765625,0.7581207992702722,1.332326754386723,-0.27990491928029804
1739817644416548600,6.140548583984375,0.8259019575983285,1.2852940773159265,-0.3082738854786381
1739817644426617900,6.150617919921875,0.8689631006896495,1.1939227114986628,-0.349688101613149
1739817644436686800,6.160686767578125,0.8609294318377971,1.108778549633175,-0.39129199510086327
1739817644446756900,6.1707568359375,0.8160171079218387,1.0069041291758418,-0.434503469915688
1739817644456825900,6.180825927734375,0.7224088498979806,0.9758400786746293,-0.47291291474364694
1739817644466894800,6.190894775390625,0.5344780481010675,1.013869657339528,-0.49502413572147486
1739817644476964600,6.200964599609375,0.31793139267265796,1.0250185356024653,-0.49628443798087535
1739817644487033900,6.211033935546875,0.10054653285443782,0.9874971987206488,-0.5189066772207618
1739817644497102800,6.221102783203125,-0.08203238652050494,0.8888857986472547,-0.538931666509062
1739817644507172900,6.2311728515625,-0.21755612473189828,0.7911882254831493,-0.5071161035208032
1739817644517241600,6.24124169921875,-0.2732826881289482,0.6826958481907844,-0.44862310761772095
1739817644527312000,6.251311767578125,-0.2782183909654617,0.6043862815856933,-0.38981348351351913
1739817644537380600,6.261380615234375,-0.16731237666010856,0.522933229323104,-0.3248561869671568
1739817644547449900,6.271449951171875,0.033570845690369604,0.42274815019220113,-0.26061445481162515
1739817644557519600,6.28151953125,0.279791923892498,0.2868442535568029,-0.18040522859767077
1739817644567588900,6.2915888671875,0.5209814376682043,0.13839490973353386,-0.09524722086992114
1739817644577657600,6.30165771484375,0.761401720637083,0.002874824783951044,-0.0622891002504155
1739817644587728000,6.311727783203125,0.9595423662811517,-0.07345313954986632,-0.037587424387969075
1739817644597796600,6.321796630859375,1.1357049888730049,-0.1483480023406446,0.006384659535810351
1739817644607865900,6.331865966796875,1.2597317660361527,-0.20833799533583222,0.05411101795919239
1739817644617936000,6.341935791015625,1.2901479470878838,-0.26097075743600723,0.11297039948925375
1739817644628004900,6.3520048828125,1.2346546079248188,-0.29085049352347847,0.15285605434961616
1739817644638073600,6.362073486328125,1.082895189705491,-0.2924448500428349,0.15607318976521492
1739817644648144000,6.372143798828125,0.853902309679985,-0.23076310456842183,0.1431661061907187
1739817644658212900,6.382212890625,0.5769938322693109,-0.05095628025531768,0.1798342968419194
1739817644668281900,6.39228173828125,0.3018354133963585,0.06834646406061946,0.14161368911694736
1739817644678352000,6.402351806640625,0.05188683910369873,0.16907646372318266,0.011990480186231434
1739817644688420900,6.4124208984375,-0.20056699600815772,0.2648842045526951,-0.13604823700953275
1739817644698489600,6.422489501953125,-0.4554278922617435,0.33053806852847334,-0.2367300136161968
1739817644708560000,6.432559814453125,-0.6668214027106761,0.3392436452925205,-0.3093461178200319
1739817644718628900,6.44262890625,-0.7966875535517931,0.23405078446958213,-0.3616830753114074
1739817644728697900,6.45269775390625,-0.7886211514741182,0.00975618179552257,-0.36594033089708533
1739817644738768000,6.462767822265625,-0.6267910056173801,-0.20688615255970508,-0.374325151274167
1739817644748836900,6.4728369140625,-0.33088965844511986,-0.370533321243152,-0.4065806765822694
1739817644758905900,6.48290576171875,0.035730069550871844,-0.5033632537933066,-0.44286596886310725
1739817644768975600,6.4929755859375,0.38950843615233893,-0.6170392077360302,-0.458461597401835
1739817644779044900,6.503044921875,0.5972469312250613,-0.7247664458747953,-0.4453735312372446
1739817644789113900,6.51311376953125,0.6748889738321304,-0.8345032702703028,-0.4164507670810446
1739817644799184000,6.523183837890625,0.6467237865775823,-0.921963015601784,-0.3817043382726609
1739817644809252900,6.5332529296875,0.4778326162934303,-0.9086828974638134,-0.33721553699839857
1739817644819321900,6.54332177734375,0.2564063721299171,-0.869690392050892,-0.2534654963724315
1739817644829391600,6.5533916015625,0.07580664387345314,-0.8113605873528867,-0.12350436072424054
1739817644839460900,6.5634609375,-0.012512275570631027,-0.7670582120288163,0.010023746690526605
1739817644849530600,6.573530517578125,-0.053068157842755315,-0.7258833941407501,0.07100618478916584
1739817644859600000,6.583599853515625,-0.03193359987735748,-0.6447005371216684,0.1301611882649362
1739817644869668600,6.593668701171875,-0.006607435441017151,-0.5667827463131397,0.14980930706486106
1739817644879737900,6.60373779296875,-0.0012818565040826797,-0.5124998058531433,0.15074746469780803
1739817644889807600,6.6138076171875,-0.01691197183430195,-0.4950611067309975,0.1445614695392549
1739817644899876900,6.623876953125,-0.06632336073517799,-0.48526970749162135,0.09276983443833887
1739817644909946600,6.633946533203125,-0.10065525392591952,-0.4467664103677496,0.06123590140305459
1739817644920016000,6.644015869140625,-0.18413608568906784,-0.4213873832330107,0.019558102428913114
1739817644930084600,6.654084716796875,-0.24931962873935698,-0.42804453956726934,-0.020855083436891436
1739817644940155000,6.66415478515625,-0.2814782695442438,-0.4559849416226148,-0.0418676955230534
1739817644950223600,6.6742236328125,-0.27382512444257734,-0.488194983821176,-0.10028612835258245
1739817644960292900,6.68429296875,-0.24542262130081652,-0.5014470449084416,-0.203899720627442
1739817644970363000,6.69436279296875,-0.18392916494011877,-0.5198394645588472,-0.31403767316974696
1739817644980432000,6.704431884765625,-0.07253215224742889,-0.557619488909468,-0.40990372005775566
1739817644990500600,6.71450048828125,-0.022296002960205077,-0.5914710877699777,-0.5032589166359975
1739817645000571000,6.72457080078125,-0.02526303607225418,-0.6029737113740294,-0.5404088263895362
1739817645010639600,6.7346396484375,-0.11073182678222655,-0.5874463988311588,-0.502994968470186
1739817645020708900,6.744708984375,-0.2062713451296091,-0.5939007991349324,-0.4460544992387295
1739817645030779000,6.75477880859375,-0.28764263739287854,-0.5832867218684404,-0.4047948891440406
1739817645040848000,6.764847900390625,-0.2614811911761761,-0.6969589860167354,-0.35519572258610277
1739817645050916600,6.77491650390625,-0.11371581102907657,-1.0208192572817205,-0.2706273878471926
1739817645060987000,6.78498681640625,-0.05326981789469719,-1.215168255557865,-0.26269217440113424
1739817645071056000,6.795055908203125,-0.11930442481637,-1.047358816095814,-0.19808423928171395
1739817645081124900,6.805124755859375,-0.2940174331218004,-0.7578280268687755,-0.0036439459929242727
1739817645091195000,6.81519482421875,-0.6070055241733789,-0.5243421462729573,0.21840448518954217
1739817645101264000,6.825263916015625,-1.0299182172775267,-0.27659758483059704,0.36257786872666325
1739817645111332900,6.835332763671875,-1.515246742284298,0.07052548860013484,0.44784214984048154
1739817645121402600,6.845402587890625,-2.006103090801835,0.4668444084849208,0.452967749225907
1739817645131472000,6.855471923828125,-2.5073078148543835,0.7819527796261012,0.5074047477364539
1739817645141540900,6.865540771484375,-2.768298592165112,0.9460796581178903,0.4922267966205254
1739817645151611000,6.87561083984375,-2.703049582663178,0.9181066324345767,0.44100360905732955
1739817645161680000,6.885679931640625,-2.250944697344303,0.8239915939323603,0.34538309789560734
1739817645171748900,6.895748779296875,-1.558687824603915,0.7686703964658081,0.24559907384626567
1739817645181818600,6.905818603515625,-0.8666255976527929,0.72976980712004,0.20913155686631799
1739817645191888000,6.915887939453125,-0.22086101149618625,0.6892904972154646,0.2088703486468643
1739817645201956900,6.925956787109375,0.33686230311393733,0.6234426450375468,0.17237345944195984
1739817645212027000,6.93602685546875,0.751492905563116,0.5399806641053408,0.11445691171996294
1739817645222095600,6.946095703125,1.0125924039453267,0.5155160118691623,-0.015994637793675066
1739817645232164900,6.956164794921875,1.0828665481328963,0.5722537250701337,-0.13853928664028645
1739817645242234600,6.966234619140625,0.979459949672222,0.5594733731478453,-0.1769800033893436
1739817645252304000,6.976303955078125,0.8136106313019991,0.5101237243715674,-0.174953392932564
1739817645262372600,6.98637255859375,0.6900865429639816,0.5011350928824395,-0.1851869099162519
1739817645272443000,6.99644287109375,0.6325976460695266,0.5221601260587573,-0.1435617179121822
1739817645282511600,7.00651171875,0.673632836291194,0.5576701961833983,-0.0890833279453218
1739817645292580900,7.016580810546875,0.7470780117303133,0.6234275935988873,-0.03301920315697789
1739817645302650600,7.026650634765625,0.7996984258055686,0.7066285855073481,-0.015225187791138886
1739817645312720000,7.036719970703125,0.7237871525138616,0.8237080277506261,-0.011254457529261708
1739817645322788600,7.04678857421875,0.5293406852126121,0.9378087464440613,0.009464359242096543
1739817645332859000,7.05685888671875,0.22688743217885493,1.023003104126826,0.045518326985090965
1739817645342927600,7.066927734375,-0.10401274766027926,1.0858527243368328,0.06924502033554017
1739817645352996600,7.07699658203125,-0.4010778779149055,1.1714911725252866,0.07944047033116221
1739817645363066400,7.08706640625,-0.6018593934565782,1.289923782943189,0.10280220282673835
1739817645373135600,7.097135498046875,-0.707169195190072,1.3745175443843007,0.14676953751016408
1739817645383204400,7.107204345703125,-0.7308610364228486,1.3967019036635755,0.20949388737268745
1739817645393274600,7.117274658203125,-0.6356412515491247,1.3608151822462677,0.29231289422623813
1739817645403343400,7.12734326171875,-0.3987602486222982,1.2810507406577467,0.40870121240019797
1739817645413412600,7.13741259765625,-0.08725918125808238,1.193558189035207,0.49727914810664947
1739817645423482400,7.147482421875,0.2480558924138546,1.0984149765290319,0.5701777955789119
1739817645433551600,7.157551513671875,0.5403811346650124,1.0058847960654647,0.6436871222954244
1739817645443620400,7.167620361328125,0.7474585354804992,0.9604249943345785,0.737537153185904
1739817645453690600,7.177690673828125,0.817892838665843,0.9442495200812816,0.8661351837873459
1739817645463759400,7.18775927734375,0.7984855428844689,0.9611797582246363,0.9628763330094515
1739817645473828600,7.19782861328125,0.6782195795595646,0.9902896059181541,0.9786383310910314
1739817645483898600,7.207898681640625,0.459237221416831,1.0074735996268689,0.952368748324737
1739817645493967600,7.217967529296875,0.20602584593594073,1.0041636713612825,0.9173420047376304
1739817645504036400,7.228036376953125,-0.0427034156948328,0.9825667565811425,0.865162758558616
1739817645514106600,7.238106689453125,-0.20674013168513775,0.9428744323357939,0.7873175215296446
1739817645524175600,7.248175537109375,-0.2951765400290489,0.917174100824818,0.7187319149509072
1739817645534244600,7.25824462890625,-0.3134796739608049,0.9337622475322336,0.6445465886689722
1739817645544314600,7.268314697265625,-0.30388416261970996,0.9459933680739253,0.5493677933927625
1739817645554383600,7.278383544921875,-0.3034580461621284,0.965029054063931,0.4473858209077269
1739817645564452600,7.28845263671875,-0.2792693613231182,0.9389046519219875,0.2987256108127534
1739817645574522400,7.2985224609375,-0.28047990615665913,0.8760220062252133,0.1403671596545726
1739817645584591600,7.308591552734375,-0.26255671145319937,0.8164094682402908,-0.008654065772518515
1739817645594660600,7.31866064453125,-0.20697510948479175,0.793048539462313,-0.09934862830676137
1739817645604730600,7.328730712890625,-0.11559446438252925,0.7360876119647175,-0.1291500384610146
1739817645614799600,7.338799560546875,0.00892448021173477,0.6662843732245266,-0.1727552983663976
1739817645624868600,7.34886865234375,0.16589724916517734,0.6289776289414614,-0.2567342158447951
1739817645634938400,7.3589384765625,0.29929274317622184,0.5631945856280625,-0.30888503964692354
1739817645645007600,7.369007568359375,0.3869932384610176,0.48601409611813723,-0.32017807562090456
1739817645655076600,7.37907666015625,0.44412382343709467,0.4728343696147203,-0.3298206409741193
1739817645665146600,7.389146728515625,0.43917467659711834,0.45924167839623986,-0.34895262694545087
1739817645675215400,7.39921533203125,0.4148293398916721,0.4576102778021246,-0.3277013107325882
1739817645685284600,7.40928466796875,0.3424234443724155,0.4960688955340534,-0.27530900632478295
1739817645695354400,7.419354248046875,0.24685177732110022,0.541543091116473,-0.14601473708748816
1739817645705423600,7.429423583984375,0.16881927409172057,0.5767225410472602,0.00876103327833116
1739817645715492600,7.43949267578125,0.09139233554005623,0.6356250310666859,0.15534999005720018
1739817645725562600,7.449562744140625,0.0495744705080986,0.7139231264296919,0.2961993802707642
1739817645735631400,7.45963134765625,0.02754033335447311,0.78033942614533,0.4345863989587873
1739817645745700600,7.46970068359375,0.07390694773197173,0.8058894624654204,0.5522199679534882
1739817645755770400,7.479770263671875,0.15163023888170718,0.7948539083838463,0.6171185565825551
1739817645765839600,7.489839599609375,0.259621827045083,0.7449130157161503,0.6512048044491558
1739817645775908400,7.499908447265625,0.3582809387177229,0.7080259581498801,0.6495366520412266
1739817645785977600,7.5099775390625,0.46814007431864735,0.670331091332063,0.6254205940470099
1739817645796047400,7.52004736328125,0.5472533585220575,0.6064831807997078,0.5940330106798559
1739817645806116600,7.53011669921875,0.5926368070811033,0.5415488632701337,0.555685963563621
1739817645816185600,7.540185546875,0.6229594646304846,0.47332376056686043,0.5185328754723072
1739817645826255600,7.550255615234375,0.61295303440094,0.39655696642436083,0.45303705160245294
1739817645836324400,7.560324462890625,0.6067758070707321,0.34463629811629654,0.3562356235604733
1739817645846393600,7.5703935546875,0.6157967333942651,0.26859789131358264,0.2541542092889547
1739817645856463400,7.58046337890625,0.6053647712290287,0.09729257255978882,0.15025193626582622
1739817645866532600,7.59053271484375,0.5305097289919853,-0.09551540681943296,0.07332045308090746
1739817645876601300,7.600601318359375,0.40442660382092,-0.12878748875893653,-0.01591711557805538
1739817645886671600,7.610671630859375,0.11087737273275852,0.0832141436509788,-0.12314034971743822
1739817645896740400,7.620740234375,-0.2589128019928932,0.4045265570640564,-0.16217428311929105
1739817645906809600,7.6308095703125,-0.7293366033345461,0.6568333118554204,-0.24122217393629253
1739817645916879400,7.64087939453125,-1.1825561718970536,0.7395658825345337,-0.3148487703569233
1739817645926948600,7.650948486328125,-1.6326175686895847,0.7570704134345054,-0.3994821331560611
1739817645937017300,7.661017333984375,-1.9985428846806286,0.7813084903731942,-0.4956446057073772
1739817645947087600,7.671087646484375,-2.1815525966882703,0.8058242152094841,-0.6494034541156143
1739817645957156400,7.68115625,-2.0858260313361883,0.737523270791024,-0.7917072809211909
1739817645967225600,7.6912255859375,-1.6696832707583904,0.5707091625092551,-0.9042907269194722
1739817645977295600,7.701295654296875,-1.098945576274395,0.4210778788924217,-1.0001718252461402
1739817645987364600,7.711364501953125,-0.5037134920030832,0.351865591782704,-1.1224693674638866
1739817645997433300,7.721433349609375,0.011698036578297615,0.3788941762227565,-1.289351536013186
1739817646007503600,7.731503662109375,0.3632745092213154,0.41216508911848065,-1.4923168253347276
1739817646017572600,7.741572509765625,0.5990355682075024,0.4228294718001038,-1.693115876533091
1739817646027641600,7.7516416015625,0.6925450420320034,0.36809871450737114,-1.9094405597738922
1739817646037711600,7.761711669921875,0.6485878268837928,0.32247429679930206,-2.0761147846609354
1739817646047780600,7.771780517578125,0.4668447738111019,0.35367483316175635,-2.212193234145641
1739817646057849600,7.781849609375,0.22768472003638743,0.4559682827487588,-2.3746306982457637
1739817646067919600,7.791919677734375,0.005188216292858124,0.5888759932428598,-2.494526074692607
1739817646077988600,7.801988525390625,-0.25665187132358547,0.781971776587516,-2.589099962878227
1739817646088057600,7.8120576171875,-0.49067865386307236,0.9742992789734154,-2.657426772390306
1739817646098127600,7.822127685546875,-0.7135673717945814,1.1230312391303479,-2.7118460525810715
1739817646108196600,7.832196533203125,-0.9219611159056424,1.234479982010275,-2.724528131760657
1739817646118265600,7.842265625,-1.0272557200700043,1.3119871461912989,-2.7236662542343137
1739817646128334600,7.85233447265625,-1.0611153195738792,1.3671619209244847,-2.7774855227053163
1739817646138404600,7.862404541015625,-0.9821242004454135,1.3999676274612545,-2.8608658167034386
1739817646148473600,7.8724736328125,-0.8289338726401329,1.4707587812602518,-2.9018957462280985
1739817646158542600,7.88254248046875,-0.6683031657010317,1.5947729912027715,-2.9666268693357702
1739817646168612600,7.892612548828125,-0.5261906967490911,1.7272934559449553,-2.993858867393434
1739817646178681600,7.902681640625,-0.3650070321023464,1.8639789314121007,-3.01522927994132
1739817646188750600,7.91275048828125,-0.21706512634456157,2.024010795675218,-3.0051702427417037
1739817646198820600,7.922820556640625,-0.1300625501960516,2.1978151647031305,-2.9822552311003205
1739817646208889600,7.9328896484375,-0.10864216102659702,2.3676354325309394,-2.9353949879869816
1739817646218958600,7.94295849609375,-0.1074228483647108,2.496137017020583,-2.880022060333192
1739817646229028400,7.9530283203125,-0.12946399978101253,2.583658064085245,-2.7808593830525874
1739817646239097600,7.96309765625,-0.14271160388886928,2.682010886287689,-2.6508886027932164
1739817646249166600,7.97316650390625,-0.12750643597245215,2.7434248476713896,-2.496834643895924
1739817646259236600,7.983236572265625,-0.10314356361031532,2.7642957862645385,-2.314220360946655
1739817646269305300,7.993305419921875,-0.08922843550443649,2.780530004967749,-2.1117516229704023
1739817646279374600,8.00337451171875,-0.07896013946831226,2.776270593957603,-1.8959604620844124
1739817646289444400,8.0134443359375,-0.06713116998672485,2.7834125746667384,-1.686769430115819
1739817646299513600,8.023513671875,-0.06696867290139198,2.8098133825972673,-1.4977509792126715
1739817646309582600,8.03358251953125,-0.12663549835681914,2.844523461450636,-1.3072091181345282
1739817646319652600,8.043652587890625,-0.200624279153347,2.8840935475558043,-1.1192653107255697
1739817646329721300,8.053721435546874,-0.33973289011418817,2.89338919916749,-0.94419420969747
1739817646339790600,8.06379052734375,-0.4887812958091497,2.8646663780301806,-0.7469422565214335
1739817646349860400,8.0738603515625,-0.5964414600610732,2.8432883666977284,-0.5072957344040274
1739817646359929000,8.08392919921875,-0.6982938148170709,2.850812332461774,-0.2695272811181843
1739817646369998300,8.093998291015625,-0.7248539049625397,2.845790412646532,-0.07653963432312011
1739817646380067000,8.104067138671875,-0.6681856768012047,2.8297447022527455,0.06980024306550621
1739817646390137000,8.11413720703125,-0.579802459949255,2.8049136278569695,0.21132234490886329
1739817646400206000,8.1242060546875,-0.48087271464169024,2.7604072543933986,0.38331783788390456
1739817646410275300,8.134275390625,-0.46702480655312534,2.677040988920629,0.5678254602991044
1739817646420345300,8.144345458984375,-0.4939829561054706,2.598089032758772,0.7595080158449709
1739817646430414000,8.1544140625,-0.5352279896855354,2.474014032539725,0.8697360578235238
1739817646440483000,8.164483154296875,-0.553958993640542,2.3546456025764346,0.9042028294403105
1739817646450553000,8.174552978515624,-0.5111053558200598,2.405465689231455,1.0954580994848162
1739817646460622300,8.184622314453126,-0.513178654962778,2.294839660911262,1.243968379715085
1739817646470691300,8.19469140625,-0.5021270995944738,2.1072930361263453,1.3760223959892988
1739817646480761300,8.20476123046875,-0.4301467360109091,1.9213804422840475,1.491830356992036
1739817646490830000,8.214830078125,-0.29809038164913654,1.7441439068503677,1.547785322317481
1739817646500899300,8.2248994140625,-0.13677929123044014,1.629454574614018,1.6335859753303228
1739817646510969000,8.234968994140624,0.024170564660429952,1.5330170845136046,1.742150541076064
1739817646521038300,8.245038330078126,0.12024199792742729,1.4538355573795736,1.8717057262718677
1739817646531107000,8.255107177734375,0.17459376583993433,1.3407538064703344,1.9926120333269237
1739817646541177300,8.26517724609375,0.1696376047372818,1.2393798828810452,2.082271553725004
1739817646551246000,8.27524609375,0.158462130728364,1.1538690796602518,2.146485959482193
1739817646561315300,8.2853154296875,0.11632511674463748,1.083389695224166,2.2046925031267106
1739817646571384000,8.295384033203124,0.05162848042845726,1.0060825836598872,2.22726513107121
1739817646581454300,8.305454345703126,-0.014171148693561553,0.9127505122289061,2.231024191343784
1739817646591523000,8.315523193359375,-0.06739420483708382,0.810291862142831,2.2571930902145803
1739817646601592300,8.32559228515625,-0.04457388574182987,0.6533357520632446,2.286554939907789
1739817646611662000,8.335662109375,0.016166121903061867,0.5203045613199472,2.3298016686990857
1739817646621731300,8.3457314453125,0.10883037707507609,0.3928520474918186,2.415883915132284
1739817646631800000,8.355800048828126,0.19364158065915107,0.24059746616668998,2.510918991088867
1739817646641870300,8.365870361328126,0.31038930673003196,0.08806172981262206,2.569019590140879
1739817646651939000,8.37593896484375,0.38575697466433045,-0.06390197880715132,2.595335350136459
1739817646662008300,8.38600830078125,0.4428887286841869,-0.1873716335441917,2.5841981623113153
1739817646672078000,8.396078125,0.4815653730809688,-0.2955762068711221,2.5847183867931363
1739817646682147300,8.406147216796874,0.5111708222717046,-0.40461745021790263,2.5877210757404563
1739817646692216000,8.416216064453126,0.5216746806293726,-0.4980480866525322,2.5592764870226383
1739817646702286300,8.426286376953126,0.5146686012595891,-0.5316536383301019,2.4949083520084616
1739817646712355000,8.43635498046875,0.5021931505680084,-0.5357353546857834,2.400697451916337
1739817646722424300,8.44642431640625,0.483096235910058,-0.5372274198744446,2.3167884578689932
1739817646732494000,8.456494140625,0.4929506904482841,-0.5207919795107097,2.240539038664102
1739817646742563300,8.466563232421874,0.5101525851398706,-0.4972454650327563,2.1652894441515205
1739817646752632000,8.476632080078126,0.5340688827782869,-0.47118068412356073,2.0925942102968693
1739817646762701300,8.486701416015626,0.5681792421728372,-0.46172604255788025,2.043308931993693
1739817646772771000,8.49677099609375,0.5768067852646112,-0.46337797448337076,1.9898481215715407
1739817646782840300,8.50684033203125,0.5852139636039734,-0.461429982220754,1.9141776712983845
1739817646792909000,8.516908935546875,0.5298024575054645,-0.4720370086919516,1.80575470598042
1739817646802979300,8.526979248046874,0.46907355577647686,-0.521394110122323,1.6643676286935805
1739817646813048000,8.537048095703126,0.41159284218847747,-0.5927485968925058,1.5167010327458381
1739817646823117300,8.547117431640626,0.3828922328829765,-0.630498920224607,1.3528040174871683
1739817646833187000,8.55718701171875,0.3553577447474003,-0.605796367579326,1.189508182992041
1739817646843256300,8.56725634765625,0.2780266677856445,-0.5358415915392339,1.0901124276079237
1739817646853325000,8.577324951171875,0.12365502124130726,-0.4651140044957399,1.0679049066487698
1739817646863395300,8.587395263671874,-0.09622866965532302,-0.33967816425226627,1.0232612436063586
1739817646873464000,8.597464111328126,-0.32242285887300964,-0.1872230188537389,0.9464416963633149
1739817646883533300,8.607533203125,-0.5330073910266161,-0.04335413468852639,0.8378541881334036
1739817646893602000,8.61760205078125,-0.7119657818168401,0.048837169209495185,0.695817926222831
1739817646903672300,8.62767236328125,-0.8126490927934646,0.043199236387759445,0.5100694369010627
1739817646913741000,8.637740966796875,-0.8007114022403955,-0.0323104703657329,0.32654015799872577
1739817646923810300,8.647810302734374,-0.6300368556708097,-0.1346242320884019,0.170493710109964
1739817646933880000,8.657880126953126,-0.3503881396412849,-0.25612916262373325,0.03456730938181281
1739817646943949300,8.66794921875,-0.01644435432255268,-0.3647420244906097,-0.10987236040867865
1739817646954018000,8.67801806640625,0.2906453263401985,-0.4376742089062929,-0.19828867581263182
1739817646964088300,8.68808837890625,0.5409551351606846,-0.4491333221621811,-0.2159980816349387
1739817646974157000,8.698156982421875,0.6634726768046617,-0.42835437270142135,-0.22611279454454777
1739817646984226300,8.708226318359374,0.6672317370772362,-0.38013876945637165,-0.2697553177203983
1739817646994296300,8.71829638671875,0.603489625006914,-0.3559884438663721,-0.3530674418531358
1739817647004365300,8.728365234375,0.4552198024690151,-0.33519020518325265,-0.4869174746986478
1739817647014434000,8.73843408203125,0.270175954285264,-0.3079248893778771,-0.6118136551074683
1739817647024504000,8.748504150390625,0.08332184180915356,-0.27880744289979337,-0.7369407216627151
1739817647034573300,8.7585732421875,-0.07955401370823383,-0.23336634586937724,-0.7951367439132183
1739817647044642300,8.768642333984374,-0.16678981409072874,-0.18996223455928266,-0.7921264561813324
1739817647054711000,8.7787109375,-0.19122341360151768,-0.14871837002299726,-0.7911215169224888
1739817647064781300,8.78878125,-0.19536884284317493,-0.10180778496190905,-0.8085707374386489
1739817647074850000,8.79885009765625,-0.1168646304488182,-0.10083280244991183,-0.8149092928104102
1739817647084919300,8.808919189453125,-0.04663140279352665,-0.09421382270157337,-0.829429181876406
1739817647094989300,8.8189892578125,-0.009498480707406998,-0.0849227741997689,-0.8397695933006704
1739817647105058300,8.829058349609374,-0.01301496439576149,-0.07197875614836811,-0.8231020246814936
1739817647115127000,8.839126953125,-0.0485766916424036,-0.03339417394921183,-0.7765798544161021
1739817647125197000,8.849197021484375,-0.08394085049033165,0.01719356525465846,-0.7239783642370253
1739817647135266300,8.859266357421875,-0.1487842018008232,0.057161783831939095,-0.6356378174830227
1739817647145335300,8.869335205078125,-0.22425533010959625,0.08555793029814958,-0.4864460577946156
1739817647155404000,8.879404052734374,-0.3479500988394022,0.08328969310522079,-0.29104776966124773
1739817647165474300,8.889474365234374,-0.47533553878068924,0.13899528677947817,-0.13453414265215397
1739817647175543300,8.899543212890626,-0.6139969904959202,0.21002214903049168,-0.008042217484489083
1739817647185612300,8.9096123046875,-0.7087538340330124,0.25596819990836084,0.09197050075419247
1739817647195682300,8.919682373046875,-0.7378677003145218,0.28720950667262074,0.15012743310332297
1739817647205751300,8.929751220703125,-0.6861217309862375,0.2857287665955722,0.20107078081183136
1739817647215820300,8.9398203125,-0.5784136359393597,0.26290150630287823,0.24650508277527985
1739817647225890000,8.94989013671875,-0.4254226300984621,0.22966763748191296,0.26836905099377034
1739817647235959300,8.959959228515626,-0.20615911692678926,0.1903277068708092,0.2688009396050125
1739817647246028300,8.9700283203125,-0.004810030630230903,0.14458660398051143,0.25593992366194723
1739817647256098300,8.980098388671875,0.17611060014367103,0.10876885614618659,0.2309910681053996
1739817647266167000,8.9901669921875,0.343299058163166,0.09442366605997085,0.21194507991708814
1739817647276236300,9.000236328125,0.4410784643918276,0.06763035168051719,0.17397139615789053
1739817647286305300,9.01030517578125,0.4769575870245695,0.0610536767039448,0.1568927625197917
1739817647296375300,9.020375244140626,0.45198038215637204,0.06210464706160128,0.13521591437123714
1739817647306444300,9.0304443359375,0.3746972359895706,0.08522438749484718,0.07497859555147587
1739817647316513300,9.04051318359375,0.3133364660978317,0.09127630794495344,0.09120200059972702
1739817647326583000,9.0505830078125,0.25884850458502767,0.06954217665120958,0.08443360244333743
1739817647336652300,9.06065234375,0.23470190532207488,0.03789199682511389,0.07396715348660945
1739817647346721300,9.07072119140625,0.1849608460754156,0.039740547301247715,0.11394983898065983
1739817647356790500,9.08079052734375,0.10933832659721374,0.06475070459097623,0.15997545790076254
1739817647366859500,9.090859619140625,0.037248072898387906,0.05916917813159525,0.19064488306120037
1739817647376928500,9.100928466796875,-0.014960837766528129,0.042481808833405375,0.2514367670238018
1739817647386998500,9.11099853515625,-0.04296528150141239,0.020674758433923125,0.31231092244237657
1739817647397067500,9.121067626953124,-0.027473113337159155,-0.033261998936906456,0.35155681809447703
1739817647407136500,9.131136474609375,0.03550093697011471,-0.09722016491070389,0.3961301193144172
1739817647417205500,9.14120556640625,0.09908289004266262,-0.1436899474017322,0.3975217928685248
1739817647427275500,9.151275634765625,0.1841857700496912,-0.17173421169035136,0.37470300814323126
1739817647437344500,9.161344482421875,0.2442997547507286,-0.18790990513935685,0.35775837614834305
1739817647447413500,9.17141357421875,0.26873276973962784,-0.21343064229972658,0.35637094037793576
1739817647457483500,9.1814833984375,0.2603682614982128,-0.24376535561308263,0.3306125220041722
1739817647467552500,9.191552490234375,0.25068039569854733,-0.2629514829244464,0.26030447554700076
1739817647477621500,9.20162158203125,0.2156827320754528,-0.3069165891181677,0.23228636861294508
1739817647487691500,9.21169140625,0.18047405605018138,-0.36273799119181926,0.21620953242853283
1739817647497760500,9.221760498046875,0.19095745614171028,-0.4063342640731483,0.21768062789440154
1739817647507829500,9.23182958984375,0.2361082649886608,-0.430987497683987,0.21316687679700552
1739817647517898500,9.2418984375,0.25379589737057684,-0.4555667892757803,0.18628179248087107
1739817647527968800,9.25196875,0.2705991481333971,-0.46568807805664836,0.12215762229040264
1739817647538037500,9.26203759765625,0.2697667889624834,-0.4444785551588982,0.02617664378583431
1739817647548106500,9.2721064453125,0.1918406687170267,-0.4230194414142519,-0.03158485950492322
1739817647558176500,9.282176513671875,0.061572951337695116,-0.3906949425231665,-0.03628258886709809
1739817647568245800,9.292245849609374,-0.06395721612572669,-0.3634278000868857,-0.011583470287919043
1739817647578314500,9.302314453125,-0.17587620686590671,-0.36449236057847734,-0.010692585862800478
1739817647588384500,9.312384521484375,-0.21368892790973185,-0.38124453874118625,-0.024098303141817448
1739817647598453500,9.32245361328125,-0.1810264292359352,-0.42343737456537783,-0.05395056670047343
1739817647608522500,9.3325224609375,-0.0813636934787035,-0.4572423943378031,-0.07287665483616292
1739817647618591500,9.342591552734374,0.06248071383237838,-0.49298802678398784,-0.10239844433143734
1739817647628661800,9.352661865234374,0.21259528745412826,-0.5030864461459219,-0.1356564977455884
1739817647638730500,9.36273046875,0.33558512278497216,-0.5023635386988521,-0.14084354499466717
1739817647648799500,9.372799560546875,0.3815805657625198,-0.4850822951607406,-0.14670578809157014
1739817647658869500,9.382869384765625,0.38583530059754845,-0.5011065974403173,-0.10460304170362651
1739817647668938800,9.392938720703125,0.37066461947262286,-0.529743713055551,-0.021049583095684648
1739817647679007500,9.403007568359374,0.3841419406831264,-0.517655288920179,0.050984556501731275
1739817647689077500,9.413077392578124,0.39229835913181305,-0.5050737475056201,0.11244944435507058
1739817647699146500,9.423146484375,0.3990881654024124,-0.4805230244211852,0.16555011622793972
1739817647709215700,9.4332158203125,0.42714521610736844,-0.4667462818726897,0.20343919044360517
1739817647719284500,9.443284423828125,0.42949440958201884,-0.5025128109764307,0.2364984333500266
1739817647729354500,9.4533544921875,0.4290250385046005,-0.5408949294060469,0.3001064707119018
1739817647739423500,9.463423583984374,0.4010428066015243,-0.589816635093838,0.36169089329168197
1739817647749492700,9.47349267578125,0.3435235145688057,-0.6305009660512209,0.4067722901642322
1739817647759562500,9.4835625,0.3267120804995298,-0.66740636299178,0.427392176605761
1739817647769631700,9.4936318359375,0.35831191837787624,-0.7175178629860282,0.42855362160056826
1739817647779700500,9.503700439453125,0.4096323557704687,-0.7615230819944292,0.43025684532187874
1739817647789770500,9.5137705078125,0.44942192984521384,-0.7865927143864333,0.43418366337679326
1739817647799839500,9.523839599609374,0.45171676278412337,-0.8146911200150847,0.4284496497694403
1739817647809908700,9.53390869140625,0.40658290507197375,-0.8222212963242084,0.4179048748794943
1739817647819977500,9.5439775390625,0.3521943122804165,-0.839662406599149,0.42149347395598885
1739817647830047500,9.554047607421875,0.3059130380988121,-0.8650348943952471,0.4179091857284307
1739817647840116500,9.564116455078125,0.26232231817543505,-0.8788199663806706,0.40454387352503834
1739817647850185700,9.574185791015625,0.22496610872745512,-0.8654800078142434,0.40042642826884983
1739817647860255500,9.58425537109375,0.21334172190725803,-0.8548593912091106,0.39994799710214135
1739817647870324700,9.59432470703125,0.20212942301928996,-0.8158983769129962,0.3681509561512619
1739817647880393500,9.6043935546875,0.20636545315384863,-0.7837114598616958,0.34385815335065123
1739817647890463500,9.61446337890625,0.18444471324682235,-0.7901166507288813,0.29020342779159547
1739817647900532500,9.624532470703125,0.15434592758119106,-0.8753937913242728,0.24990758469514548
1739817647910601700,9.634601806640624,0.15557576163709164,-1.0178670564126222,0.30438188300877805
1739817647920670500,9.64467041015625,0.1125555350780487,-1.1836422135680913,0.31368096868656575
1739817647930740500,9.654740478515626,-0.008355155891180037,-1.2263622881367802,0.21545148060284552
1739817647940809500,9.6648095703125,-0.19670155275166035,-0.990746044448763,0.07196648118868469
1739817647950878700,9.674878662109375,-0.5219119965165854,-0.6108165338288992,-0.09306267990507185
1739817647960948500,9.684948486328125,-0.8730144219070672,-0.2618712134070694,-0.13679792286567388
1739817647971017500,9.695017578125,-1.2587684739619494,-0.050918943919613956,-0.12111322780400514
1739817647981086500,9.70508642578125,-1.632499495267868,0.03954809346906841,-0.13565985874645412
1739817647991155700,9.71515576171875,-1.8217367034882306,0.0976718542009592,-0.15820874048918485
1739817648001225500,9.7252255859375,-1.7949726152032612,0.0785702633678913,-0.2319227229323238
1739817648011294700,9.735294677734375,-1.6006196714043617,0.09726035079061984,-0.23172354709841309
1739817648021363500,9.745363525390625,-1.229316754028201,0.16094488745480776,-0.18803119343146682
1739817648031433500,9.75543359375,-0.825895527857542,0.19576485642343758,-0.10528795522786676
1739817648041502500,9.76550244140625,-0.5459001903474331,0.1760975945316255,-0.07856536799706518
1739817648051571700,9.77557177734375,-0.3674725454330444,0.11339425092451273,-0.08253332177996635
1739817648061641500,9.785641357421875,-0.3623883740365505,0.03200790722258389,-0.10194741262830793
1739817648071710500,9.79571044921875,-0.5352396801233291,-0.0010640490349382162,-0.10591237073652446
1739817648081779500,9.805779541015625,-0.8449398355454206,0.09355835446752607,-0.12083879477679729
1739817648091848700,9.8158486328125,-1.1943196749269962,0.3114717682044953,-0.1615088049478829
1739817648101918500,9.82591845703125,-1.5323983680933713,0.5852477197431027,-0.2499388931488618
1739817648111987700,9.83598779296875,-1.7968097675025463,0.8346936782758683,-0.2922702971935272
1739817648122056400,9.846056396484375,-2.0154419970333577,1.0132217148248106,-0.28745507893152533
1739817648132126500,9.85612646484375,-2.1045967827796934,1.1212297426663338,-0.3144814348818734
1739817648142195500,9.866195556640625,-2.0593828455686567,1.15708468070589,-0.3711192313723266
1739817648152264700,9.8762646484375,-1.7577245423048733,1.1085027283664792,-0.44129656412191687
1739817648162333400,9.88633349609375,-1.1780921782255172,1.026824123719707,-0.5068046629514545
1739817648172403500,9.896403564453125,-0.4440881676018238,0.9130311558011919,-0.4914207044020295
1739817648182472400,9.906472412109375,0.34657004265785213,0.783746896501258,-0.47215617809221144
1739817648192541700,9.916541748046875,1.0732599308758974,0.6861101866789162,-0.36558132485896344
1739817648202611500,9.926611572265625,1.708945606088638,0.6195000448916107,-0.22658172723054884
1739817648212680700,9.9366806640625,2.2304104433596135,0.6113049749329685,-0.12803309019505976
1739817648222749400,9.94674951171875,2.574142047721147,0.613116992790997,-0.07788966069258749
1739817648232818700,9.956818603515625,2.7793162452638147,0.5651268688648938,-0.07231478316970169
1739817648242888400,9.966888427734375,2.8087814092010257,0.4603597957059741,-0.09397811424955725
1739817648252957700,9.976957763671875,2.6678713017761706,0.4058890775889158,-0.21768756909184156
1739817648263026400,9.9870263671875,2.327465626966953,0.4490038505636155,-0.4097444378428161
1739817648273096400,9.997096435546876,1.8293214595288037,0.5791100937709212,-0.5838350764662027
1739817648283165400,10.00716552734375,1.228682547777891,0.7945515644364058,-0.662411915705353
1739817648293234700,10.017234619140625,0.6084463706314563,1.01420166577287,-0.6221887725189328
1739817648303304400,10.027304443359375,-0.02943886045217514,1.1732232570149004,-0.4726325999649241
1739817648313373400,10.03737353515625,-0.6651420713216066,1.2936077321529387,-0.3102648035675287
1739817648323442400,10.0474423828125,-1.287847853451967,1.3488432971626518,-0.2556467859342694
1739817648333511700,10.05751171875,-1.806927841413021,1.264500295612216,-0.2676699628137052
1739817648343581400,10.06758154296875,-2.0794600034356114,1.0563349534295499,-0.34810119774788617
1739817648353650700,10.077650634765625,-2.0910686081647873,0.713352706130594,-0.49483288746569304
1739817648363720000,10.087719970703125,-1.7581880681633948,0.35691293830014764,-0.6393579339846969
1739817648373790000,10.0977900390625,-1.1452999156922101,0.09959069343432783,-0.6883527049086987
1739817648383859000,10.10785888671875,-0.39217093335986136,-0.09642448448836803,-0.6163606508873403
1739817648393928000,10.117927978515626,0.4579430899530649,-0.23805355383753776,-0.5139555210867897
1739817648403997000,10.127996826171875,1.1417857700914145,-0.3580308364141732,-0.3953713733689859
1739817648414067000,10.13806689453125,1.5831658477783201,-0.4419354465473443,-0.26815814818944783
1739817648424136000,10.148135986328125,1.7839368419259785,-0.48452583032175894,-0.1699482781216502
1739817648434205000,10.158204833984374,1.7398147916048765,-0.46394912543483074,-0.10274813455194234
1739817648444275200,10.168275146484374,1.470861072590947,-0.37198768476992844,-0.13021025157105176
1739817648454344000,10.178343994140626,1.0336468824118374,-0.25228359311148524,-0.22419117883220313
1739817648464413000,10.188412841796875,0.563946134647727,-0.21616174776405095,-0.26498083332758393
1739817648474482200,10.198482177734375,0.12908289150893687,-0.1700380022317171,-0.27147775759883225
1739817648484552200,10.20855224609375,-0.20374270343482492,-0.08653386265821754,-0.3100568233726546
1739817648494621000,10.218620849609374,-0.4494119929730892,0.03396890509724617,-0.35372389646787195
1739817648504690000,10.22868994140625,-0.5657277573674917,0.12779760093875228,-0.34221122639384116
1739817648514760000,10.238760009765626,-0.5428782121777534,0.13609773870706557,-0.2781239906802773
1739817648524829200,10.2488291015625,-0.4375011904269457,0.10910890175551176,-0.23990466159693896
1739817648534898000,10.25889794921875,-0.28139000673890113,0.050047933238744735,-0.2536203581405803
1739817648544967000,10.268966796875,-0.12660042704343796,-0.030446430059522387,-0.3069911521917209
1739817648555037000,10.279036865234374,0.01841419309079647,-0.14204692943505942,-0.3713397422552109
1739817648565106000,10.28910595703125,0.19031097493171692,-0.26992439067699014,-0.4043749101663008
1739817648575175200,10.299175048828126,0.34475451766848564,-0.3393625224318355,-0.4305157519863918
1739817648585245200,10.3092451171875,0.46895957400798793,-0.38711547660119827,-0.4227607539454475
1739817648595314000,10.31931396484375,0.5743839420318603,-0.38683717111647126,-0.38202513119224457
1739817648605383000,10.3293828125,0.5882073002010584,-0.33861754928342996,-0.3516638221329078
1739817648615452200,10.3394521484375,0.5326613540679216,-0.25721688479520377,-0.3171904015796259
1739817648625522200,10.349522216796874,0.43785950234532356,-0.21455708904638884,-0.29243677633423354
1739817648635591000,10.3595908203125,0.3115057435393333,-0.20131438030935822,-0.3331367067195475
1739817648645660000,10.369659912109375,0.21383330481648444,-0.2238917574942112,-0.36051731946766374
1739817648655730000,10.37972998046875,0.1327419985383749,-0.2649871534705162,-0.36146924989763646
1739817648665799200,10.389799072265625,0.08571487442553043,-0.2968407469142228,-0.3510292870890349
1739817648675868200,10.3998681640625,0.07263093644678592,-0.2963856966231018,-0.340554216434434
1739817648685937000,10.40993701171875,0.02485387074947357,-0.2898568793762475,-0.3200623037541285
1739817648696007000,10.4200068359375,-0.020970307314395902,-0.28552169971615077,-0.27741734024826437
1739817648706076200,10.430076171875,-0.06973346143960953,-0.3190006293393671,-0.2622394256649539
1739817648716145200,10.440145263671875,-0.14508125562965868,-0.34108079759180543,-0.2745803632566705
1739817648726215200,10.450215087890625,-0.22084055323004723,-0.38021592634581025,-0.24457422431055456
1739817648736284000,10.460283935546874,-0.3155564802348614,-0.42374329870939254,-0.24965149104222653
1739817648746353200,10.470353271484376,-0.3521148173034191,-0.4363384302578866,-0.29516941616851833
1739817648756422100,10.480422119140625,-0.31380992882847786,-0.4384847215715795,-0.3285314414137974
1739817648766492200,10.4904921875,-0.21561375849246978,-0.4272834555342793,-0.3558534923750907
1739817648776561000,10.500560791015625,-0.0867272663384676,-0.4071778022252023,-0.3614837898796424
1739817648786630000,10.5106298828125,0.020497429105639457,-0.3980978391908109,-0.3460817111516371
1739817648796700000,10.520699951171874,0.10179097995758056,-0.40767895668037235,-0.3283110766613856
1739817648806769200,10.53076904296875,0.1244236675262451,-0.41808001225069163,-0.30418321863152087
1739817648816838100,10.540838134765625,0.0927267990142107,-0.43911264421157536,-0.2438771088918671
1739817648826907000,10.550906982421875,0.09260521846115588,-0.4722879877783358,-0.20934227700754998
1739817648836977000,10.560976806640625,0.09525719427466392,-0.4657577822919935,-0.2007167797423899
1739817648847046100,10.571046142578124,0.13554945717453956,-0.49882257815636694,-0.2030094207242131
1739817648857115100,10.581115234375,0.2686380771934986,-0.6199710234042257,-0.11719890390448272
1739817648867185200,10.59118505859375,0.45207975087761876,-1.002627182509005,0.06323774274475873
1739817648877254000,10.60125390625,0.5230857164710759,-1.295807141893357,0.13075104391686618
1739817648887323100,10.6113232421875,0.43182782096564765,-1.054513802416995,0.10544643372520804
1739817648897392000,10.62139208984375,0.25654431929588317,-0.5386703121591359,0.16745850713253022
1739817648907462100,10.631462158203124,-0.0635521424561739,-0.2369698502540588,0.36483920125477015
1739817648917531100,10.64153125,-0.5160036492556334,-0.20074286403171718,0.5491243400257081
1739817648927600000,10.65160009765625,-0.9325853857725858,-0.23745624553151426,0.603496858465299
1739817648937670000,10.661669921875,-1.368341778358817,-0.1270799541886896,0.5041187848683446
1739817648947739100,10.6717392578125,-1.7471733376741407,0.1911980599645525,0.35886326865032314
1739817648957808000,10.68180810546875,-2.007179195600748,0.5026795458454638,0.17881854392811655
1739817648967877000,10.691877197265624,-2.1944904041945934,0.669328124834597,0.062380468328297134
1739817648977947000,10.70194677734375,-2.3064538185983894,0.730702046468854,0.03194748227223754
1739817648988016000,10.71201611328125,-2.37090729380846,0.7874903208132833,0.010694266363233328
1739817648998085000,10.722085205078125,-2.347548630052805,0.8152316566325724,-0.08607362473532557
1739817649008155100,10.732155029296875,-2.1969050641208887,0.8484078769821674,-0.1874878072697669
1739817649018224000,10.74222412109375,-1.8062410281926393,0.7624890044171363,-0.3427484385430813
1739817649028293000,10.752293212890624,-1.2519219690680503,0.6282629778660833,-0.5495888887975364
1739817649038362000,10.762362060546875,-0.6237146669119596,0.5323096910860389,-0.6884155410118401
1739817649048432000,10.77243212890625,-0.06118775141239166,0.46281690653450785,-0.7181289075564593
1739817649058501000,10.782501220703125,0.4189554799109697,0.3969887089051306,-0.6682112496338785
1739817649068570000,10.792570068359375,0.8072551247954368,0.35755467026978727,-0.5933871870569885
1739817649078639900,10.802639892578124,1.0871177758365869,0.34999738675802944,-0.4974805158976465
1739817649088709000,10.812709228515626,1.2572183219105004,0.3116926444135606,-0.38745895627662535
1739817649098778000,10.822778076171875,1.3510954600036142,0.24081994981095192,-0.2898486960697919
1739817649108847000,10.83284716796875,1.376516316986084,0.19982005009837447,-0.251465262465924
1739817649118916900,10.842916748046875,1.3439391585081815,0.22175620677024124,-0.25205906364060937
1739817649128986000,10.852986083984375,1.2359452322572468,0.29846812892034646,-0.27422325691469013
1739817649139055000,10.86305517578125,1.0230103375852106,0.3304555048115551,-0.3102450759537518
1739817649149125000,10.873125,0.7599030065119267,0.3611838936176151,-0.2774337433937937
1739817649159194000,10.883194091796875,0.4504986191660166,0.4319352999281138,-0.22654979772232473
1739817649169263000,10.89326318359375,0.09860241304934024,0.5774720442403107,-0.1771022415295243
1739817649179332000,10.90333203125,-0.21249358064532278,0.7662316250115633,-0.10275010731332003
1739817649189402000,10.913402099609375,-0.44876609628498554,0.9003419892936945,0.024228505392745136
1739817649199471000,10.92347119140625,-0.5752776760011911,0.9630600920785218,0.17724574165344237
1739817649209540000,10.9335400390625,-0.5739321066111326,1.040639883104339,0.30430143818370997
1739817649219609000,10.943609130859375,-0.4378770380020141,1.1028280437309295,0.4068307423532009
1739817649229679000,10.95367919921875,-0.25397066941559315,1.0987737268388271,0.4957898593969643
1739817649239748000,10.963748046875,-0.09579495441317558,1.0658493623584508,0.5946634175378829
1739817649249817000,10.973817138671874,-0.0012304185777902603,1.0470381327740848,0.6682840226091444
1739817649259887000,10.98388720703125,0.042216508960723875,1.0157163081195204,0.7384306679595262
1739817649269956000,10.9939560546875,0.03530746022462845,0.971551149309054,0.7664740554653108
1739817649280025000,11.004025146484375,0.0087140523314476,0.9290148338094353,0.7838243456516415
1739817649290094000,11.014093994140625,-0.02160568260848522,0.919010960863158,0.7526126303080469
1739817649300164000,11.0241640625,-0.044321956807374954,0.8967816664636135,0.697722006278485
1739817649310233000,11.034233154296874,-0.046803252229094504,0.8331917492803186,0.6136776223484426
1739817649320302000,11.044302001953126,-0.04509878639876842,0.7308915046263486,0.5432185500480234
1739817649330372000,11.0543720703125,0.0032002573460340497,0.6031017216678708,0.46405645826682446
1739817649340441000,11.064441162109375,0.09058686437606811,0.4655845446169376,0.3612649960298091
1739817649350510000,11.074510009765625,0.2004717189401388,0.3620785043697804,0.25140505671128627
1739817649360579800,11.084579833984375,0.2896609914779663,0.30951172017790374,0.16572335390299558
1739817649370649900,11.09464990234375,0.2793552860409021,0.27586992814317346,0.10664382681623101
1739817649380718600,11.104718505859376,0.2059013427734375,0.2766589596290141,0.03983049060702323
1739817649390787800,11.114787841796876,0.0732768331348896,0.2502607820469886,-0.025866701053828
1739817649400856800,11.12485693359375,-0.07039397117495537,0.19248393505662678,-0.09445238069780171
1739817649410926800,11.1349267578125,-0.19252339028418064,0.13380575531236827,-0.12491181636936961
1739817649420995800,11.144995849609375,-0.2694382876604795,0.0749625211995095,-0.1518673355732113
1739817649431064800,11.15506494140625,-0.2626157481640577,0.04713416468389332,-0.17508352211825548
1739817649441134800,11.165134765625,-0.20404197864234447,0.02200337668918073,-0.20809154629409313
1739817649451203800,11.175203857421875,-0.1488192731142044,0.009829539292678236,-0.23695355670638382
1739817649461272800,11.18527294921875,-0.07940905227959155,-0.0005626023188233376,-0.24986513379290698
1739817649471341800,11.195341796875,-0.048960138002038,-0.019625395511463282,-0.28849961954839526
1739817649481411800,11.205411865234375,-0.01588964304924011,-0.02929601791538298,-0.30816162074320014
1739817649491480800,11.215480712890624,0.01177402442395687,-0.02267367716617882,-0.3174477008089423
1739817649501549800,11.2255498046875,0.03150456081032753,-0.019845833329111336,-0.28305918206013736
1739817649511619800,11.235619873046875,0.021153262665867804,0.038697029597684736,-0.21806845816820858
1739817649521688800,11.245688720703125,0.009657470661401749,0.11068879135809838,-0.1339936790999025
1739817649531757800,11.2557578125,-0.0036579379856586454,0.16751147942878306,-0.028687311432510614
1739817649541826800,11.265826904296874,-0.01173310789167881,0.26513269942104817,0.046744215518236154
1739817649551896800,11.275896728515624,-0.009712415719032287,0.32846659601666034,0.11269947359338402
1739817649561965800,11.2859658203125,-0.0014981296032667158,0.3662051558457315,0.23189488507732747
1739817649572034800,11.296034912109375,0.035443069303035736,0.39948001426421104,0.3297211261224001
1739817649582103800,11.306103759765625,0.11181319227814673,0.4304654465712607,0.4123031824149191
1739817649592173800,11.316173828125,0.2373240705192089,0.4233096565324813,0.4684758090790361
1739817649602242800,11.326242919921874,0.36577100221216674,0.37802513830326495,0.4820166970450431
1739817649612311800,11.336311767578126,0.47352468996644015,0.33496216858103867,0.49820568836703893
1739817649622381800,11.3463818359375,0.5568202282905579,0.3085710052616894,0.5107699133206158
1739817649632450800,11.356450927734375,0.579962618947029,0.30739319365397094,0.48475576662011444
1739817649642519800,11.366519775390625,0.5618044464439154,0.2966353605352342,0.4484448284413665
1739817649652588800,11.3765888671875,0.5506394938290119,0.29469883951470255,0.4139224541798234
1739817649662658800,11.386658935546874,0.5457838704913854,0.27219693871885536,0.37418453722707923
1739817649672727800,11.396727783203126,0.5418050299882888,0.2260838607110083,0.29576668794192373
1739817649682796800,11.406796875,0.5588748227328062,0.19093290622234343,0.2093397927895188
1739817649692865800,11.41686572265625,0.5170715707480907,0.19873174340501426,0.13127214518152178
1739817649702935800,11.426935791015625,0.4427268161207437,0.18964169736802577,0.0813833480272442
1739817649713004800,11.4370048828125,0.3457166406989097,0.16372655406258999,0.03725632927007973
1739817649723073800,11.44707373046875,0.2617746211647987,0.1449193430662155,-0.008036883722245692
1739817649733143800,11.457143798828126,0.23065116862654686,0.11331387916468083,-0.04124554503671825
1739817649743213000,11.467213134765625,0.2339548863470554,0.06805800250805914,-0.0007652122188359498
1739817649753281800,11.47728173828125,0.2396060439765453,0.07424027133956551,0.09143770905174314
1739817649763350800,11.487350830078125,0.24672902772426603,0.11223448643013834,0.16108729160018265
1739817649773420800,11.4974208984375,0.26649638898968697,0.10053170061148703,0.20411102529056369
1739817649783490000,11.507489990234374,0.28245208301246166,0.07687251953929662,0.2358868042577058
1739817649793558800,11.517558837890626,0.285407425686717,0.06843326556123792,0.1973392661333084
1739817649803628800,11.52762890625,0.3272095086276531,0.014663169994205236,0.15190408738702535
1739817649813697800,11.53769775390625,0.3849398130625486,-0.04021408309713006,0.15688786714896558
1739817649823766800,11.547766845703125,0.46970542393922804,-0.09540200957283378,0.1500472074739635
1739817649833835800,11.557835693359374,0.5580430480837821,-0.12584610154479742,0.11893456859067082
1739817649843906000,11.567906005859374,0.631599282681942,-0.1512698080714792,0.11455386928841471
1739817649853974800,11.577974853515625,0.6507791994482278,-0.20426658117845653,0.12163717861287295
1739817649864043800,11.588043701171875,0.6095183837771415,-0.23236089515388011,0.08492467389591038
1739817649874112800,11.59811279296875,0.5133469972670078,-0.2556445209119469,0.058428077440708874
1739817649884183000,11.60818310546875,0.40102293285727497,-0.30924970824085174,0.0680556644205004
1739817649894251800,11.618251708984374,0.3016507044792175,-0.4510006504040211,0.08885982138775289
1739817649904320800,11.62832080078125,0.19197452422976494,-0.6259764012988657,0.08039923236072063
1739817649914390800,11.638390869140625,0.0402373178422451,-0.7131237196803093,0.019576076477020976
1739817649924460000,11.6484599609375,-0.17041560337245462,-0.6605247867844999,-0.03918897783309221
1739817649934528800,11.65852880859375,-0.461389431014657,-0.5210434700537473,-0.10885711895152926
1739817649944597800,11.66859765625,-0.8597785082370042,-0.3416887003570795,-0.15768201320134104
1739817649954667800,11.678667724609374,-1.3063836270958185,-0.2024295019444078,-0.17090214478038251
1739817649964737000,11.688737060546876,-1.7939187222361563,-0.09259199365340173,-0.19124905949942766
1739817649974805800,11.6988056640625,-2.2835066582530734,-0.009414747946709394,-0.2283501251425594
1739817649984874800,11.708874755859375,-2.5860966894090174,0.05295432220473885,-0.3013763445172459
1739817649994944800,11.71894482421875,-2.6977994070500135,0.07437558815702795,-0.40773689741268754
1739817650005014000,11.729013916015624,-2.649697931703925,0.02831782053299248,-0.4273111472588032
1739817650015082800,11.739082763671876,-2.3553227711856364,-0.02825125810280442,-0.3954142261300236
1739817650025153000,11.749153076171876,-1.8606635232537985,-0.036120603238418696,-0.35573724558427927
1739817650035221800,11.7592216796875,-1.3156915536671876,-0.03379822470545769,-0.27401962410137054
1739817650045290800,11.769290771484375,-0.6542641189545393,-0.050453883691132066,-0.12461276035755872
1739817650055359700,11.77935986328125,0.020690905851125718,-0.11253142355009912,-0.01768902062140405
1739817650065430000,11.789429931640624,0.643906391069293,-0.17597762141376733,0.039161213043332095
1739817650075498800,11.799498779296876,1.0971645380765198,-0.19328451084978876,0.08681530994810163
1739817650085567700,11.809567626953125,1.3591338050305843,-0.14657763166725635,0.13552147318907082
1739817650095637800,11.8196376953125,1.439836988773942,-0.025239362935721873,0.18484101908802986
1739817650105707000,11.82970703125,1.330748837545514,0.09864566766917705,0.18075791449286044
1739817650115775700,11.839775634765624,1.1140887848705052,0.22619565052241086,0.1332091776587069
1739817650125844700,11.8498447265625,0.8018921364575624,0.3808440681815147,0.011857099597528576
1739817650135914800,11.859914794921876,0.46281683346927166,0.5624412830427289,-0.1385424284454435
1739817650145984000,11.86998388671875,0.1527718101322651,0.6940187678463756,-0.239932061060518
1739817650156052700,11.880052734375,-0.07170914542675018,0.8215764956146479,-0.32842078411355613
1739817650166121700,11.890121826171875,-0.250729495537281,0.9767771403290331,-0.3805294492743909
1739817650176191700,11.900191650390624,-0.3552420094132423,1.1046309284344316,-0.3777162184845656
1739817650186261000,11.910260986328124,-0.3768704883754253,1.1850053186148404,-0.3434857763743028
1739817650196329700,11.920329833984376,-0.37105215748548503,1.2270321502223611,-0.3038633390273899
1739817650206398700,11.930398681640625,-0.3177291480988264,1.210888824672997,-0.3047014703519642
1739817650216468700,11.94046875,-0.24145079506039618,1.1473949882753192,-0.3422390642488375
1739817650226538000,11.9505380859375,-0.1504097571760416,1.0484950535841286,-0.4144818050956353
1739817650236606700,11.960606689453124,-0.06334989788234234,0.9012155572578311,-0.500646249919571
1739817650246677000,11.970677001953124,0.01986906807422638,0.7821801586411893,-0.5931854539398104
1739817650256745700,11.980745849609375,0.12720599172115324,0.7088499878838658,-0.6602160130962729
1739817650266814700,11.990814697265625,0.21319500691294668,0.612904226823151,-0.6921046047881245
1739817650276884000,12.000884033203125,0.25311259128153324,0.5614395586542785,-0.7108320285465568
1739817650286954000,12.0109541015625,0.27638708388507366,0.552837150003761,-0.6727265351012349
1739817650297022700,12.021022705078124,0.24212825593054293,0.5629844500087201,-0.6100437958907335
1739817650307091700,12.031091796875,0.16840660163760185,0.5695632438771426,-0.5349344135664403
1739817650317161000,12.041160888671875,0.08882394635677338,0.5746257879637181,-0.461370726314187
1739817650327231000,12.05123095703125,0.01333294430375099,0.5544054222337901,-0.39213388928510245
1739817650337299700,12.0612998046875,-0.037332244050502776,0.5211277142710984,-0.342159167413041
1739817650347368700,12.07136865234375,0.0045674540460109705,0.4818399522386491,-0.29408180359490216
1739817650357438000,12.08143798828125,0.11166530824005604,0.37885406340807676,-0.2500817722182721
1739817650367506700,12.091506591796875,0.27797172272801396,0.3006413813062012,-0.2292007140899077
1739817650377576000,12.101575927734375,0.5012245977967977,0.24400734767541288,-0.21821816883720457
1739817650387644700,12.111644775390625,0.6827145528912544,0.19595672573372722,-0.21603907123245297
1739817650397715000,12.12171484375,0.8004612268716096,0.1475090672984719,-0.20949235300272703
1739817650407783700,12.13178369140625,0.83835753454566,0.09344093863293527,-0.2110780512915924
1739817650417853000,12.14185302734375,0.784938079047203,0.06519771770611404,-0.22510621131788938
1739817650427921700,12.151921630859375,0.666416913563013,0.04721753211840987,-0.24647523562628773
1739817650437992000,12.161991943359375,0.5077437704324722,0.08724252238422632,-0.2552821904055774
1739817650448060700,12.172060791015625,0.32210370992124077,0.1327798463307321,-0.2524635527882725
1739817650458130000,12.1821298828125,0.13533376859724522,0.1356834588177502,-0.23636662366390226
1739817650468199700,12.19219970703125,-0.07715396682918071,0.10460274944268166,-0.18353011915255338
1739817650478269000,12.20226904296875,-0.26382629299759863,0.08864902818128466,-0.1475176889963448
1739817650488337700,12.212337646484375,-0.36671325149834155,0.10508505306690931,-0.1185604745812714
1739817650498407000,12.222406982421875,-0.4235527445733547,0.10666479653902351,-0.05719630715604871
1739817650508476700,12.2324765625,-0.4224228637605905,0.028552506071701643,0.08794504463039338
1739817650518546000,12.2425458984375,-0.4105950633227825,-0.18975794415883718,0.2668003038397059
1739817650528614700,12.25261474609375,-0.45136897225975986,-0.441867422812432,0.4459192189538851
1739817650538685000,12.262684814453126,-0.585809591409564,-0.4174188449282199,0.5826774308636784
1739817650548753700,12.272753662109375,-0.7438888603001833,-0.01736512242928147,0.6686549748133868
1739817650558823000,12.282822998046875,-0.975683353742957,0.36973895599506795,0.7231990504276007
1739817650568891600,12.2928916015625,-1.2209464005678892,0.4559232014980167,0.8567353411488234
1739817650578962000,12.3029619140625,-1.3551613942682743,0.2688655292738229,1.0291124538525938
1739817650589030700,12.31303076171875,-1.2483277439683675,0.027666517017409204,1.0773322218161077
1739817650599100000,12.323099853515625,-0.9529244094461202,-0.048211073200404644,1.009531189743802
1739817650609168600,12.333168701171875,-0.5972866787135601,0.07775310176610946,0.9714954005338251
1739817650619239000,12.343239013671875,-0.21496552371680736,0.19943229288980363,1.0927839849047363
1739817650629307600,12.3533076171875,0.10964227797985077,0.1892388887207955,1.341743109768629
1739817650639377000,12.363376953125,0.37595863422751424,0.16534436452277004,1.558027607129514
1739817650649446000,12.37344580078125,0.5643851105868816,0.11923508590720593,1.6953978499904274
1739817650659516000,12.383515869140625,0.693677845454216,0.13529292513020336,1.8064825818635522
1739817650669584600,12.393584716796875,0.7254337506771087,0.15082615595720708,1.8156201203040778
1739817650679654000,12.40365380859375,0.7402279997050761,0.11586787449643016,1.8636714728981256
1739817650689723000,12.413722900390624,0.7323650112450122,0.11432780544757842,1.9166466917604208
1739817650699793000,12.42379296875,0.740879157090187,0.19380363935306666,2.061514304639399
1739817650709861600,12.433861572265625,0.6564747807413339,0.3498884464908391,2.086113323844969
1739817650719931000,12.443930908203125,0.6112526602238416,0.4355289405059069,2.223076301079243
1739817650730000600,12.454000732421875,0.5988935293883085,0.5704304551657289,2.359422899980843
1739817650740070000,12.46406982421875,0.3740203596413135,0.6671012425653636,2.378257802701741
1739817650750139000,12.474138916015624,0.21559680735766887,0.7612227838736026,2.423547581627965
