time,seconds_elapsed,z,y,x
1739817638304434000,0.028433837890625,-0.017780451104044914,-0.5799416899681091,-0.2405133694410324
1739817638314503000,0.0385029296875,0.011538315564393997,-0.5369110703468323,-0.13815349340438843
1739817638324573000,0.048572998046875,0.038492970168590546,-0.4493865668773651,-0.04944438487291336
1739817638334642000,0.058641845703125,0.0640144869685173,-0.3445432782173157,0.011726905591785908
1739817638344707800,0.068707763671875,0.08866284787654877,-0.26760533452033997,0.03728393092751503
1739817638354777600,0.078777587890625,0.10610483586788177,-0.2083001583814621,0.03796239197254181
1739817638364846600,0.0888466796875,0.11195234209299088,-0.15079638361930847,0.02357865869998932
1739817638374916600,0.09891650390625,0.11574708670377731,-0.08637525886297226,0.011046911589801311
1739817638384985600,0.108985595703125,0.12223321944475174,-0.0333075113594532,-0.005223138257861137
1739817638395055900,0.119055908203125,0.1202608272433281,0.004331233445554972,-0.026500286534428596
1739817638405124600,0.12912451171875,0.11410439014434814,0.024751819670200348,-0.0439184233546257
1739817638415193600,0.139193603515625,0.11328679323196411,0.0510089285671711,-0.05714370682835579
1739817638425263600,0.149263671875,0.11018713563680649,0.08525238931179047,-0.049063947051763535
1739817638435332900,0.159332763671875,0.1058323085308075,0.08245465904474258,-0.022393809631466866
1739817638445402600,0.169402587890625,0.09540257602930069,0.06246284022927284,0.014889378100633621
1739817638455471900,0.179471923828125,0.08250939100980759,0.02468128874897957,0.0585770346224308
1739817638465541600,0.189541748046875,0.07579449564218521,-0.0036677950993180275,0.09927279502153397
1739817638475610600,0.199610595703125,0.07820846885442734,-0.029267100617289543,0.13378655910491943
1739817638485679600,0.2096796875,0.08133768290281296,-0.03243439644575119,0.15120495855808258
1739817638495749600,0.21974951171875,0.09082561731338501,-0.009298093616962433,0.16066135466098785
1739817638505818600,0.229818603515625,0.11335808783769608,0.014377674087882042,0.16839464008808136
1739817638515888600,0.239888671875,0.14058522880077362,0.026626281440258026,0.17784661054611206
1739817638525957600,0.24995751953125,0.15996000170707703,0.043279293924570084,0.18281686305999756
1739817638536027600,0.260027587890625,0.19042767584323883,0.056156422942876816,0.16113121807575226
1739817638546096600,0.2700966796875,0.22830262780189514,0.07634797692298889,0.1345672607421875
1739817638556165600,0.28016552734375,0.2579314410686493,0.09511727839708328,0.07908091694116592
1739817638566235600,0.290235595703125,0.28568610548973083,0.112948477268219,-0.011170686222612858
1739817638576304600,0.3003046875,0.3028978705406189,0.10822299122810364,-0.1202394962310791
1739817638586374700,0.310374755859375,0.3118783235549927,0.06945109367370605,-0.2277318686246872
1739817638596443600,0.320443603515625,0.30719104409217834,0.011922178789973259,-0.2974648177623749
1739817638606512600,0.3305126953125,0.2947458326816559,-0.043589819222688675,-0.31322646141052246
1739817638616582700,0.340582763671875,0.28379014134407043,-0.045355889946222305,-0.2594291567802429
1739817638626651600,0.350651611328125,0.26400020718574524,-0.01469438150525093,-0.12290780991315842
1739817638636721700,0.3607216796875,0.23524673283100128,-0.016584640368819237,0.057650335133075714
1739817638646790700,0.370790771484375,0.2018411010503769,-0.025925412774086,0.2305009365081787
1739817638656860700,0.380860595703125,0.1662522405385971,-0.020340992137789726,0.3548625111579895
1739817638666929700,0.3909296875,0.12609922885894775,-0.010695022530853748,0.41539883613586426
1739817638676998700,0.40099853515625,0.0814465656876564,-0.0009693247266113758,0.4090404212474823
1739817638687068700,0.411068603515625,0.04042509198188782,0.003135672304779291,0.34598636627197266
1739817638697137700,0.4211376953125,0.007637631148099899,-0.006508525460958481,0.24802711606025696
1739817638707207700,0.431207763671875,-0.013145411387085915,-0.019934318959712982,0.13969451189041138
1739817638717276700,0.441276611328125,-0.035178788006305695,-0.010344174690544605,0.028348460793495178
1739817638727346700,0.4513466796875,-0.050759874284267426,0.008397554978728294,-0.06265654414892197
1739817638737415700,0.461415771484375,-0.05583358183503151,0.026539858430624008,-0.13026100397109985
1739817638747484700,0.471484619140625,-0.0558445006608963,0.03627743944525719,-0.1751278042793274
1739817638757554700,0.4815546875,-0.05005146935582161,0.03758423775434494,-0.19288311898708344
1739817638767623700,0.491623779296875,-0.037755921483039856,0.02152644470334053,-0.1934354454278946
1739817638777693700,0.501693603515625,-0.01623612642288208,-0.016029775142669678,-0.1726737916469574
1739817638787762700,0.5117626953125,0.00982450321316719,-0.0683789998292923,-0.14140136539936066
1739817638797831700,0.521831787109375,0.042257871478796005,-0.1102023720741272,-0.10908728092908859
1739817638807901700,0.531901611328125,0.07559798657894135,-0.10128557682037354,-0.06564872711896896
1739817638817970700,0.541970703125,0.11352888494729996,-0.05460824817419052,-0.008941266685724258
1739817638828040700,0.552040771484375,0.14928022027015686,0.024803219363093376,0.04982537776231766
1739817638838109700,0.562109619140625,0.15966106951236725,0.10489664226770401,0.10211917757987976
1739817638848179500,0.572179443359375,0.16217829287052155,0.16972915828227997,0.1427190750837326
1739817638858248700,0.582248779296875,0.14734037220478058,0.20481213927268982,0.15614356100559235
1739817638868317700,0.592317626953125,0.1192765161395073,0.1855502873659134,0.1471969485282898
1739817638878387700,0.6023876953125,0.09109648317098618,0.12010233104228973,0.12318818271160126
1739817638888456700,0.612456787109375,0.059433627873659134,0.04023413360118866,0.0865878239274025
1739817638898526700,0.622526611328125,0.02890930138528347,-0.03687519580125809,0.03593074530363083
1739817638908595500,0.632595458984375,-0.005157321225851774,-0.11391884833574295,-0.014010712504386902
1739817638918664700,0.642664794921875,-0.03557687625288963,-0.16636818647384644,-0.0529501847922802
1739817638928734500,0.652734375,-0.052921246737241745,-0.1776277720928192,-0.07841426134109497
1739817638938803700,0.6628037109375,-0.06612995266914368,-0.1806928962469101,-0.07858256995677948
1739817638948873700,0.672873779296875,-0.07296521961688995,-0.1672079712152481,-0.060575079172849655
1739817638958942700,0.682942626953125,-0.07234526425600052,-0.12554877996444702,-0.03513893112540245
1739817638969012700,0.6930126953125,-0.06412035971879959,-0.059208910912275314,-0.007923022843897343
1739817638979081700,0.703081787109375,-0.05717063695192337,-0.01016387902200222,0.014386839233338833
1739817638989150700,0.713150634765625,-0.04898647591471672,0.028032507747411728,0.030369266867637634
1739817638999220700,0.723220703125,-0.0511418841779232,0.06901410967111588,0.04540257528424263
1739817639009289700,0.733289794921875,-0.050975169986486435,0.10090546309947968,0.04960557818412781
1739817639019359500,0.743359375,-0.04738060012459755,0.10637787729501724,0.04701840505003929
1739817639029428700,0.7534287109375,-0.04399945214390755,0.08320784568786621,0.04132669419050217
1739817639039497700,0.763497802734375,-0.04066851735115051,0.05191565677523613,0.026466909795999527
1739817639049567700,0.773567626953125,-0.03830922394990921,0.021082377061247826,0.014135141856968403
1739817639059636500,0.783636474609375,-0.034324582666158676,-0.014620697125792503,0.004472748376429081
1739817639069706800,0.793706787109375,-0.03240657225251198,-0.03164095804095268,0.00005190074443817139
1739817639079775500,0.803775390625,-0.024501703679561615,-0.04253564029932022,0.002770841121673584
1739817639089844700,0.8138447265625,-0.020179925486445427,-0.03932306915521622,0.004767679609358311
1739817639099914500,0.82391455078125,-0.018489262089133263,-0.03132951632142067,-0.00291255209594965
1739817639109983700,0.833983642578125,-0.02443663403391838,-0.031651224941015244,-0.011809374205768108
1739817639120053800,0.8440537109375,-0.023696601390838623,-0.043213311582803726,-0.028269128873944283
1739817639130122800,0.854122802734375,-0.026890797540545464,-0.04908531531691551,-0.04118306189775467
1739817639140192800,0.86419287109375,-0.02719029411673546,-0.06047094613313675,-0.05009376257658005
1739817639150261800,0.87426171875,-0.03263060003519058,-0.06328031420707703,-0.054912224411964417
1739817639160330800,0.884330810546875,-0.03069370426237583,-0.0602545402944088,-0.05794680491089821
1739817639170400500,0.894400390625,-0.027240648865699768,-0.027669697999954224,-0.04574420303106308
1739817639180469800,0.9044697265625,-0.023935964331030846,0.005083371419459581,-0.016970902681350708
1739817639190539500,0.91453955078125,-0.020218990743160248,0.02757216803729534,0.00766387116163969
1739817639200608800,0.92460888671875,-0.017794115468859673,0.03414560481905937,0.007288243155926466
1739817639210677500,0.934677490234375,-0.011231288313865662,0.025816302746534348,-0.007800429128110409
1739817639220747800,0.944747802734375,-0.006808890029788017,0.02180461585521698,-0.030963066965341568
1739817639230816500,0.95481640625,-0.003100704401731491,0.020080752670764923,-0.039007674902677536
1739817639240886800,0.96488671875,-0.0009003742597997189,0.01747068762779236,-0.05377013981342316
1739817639250955500,0.97495556640625,-0.002269238932058215,0.00677117146551609,-0.06621695309877396
1739817639261024800,0.985024658203125,-0.0041356161236763,-0.007462763227522373,-0.07884711772203445
1739817639271094500,0.995094482421875,-0.0048421528190374374,-0.019238462671637535,-0.08515055477619171
1739817639281163800,1.005163818359375,-0.004812188912183046,-0.023022795096039772,-0.08015105128288269
1739817639291233500,1.015233642578125,-0.004829765763133764,-0.0026128615718334913,-0.06055738404393196
1739817639301302800,1.025302734375,-0.006078815553337336,0.021346701309084892,-0.036492496728897095
1739817639311372800,1.035372802734375,-0.006980828009545803,0.035139478743076324,-0.012267318554222584
1739817639321441500,1.045441650390625,-0.009386727586388588,0.04641290754079819,-0.006426739506423473
1739817639331510500,1.055510498046875,-0.00732464250177145,0.06356446444988251,-0.016278836876153946
1739817639341580500,1.06558056640625,-0.011118348687887192,0.06797850877046585,-0.028779033571481705
1739817639351649800,1.07564990234375,-0.0064966995269060135,0.054479215294122696,-0.036489684134721756
1739817639361719800,1.0857197265625,0.00009589502587914467,0.0561586357653141,-0.03505486249923706
1739817639371788800,1.095788818359375,0.007416392210870981,0.05224218964576721,-0.020507875829935074
1739817639381857800,1.10585791015625,0.009587469510734081,0.0458892285823822,-0.007115669548511505
1739817639391927800,1.115927734375,0.011635173112154007,0.026708880439400673,0.007455284241586924
1739817639401996800,1.125996826171875,0.010993795469403267,0.010939378291368484,0.0039125969633460045
1739817639412066800,1.13606689453125,0.008383097127079964,0.011223005130887032,-0.0042244261130690575
1739817639422135800,1.1461357421875,0.014633087441325188,0.015230612829327583,-0.01588161289691925
1739817639432204800,1.156204833984375,0.017808640375733376,0.0164727121591568,-0.03255939111113548
1739817639442274800,1.16627490234375,0.01461331732571125,0.019348954781889915,-0.03433367609977722
1739817639452343800,1.17634375,0.014025557786226273,0.008886462077498436,-0.025373205542564392
1739817639462413800,1.186413818359375,0.012696580030024052,0.01770981214940548,-0.01668180152773857
1739817639472482600,1.196482666015625,0.011084835045039654,0.02151227369904518,-0.0032690567895770073
1739817639482551800,1.2065517578125,0.008814571425318718,0.005770355463027954,0.007065247278660536
1739817639492621800,1.216621826171875,0.003927138168364763,-0.0002443939447402954,0.00566176138818264
1739817639502690800,1.22669091796875,0.002197996247559786,-0.0012870696373283863,-0.002804543823003769
1739817639512760800,1.2367607421875,-0.0023666617926210165,-0.009471761994063854,-0.013606591150164604
1739817639522829800,1.246829833984375,-0.0019828123040497303,-0.02374623902142048,-0.017298739403486252
1739817639532898600,1.256898681640625,-0.0024677738547325134,-0.013455251231789589,-0.01481853798031807
1739817639542968800,1.26696875,0.001527111977338791,-0.002278437139466405,-0.014787022955715656
1739817639553037800,1.277037841796875,-0.0008521559648215771,0.01225283369421959,-0.012666613794863224
1739817639563107800,1.28710791015625,0.001349178608506918,0.02209494076669216,-0.015355991199612617
1739817639573176800,1.2971767578125,-0.002346490044146776,0.021439803764224052,-0.020887378603219986
1739817639583246600,1.30724658203125,-0.005000691395252943,0.01651870831847191,-0.024815481156110764
1739817639593315800,1.31731591796875,-0.012989109382033348,0.008075688034296036,-0.025185659527778625
1739817639603384800,1.327384765625,-0.01641683652997017,0.0045942338183522224,-0.022298559546470642
1739817639613454800,1.337454833984375,-0.020586814731359482,0.016846373677253723,-0.0222327783703804
1739817639623523800,1.34752392578125,-0.02176666632294655,0.021489357575774193,-0.023783555254340172
1739817639633593900,1.35759375,-0.02256854437291622,0.01250944472849369,-0.013981791213154793
1739817639643662600,1.36766259765625,-0.021550476551055908,0.02222837693989277,-0.0029510166496038437
1739817639653731800,1.37773193359375,-0.022867409512400627,0.03879483789205551,0.004731402732431889
1739817639663801600,1.387801513671875,-0.017546556890010834,0.04637732729315758,0.007745744660496712
1739817639673870800,1.397870849609375,-0.013734242878854275,0.035340387374162674,0.0049286531284451485
1739817639683940900,1.40794091796875,-0.017120547592639923,0.022394655272364616,0.0014357101172208786
1739817639694009900,1.418009765625,-0.01957651413977146,0.0082777701318264,-0.006507699377834797
1739817639704078600,1.42807861328125,-0.020238664001226425,-0.011670969426631927,-0.016338016837835312
1739817639714148900,1.43814892578125,-0.018188562244176865,-0.015068896114826202,-0.025036964565515518
1739817639724217900,1.4482177734375,-0.017778191715478897,-0.016660789027810097,-0.02834213152527809
1739817639734287600,1.45828759765625,-0.010608429089188576,-0.0034629618749022484,-0.028402850031852722
1739817639744356900,1.46835693359375,-0.006211946718394756,-0.003141765482723713,-0.026152007281780243
1739817639754425900,1.47842578125,-0.0008025337010622025,-0.006629707291722298,-0.01837264746427536
1739817639764496000,1.488495849609375,0.0020310357213020325,-0.0026891662273555994,-0.0009469026699662209
1739817639774564900,1.49856494140625,0.005370639264583588,0.003879253752529621,0.00865112990140915
1739817639784635000,1.508634765625,0.009706581011414528,0.002142826095223427,0.011936290189623833
1739817639794703600,1.51870361328125,0.012649374082684517,-0.00705706374719739,0.0013494258746504784
1739817639804772900,1.52877294921875,0.011188527569174767,-0.015340710058808327,-0.016990255564451218
1739817639814842600,1.538842529296875,0.0066422452218830585,-0.023493710905313492,-0.027943037450313568
1739817639824912000,1.548911865234375,0.003679109737277031,-0.02818555012345314,-0.030771404504776
1739817639834981600,1.558981689453125,0.0013680183328688145,-0.03400961682200432,-0.026329785585403442
1739817639845051000,1.56905078125,0.0006961296312510967,-0.02421867474913597,-0.012017987668514252
1739817639855119600,1.57911962890625,0.0060501485131680965,-0.010348930954933167,-0.0011035557836294174
1739817639865190000,1.58918994140625,0.007178632542490959,0.0013600708916783333,0.004034304991364479
1739817639875258600,1.599258544921875,0.006078747101128101,0.00979616679251194,-0.008994411677122116
1739817639885329000,1.609328857421875,0.00490918243303895,0.0016320887953042984,-0.029228102415800095
1739817639895398000,1.61939794921875,0.0014081909321248531,-0.01712721772491932,-0.05767998471856117
1739817639905467000,1.629466796875,0.0035323696210980415,-0.026843585073947906,-0.08035945892333984
1739817639915537000,1.639536865234375,-0.004564172588288784,-0.03949812427163124,-0.0988929346203804
1739817639925606000,1.64960595703125,-0.008499225601553917,-0.05062813684344292,-0.11000990867614746
1739817639935676000,1.659676025390625,-0.008647031150758266,-0.04522884264588356,-0.10689001530408859
1739817639945744600,1.66974462890625,-0.014965476468205452,-0.02961909770965576,-0.10244514793157578
1739817639955814000,1.67981396484375,-0.014679186046123505,-0.024758297950029373,-0.09629856795072556
1739817639965883600,1.689883544921875,-0.013972184620797634,-0.027264075353741646,-0.10595862567424774
1739817639975953000,1.699952880859375,-0.01614905148744583,-0.02350182831287384,-0.11130385845899582
1739817639986022700,1.710022705078125,-0.019349586218595505,-0.018898092210292816,-0.10379034280776978
1739817639996092000,1.720091796875,-0.023927027359604836,-0.009023090824484825,-0.0883709043264389
1739817640006160600,1.73016064453125,-0.028347095474600792,-0.014717519283294678,-0.06363794952630997
1739817640016231000,1.74023095703125,-0.031678710132837296,-0.04002340883016586,-0.049240902066230774
1739817640026299600,1.750299560546875,-0.03526262938976288,-0.05759402737021446,-0.04124404862523079
1739817640036370000,1.760369873046875,-0.036375295370817184,-0.07164459675550461,-0.03506311774253845
1739817640046438700,1.770438720703125,-0.036436110734939575,-0.06757380068302155,-0.028425928205251694
1739817640056508000,1.7805078125,-0.03475991636514664,-0.05437171086668968,-0.02726505696773529
1739817640066577700,1.79057763671875,-0.04082341119647026,-0.044443752616643906,-0.03564058244228363
1739817640076647000,1.80064697265625,-0.041440464556217194,-0.042453840374946594,-0.037766583263874054
1739817640086717000,1.810717041015625,-0.03956146910786629,-0.03908705338835716,-0.04539766162633896
1739817640096785700,1.82078564453125,-0.03631507605314255,-0.011188575066626072,-0.05116500332951546
1739817640106854700,1.830854736328125,-0.032230690121650696,0.01310733612626791,-0.03829222172498703
1739817640116924700,1.840924560546875,-0.02462044171988964,0.011870563961565495,-0.02024184726178646
1739817640126994000,1.850993896484375,-0.02002289704978466,0.008289121091365814,0.0061594583094120026
1739817640137063700,1.861063720703125,-0.014761822298169136,0.006345545873045921,0.027360085397958755
1739817640147133000,1.8711328125,-0.01218316052109003,-0.0022986005060374737,0.036492474377155304
1739817640157201700,1.88120166015625,-0.010292582213878632,-0.019155876711010933,0.038602497428655624
1739817640167272000,1.89127197265625,-0.012077288702130318,-0.04157776013016701,0.024026043713092804
1739817640177340700,1.901340576171875,-0.006920076906681061,-0.03984430804848671,0.0062752775847911835
1739817640187411000,1.911410888671875,-0.009575941599905491,-0.027680477127432823,-0.011627950705587864
1739817640197479700,1.921479736328125,-0.01158236712217331,-0.01593114249408245,-0.020928774029016495
1739817640207549000,1.931548828125,-0.0033411309123039246,0.002666607964783907,-0.02745751105248928
1739817640217618700,1.94161865234375,-0.004256992135196924,0.025882447138428688,-0.03340861201286316
1739817640227688000,1.95168798828125,-0.007803299464285374,0.031205127015709877,-0.030178993940353394
1739817640237757700,1.9617578125,-0.01184171624481678,0.023795679211616516,-0.023012693971395493
1739817640247826700,1.97182666015625,-0.01658889651298523,0.015291299670934677,-0.009749561548233032
1739817640257895700,1.981895751953125,-0.02405080758035183,-0.0019539985805749893,-0.00431804358959198
1739817640267965700,1.991965576171875,-0.029013996943831444,-0.019571539014577866,-0.012990267015993595
1739817640278034700,2.00203466796875,-0.038817357271909714,-0.030213262885808945,-0.03514643386006355
1739817640288104700,2.012104736328125,-0.04225027561187744,-0.03482654318213463,-0.06638540327548981
1739817640298173700,2.022173583984375,-0.049248263239860535,-0.04042051360011101,-0.09972445666790009
1739817640308242700,2.03224267578125,-0.0531512014567852,-0.04117078334093094,-0.12622463703155518
1739817640318313000,2.04231298828125,-0.05710306763648987,-0.04221953824162483,-0.13513530790805817
1739817640328381700,2.052381591796875,-0.07147514820098877,-0.03610466420650482,-0.12588025629520416
1739817640338452000,2.062451904296875,-0.08561680465936661,-0.029142092913389206,-0.08987750858068466
1739817640348520200,2.072520263671875,-0.10197558999061584,-0.031587060540914536,-0.036477867513895035
1739817640358589200,2.082589111328125,-0.1109754741191864,-0.04269244149327278,0.016479620710015297
1739817640368659200,2.0926591796875,-0.11449134349822998,-0.04123106598854065,0.05848503112792969
1739817640378728200,2.102728271484375,-0.10327836871147156,-0.02397244982421398,0.07304053753614426
1739817640388797200,2.112797119140625,-0.08995357155799866,0.010377299040555954,0.05151971057057381
1739817640398867200,2.1228671875,-0.0754350796341896,0.04851802438497543,0.013888978399336338
1739817640408936200,2.132936279296875,-0.06388895958662033,0.06762966513633728,-0.03296234831213951
1739817640419006200,2.143006103515625,-0.05059898644685745,0.07242602109909058,-0.07615642249584198
1739817640429075200,2.1530751953125,-0.04142613708972931,0.0724821388721466,-0.09893213212490082
1739817640439144200,2.163144287109375,-0.03035803884267807,0.06814438104629517,-0.10697008669376373
1739817640449214200,2.173214111328125,-0.01860600896179676,0.06530346721410751,-0.0904541090130806
1739817640459283200,2.183283203125,-0.003238237928599119,0.06810777634382248,-0.06049701198935509
1739817640469353200,2.193353271484375,0.010140307247638702,0.08634783327579498,-0.021791134029626846
1739817640479422200,2.203422119140625,0.01855722814798355,0.08177385479211807,0.017012186348438263
1739817640489491200,2.2134912109375,0.025832002982497215,0.08264267444610596,0.04379560425877571
1739817640499561200,2.223561279296875,0.031435560435056686,0.07765191048383713,0.055720970034599304
1739817640509630200,2.233630126953125,0.0316690094769001,0.06883106380701065,0.05144449323415756
1739817640519700200,2.2437001953125,0.02625000849366188,0.05457569658756256,0.034188274294137955
1739817640529769200,2.253769287109375,0.016553446650505066,0.027795789763331413,0.008196239359676838
1739817640539838200,2.263838134765625,-0.0019792248494923115,0.001747678965330124,-0.010558007284998894
1739817640549908200,2.273908203125,-0.018632374703884125,-0.023574210703372955,-0.03031407669186592
1739817640559977200,2.283977294921875,-0.032293591648340225,-0.04141100123524666,-0.03980105742812157
1739817640570047200,2.294047119140625,-0.04492093622684479,-0.055302172899246216,-0.04597494378685951
1739817640580116200,2.3041162109375,-0.058688681572675705,-0.06679052114486694,-0.0507768876850605
1739817640590185200,2.314185302734375,-0.0701972022652626,-0.07192645221948624,-0.03725166991353035
1739817640600255200,2.324255126953125,-0.08034544438123703,-0.06756339967250824,-0.03348170220851898
1739817640610324200,2.33432421875,-0.07641356438398361,-0.07467030733823776,-0.03683135658502579
1739817640620394200,2.344394287109375,-0.08128634840250015,-0.08712085336446762,-0.03821700066328049
1739817640630463200,2.354463134765625,-0.08500207960605621,-0.0940968468785286,-0.04084394872188568
1739817640640532200,2.3645322265625,-0.0799335464835167,-0.08404181152582169,-0.04299098998308182
1739817640650602000,2.37460205078125,-0.06559202820062637,-0.06168566644191742,-0.03585951775312424
1739817640660671200,2.384671142578125,-0.04252346232533455,-0.027046728879213333,-0.026651639491319656
1739817640670740200,2.394740234375,-0.02677828073501587,0.008170031011104584,-0.008181283250451088
1739817640680810200,2.404810302734375,-0.007695931941270828,0.0459914468228817,0.0039773788303136826
1739817640690879200,2.414879150390625,0.022006861865520477,0.08015802502632141,0.022571004927158356
1739817640700949200,2.42494921875,0.040704116225242615,0.09133824706077576,0.04445579648017883
1739817640711018000,2.43501806640625,0.056652363389730453,0.0759221687912941,0.0713186264038086
1739817640721087200,2.445087158203125,0.07172372192144394,0.052916985005140305,0.08112998306751251
1739817640731157200,2.4551572265625,0.0843506008386612,0.01641370728611946,0.0776999443769455
1739817640741226200,2.465226318359375,0.09146416932344437,-0.010831495746970177,0.0707206055521965
1739817640751296300,2.475296142578125,0.1057605966925621,-0.03555876016616821,0.06427416205406189
1739817640761365200,2.485365234375,0.11595198512077332,-0.03921368345618248,0.05934837833046913
1739817640771434200,2.495434326171875,0.12755736708641052,-0.02500414475798607,0.05344447121024132
1739817640781504300,2.505504150390625,0.1450309008359909,0.00493990583345294,0.05624798312783241
1739817640791573200,2.5155732421875,0.1513226181268692,0.03575986996293068,0.06959494948387146
1739817640801643000,2.52564306640625,0.15795736014842987,0.05406830459833145,0.07857885211706161
1739817640811712300,2.535712158203125,0.16189241409301758,0.07357612997293472,0.081968292593956
1739817640821781200,2.54578125,0.1605091691017151,0.08471480011940002,0.07140246778726578
1739817640831851300,2.555851318359375,0.15380224585533142,0.07101403921842575,0.05115186795592308
1739817640841920300,2.565920166015625,0.14390939474105835,0.04837051033973694,0.03826270252466202
1739817640851990300,2.575990234375,0.1347118318080902,0.02909374050796032,0.04026995599269867
1739817640862059000,2.58605908203125,0.12185755372047424,0.01585276797413826,0.053970322012901306
1739817640872128300,2.596128173828125,0.10792676359415054,0.026246631518006325,0.06725423038005829
1739817640882198000,2.606197998046875,0.1060633510351181,0.04571779817342758,0.07627063244581223
1739817640892267300,2.616267333984375,0.10364275425672531,0.07027782499790192,0.07709041982889175
1739817640902337300,2.626337158203125,0.1018078401684761,0.09816963970661163,0.06673365086317062
1739817640912406300,2.63640625,0.10675494372844696,0.10771818459033966,0.053535640239715576
1739817640922475000,2.64647509765625,0.10597757250070572,0.09527323395013809,0.03445835039019585
1739817640932545300,2.656545166015625,0.09973545372486115,0.08281683921813965,0.02687869966030121
1739817640942614300,2.6666142578125,0.10021721571683884,0.06692096590995789,0.03067903034389019
1739817640952684300,2.676684326171875,0.1051788404583931,0.059335242956876755,0.038707539439201355
1739817640962753300,2.686753173828125,0.10922231525182724,0.06549140065908432,0.05286197364330292
1739817640972822300,2.696822265625,0.11462265998125076,0.0815340131521225,0.07583925873041153
1739817640982892300,2.706892333984375,0.12729717791080475,0.10530219227075577,0.11072320491075516
1739817640992961300,2.716961181640625,0.15671482682228088,0.11973001807928085,0.1425347626209259
1739817641003030300,2.7270302734375,0.18782934546470642,0.16135363280773163,0.1616882085800171
1739817641013100000,2.73710009765625,0.22121000289916992,0.21412737667560577,0.15556205809116364
1739817641023169300,2.747169189453125,0.24836091697216034,0.22019565105438232,0.09689047932624817
1739817641033239000,2.757239013671875,0.27982717752456665,0.20305602252483368,-0.015727736055850983
1739817641043308300,2.767308349609375,0.2934178113937378,0.16497281193733215,-0.15630055963993073
1739817641053377000,2.777376953125,0.29313692450523376,0.09957949072122574,-0.26767170429229736
1739817641063447300,2.787447265625,0.2812621295452118,-0.005533078219741583,-0.32324495911598206
1739817641073516000,2.79751611328125,0.26049691438674927,-0.1045788899064064,-0.3171798586845398
1739817641083586300,2.80758642578125,0.2289661467075348,-0.15725594758987427,-0.2581322491168976
1739817641093655000,2.817655029296875,0.18409214913845062,-0.21723587810993195,-0.14509397745132446
1739817641103724300,2.827724365234375,0.12511885166168213,-0.257000595331192,-0.013733022846281528
1739817641113794000,2.8377939453125,0.06921633332967758,-0.23333510756492615,0.11724460870027542
1739817641123863300,2.84786328125,0.011322405189275742,-0.1681598275899887,0.22510956227779388
1739817641133933300,2.857933349609375,-0.05960987135767937,-0.1000680923461914,0.312505841255188
1739817641144002300,2.868002197265625,-0.13417652249336243,-0.0466003380715847,0.3862634003162384
1739817641154071000,2.878071044921875,-0.20437686145305634,-0.05367852747440338,0.4686431288719177
1739817641164141000,2.88814111328125,-0.280775249004364,-0.03987563028931618,0.5356721878051758
1739817641174210300,2.898210205078125,-0.34985315799713135,0.0014982130378484726,0.5486312508583069
1739817641184280000,2.908280029296875,-0.3914320170879364,0.06135542318224907,0.5087687969207764
1739817641194349300,2.918349365234375,-0.4079884886741638,-0.1226300522685051,0.5485140085220337
1739817641204418300,2.928418212890625,-0.45672646164894104,-0.4584490656852722,0.7032926678657532
1739817641214488300,2.93848828125,-0.4754636585712433,-0.3879900872707367,0.6508453488349915
1739817641224557000,2.94855712890625,-0.42100095748901367,-0.3496834337711334,0.4927241802215576
1739817641234626300,2.958626220703125,-0.2764010429382324,-0.34487003087997437,0.31864553689956665
1739817641244696000,2.968696044921875,-0.11687767505645752,-0.15481513738632202,0.13560326397418976
1739817641254765300,2.978765380859375,0.08380217105150223,0.004101857542991638,-0.019378183409571648
1739817641264835000,2.9888349609375,0.30955594778060913,0.07281647622585297,-0.07052125781774521
1739817641274904300,2.998904296875,0.5350459218025208,0.21488957107067108,-0.09179501980543137
1739817641284973000,3.00897314453125,0.7034317851066589,0.47143667936325073,-0.10430708527565002
1739817641295043300,3.019043212890625,0.7807368636131287,0.8049505352973938,-0.07982896268367767
1739817641305112000,3.029112060546875,0.7904952168464661,1.0975160598754883,0.01930401474237442
1739817641315182300,3.039182373046875,0.7850765585899353,1.3468352556228638,0.1675824075937271
1739817641325251000,3.0492509765625,0.7383290529251099,1.536462426185608,0.3223024606704712
1739817641335320300,3.0593203125,0.6469303965568542,1.7358660697937012,0.44971945881843567
1739817641345390000,3.06939013671875,0.602418839931488,2.001250982284546,0.4413509964942932
1739817641355459300,3.079459228515625,0.6810041666030884,1.5421241521835327,0.4726380705833435
1739817641365529300,3.089529296875,0.5885266661643982,1.3323285579681396,0.45665884017944336
1739817641375598300,3.099598388671875,0.36901819705963135,0.8321576118469238,0.3850230574607849
1739817641385667300,3.109667236328125,0.11287672817707062,0.4181273579597473,0.261395126581192
1739817641395737300,3.1197373046875,-0.05360103026032448,0.1348300278186798,0.07176240533590317
1739817641405806300,3.129806396484375,-0.09405791014432907,-0.04100331664085388,-0.1293611079454422
1739817641415875300,3.139875244140625,0.014714215882122517,-0.15731805562973022,-0.2741464376449585
1739817641425945600,3.149945556640625,0.2269551008939743,-0.2227782905101776,-0.3524540364742279
1739817641436014300,3.160014404296875,0.39801672101020813,-0.23212365806102753,-0.373725563287735
1739817641446084600,3.170084716796875,0.45231032371520996,-0.16209982335567474,-0.3442489206790924
1739817641456153300,3.1801533203125,0.4250637888908386,-0.09579399973154068,-0.21861468255519867
1739817641466222600,3.19022265625,0.3520364463329315,-0.06268850713968277,-0.07883840054273605
1739817641476292400,3.200292236328125,0.2705240547657013,-0.054857030510902405,0.04239242151379585
1739817641486361600,3.210361572265625,0.1957038789987564,-0.08492092043161392,0.1255861073732376
1739817641496431400,3.220431396484375,0.13308268785476685,-0.09173047542572021,0.15404705703258514
1739817641506500600,3.23050048828125,0.08157369494438171,-0.10950707644224167,0.13532131910324097
1739817641516569300,3.2405693359375,0.04774032533168793,-0.16107454895973206,0.08888152241706848
1739817641526639400,3.250639404296875,0.03205883502960205,-0.2478581815958023,0.04100188612937927
1739817641536708400,3.260708251953125,0.05307962745428085,-0.44538164138793945,0.004196763038635254
1739817641546778400,3.2707783203125,0.03538691997528076,-0.4102124869823456,-0.051957856863737106
1739817641556847400,3.280847412109375,-0.0025238932576030493,-0.30619969964027405,-0.11747506260871887
1739817641566916400,3.290916259765625,-0.034791287034749985,-0.24508492648601532,-0.18727704882621765
1739817641576986400,3.300986328125,-0.0487578809261322,-0.2575702965259552,-0.23009850084781647
1739817641587055400,3.311055419921875,-0.05291081592440605,-0.2671177387237549,-0.2314167618751526
1739817641597124400,3.321124267578125,-0.06169587001204491,-0.2628471553325653,-0.19550834596157074
1739817641607194400,3.3311943359375,-0.0808892697095871,-0.24496693909168243,-0.13036689162254333
1739817641617263400,3.341263427734375,-0.11613159626722336,-0.24640873074531555,-0.05431336164474487
1739817641627333400,3.35133349609375,-0.1589118242263794,-0.27172553539276123,0.018493205308914185
1739817641637402400,3.36140234375,-0.2007937878370285,-0.291581928730011,0.09097873419523239
1739817641647471400,3.371471435546875,-0.23540262877941132,-0.24011901021003723,0.16505828499794006
1739817641657541600,3.381541748046875,-0.24415810406208038,-0.15359234809875488,0.23352834582328796
1739817641667610400,3.3916103515625,-0.21974889934062958,-0.05168009176850319,0.2871958613395691
1739817641677680400,3.401680419921875,-0.1726202666759491,0.011822765693068504,0.32377636432647705
1739817641687749400,3.411749267578125,-0.08875012397766113,-0.03171565383672714,0.33967170119285583
1739817641697818600,3.421818603515625,-0.0068411859683692455,-0.10275540500879288,0.3525547683238983
1739817641707888400,3.431888427734375,0.04981410503387451,-0.17154164612293243,0.3967355489730835
1739817641717957400,3.441957275390625,0.09533510357141495,-0.2619176506996155,0.44634926319122314
1739817641728027400,3.45202734375,0.12375476211309433,-0.36271482706069946,0.4656926095485687
1739817641738096400,3.462096435546875,0.13484612107276917,-0.39920753240585327,0.4035278260707855
1739817641748165400,3.472165283203125,0.09226056933403015,-0.33103087544441223,0.2801142632961273
1739817641758235400,3.4822353515625,0.04559629037976265,-0.2367047816514969,0.13000831007957458
1739817641768304400,3.492304443359375,0.04499547928571701,-0.2421991527080536,-0.03321150317788124
1739817641778373400,3.502373291015625,0.06654749065637589,-0.37348079681396484,-0.19525688886642456
1739817641788443400,3.512443359375,0.11454164981842041,-0.4956109821796417,-0.34762459993362427
1739817641798512400,3.522512451171875,0.1569521427154541,-0.6178621053695679,-0.47632482647895813
1739817641808582400,3.53258251953125,0.19038386642932892,-0.71370929479599,-0.5508347749710083
1739817641818651400,3.5426513671875,0.21472753584384918,-0.8172865509986877,-0.5751897692680359
1739817641828720400,3.552720458984375,0.2286798357963562,-0.9627023339271545,-0.5620678663253784
1739817641838790400,3.562790283203125,0.22959069907665253,-1.0367928743362427,-0.4660564959049225
1739817641848859400,3.572859375,0.19371499121189117,-1.180289626121521,-0.351962149143219
1739817641858929400,3.582929443359375,0.13501405715942383,-1.3387187719345093,-0.2382097691297531
1739817641868998400,3.592998291015625,0.07772893458604813,-1.425655722618103,-0.13090035319328308
1739817641879067400,3.6030673828125,0.018234916031360626,-1.458672046661377,-0.06626514345407486
1739817641889137400,3.613137451171875,-0.06501097232103348,-1.4586535692214966,-0.038261473178863525
1739817641899206400,3.623206298828125,-0.06150345876812935,-1.3329594135284424,0.018811456859111786
1739817641909275400,3.633275390625,-0.15451249480247498,-1.0207821130752563,0.05314546450972557
1739817641919345400,3.643345458984375,-0.2941271662712097,-0.6718252301216125,-0.016544979065656662
1739817641929414400,3.653414306640625,-0.22718408703804016,-0.35452553629875183,-0.3346787691116333
1739817641939484400,3.663484375,-0.10483501106500626,0.17222581803798676,-0.4490630030632019
1739817641949553400,3.673553466796875,-0.12317060679197311,0.44452470541000366,-0.40322786569595337
1739817641959622400,3.683622314453125,-0.15247131884098053,0.5401683449745178,-0.2742787003517151
1739817641969692400,3.6936923828125,-0.19021150469779968,0.6774292588233948,-0.11167246103286743
1739817641979761400,3.703761474609375,-0.2411653697490692,0.7211138606071472,0.008385714143514633
1739817641989831400,3.71383154296875,-0.2791745364665985,0.6292534470558167,0.07158518582582474
1739817641999900400,3.723900390625,-0.2761833965778351,0.5672576427459717,0.12623430788516998
1739817642009969400,3.733969482421875,-0.251088947057724,0.504406750202179,0.1773827075958252
1739817642020039400,3.744039306640625,-0.21886058151721954,0.42288389801979065,0.2275434136390686
1739817642030108400,3.7541083984375,-0.2023085057735443,0.333345502614975,0.27472740411758423
1739817642040177400,3.764177490234375,-0.23369115591049194,0.27225562930107117,0.30324220657348633
1739817642050247400,3.774247314453125,-0.2781433165073395,0.19802160561084747,0.30823004245758057
1739817642060316400,3.78431640625,-0.31615984439849854,0.09117511659860611,0.2858920991420746
1739817642070386400,3.794386474609375,-0.34936466813087463,-0.03700655698776245,0.23576395213603973
1739817642080455400,3.804455322265625,-0.3639248013496399,-0.16766586899757385,0.15775816142559052
1739817642090524400,3.8145244140625,-0.3669150173664093,-0.22565911710262299,0.0531955361366272
1739817642100594400,3.824594482421875,-0.3438935875892639,-0.3007688820362091,-0.08195266872644424
1739817642110663400,3.834663330078125,-0.32127320766448975,-0.34444019198417664,-0.23632757365703583
1739817642120733400,3.8447333984375,-0.29461875557899475,-0.28718024492263794,-0.3774462342262268
1739817642130802400,3.854802490234375,-0.2620866596698761,-0.18319924175739288,-0.4928079843521118
1739817642140871400,3.864871337890625,-0.2425498068332672,-0.02317090332508087,-0.5716660022735596
1739817642150941400,3.87494140625,-0.23649005591869354,0.15402571856975555,-0.5838590264320374
1739817642161010400,3.885010498046875,-0.23830293118953705,0.281057745218277,-0.5145542621612549
1739817642171079400,3.895079345703125,-0.2239263951778412,0.3370682895183563,-0.3681432604789734
1739817642181149400,3.9051494140625,-0.20483534038066864,0.333003968000412,-0.19904276728630066
1739817642191218400,3.915218505859375,-0.19230888783931732,0.28036633133888245,-0.04577305167913437
1739817642201288400,3.925288330078125,-0.16047793626785278,0.1906195878982544,0.07342597097158432
1739817642211357400,3.935357421875,-0.11620927602052689,0.12293880432844162,0.13525418937206268
1739817642221426400,3.945426513671875,-0.067408986389637,0.09628770500421524,0.13975663483142853
1739817642231496400,3.955496337890625,-0.02069607563316822,0.09560380131006241,0.10587403923273087
1739817642241565400,3.9655654296875,0.03188985213637352,0.13310545682907104,0.05721709132194519
1739817642251634400,3.975634521484375,0.056709978729486465,0.2060755342245102,0.0003727152943611145
1739817642261704400,3.985704345703125,0.06219421699643135,0.2780902683734894,-0.04024703800678253
1739817642271773400,3.9957734375,0.061492208391427994,0.3186004161834717,-0.06652683764696121
1739817642281843500,4.005843505859375,0.05764950066804886,0.3323843479156494,-0.05889410898089409
1739817642291912200,4.015912109375,0.03448266163468361,0.33551329374313354,-0.042811013758182526
1739817642301981400,4.0259814453125,0.01436422485858202,0.3287928104400635,-0.04016529768705368
1739817642312051200,4.03605126953125,0.002982938662171364,0.3094137907028198,-0.05555330589413643
1739817642322120400,4.046120361328125,-0.025309117510914803,0.2750823497772217,-0.06381164491176605
1739817642332190500,4.0561904296875,-0.07234400510787964,0.22347025573253632,-0.055294062942266464
1739817642342259500,4.066259521484375,-0.13681994378566742,0.1559194177389145,-0.01958461105823517
1739817642352328000,4.076327880859375,-0.2067854404449463,0.08756060898303986,0.02901594713330269
1739817642362398000,4.08639794921875,-0.2757035493850708,0.027018576860427856,0.06549288332462311
1739817642372466700,4.096466796875,-0.33092525601387024,-0.025451289489865303,0.07569332420825958
1739817642382536000,4.106535888671875,-0.3577355146408081,-0.06606169044971466,0.06111209839582443
1739817642392605700,4.116605712890625,-0.3677726984024048,-0.09805185347795486,0.038757793605327606
1739817642402675000,4.126675048828125,-0.36458101868629456,-0.12498321384191513,0.007003572769463062
1739817642412744700,4.13674462890625,-0.3521011769771576,-0.15842106938362122,-0.029796786606311798
1739817642422814000,4.14681396484375,-0.3213891088962555,-0.18469509482383728,-0.07253968715667725
1739817642432882700,4.156882568359375,-0.2861000895500183,-0.1906035840511322,-0.11598037928342819
1739817642442953000,4.166952880859375,-0.25498974323272705,-0.16929249465465546,-0.15731051564216614
1739817642453021700,4.177021728515625,-0.22642865777015686,-0.12427041679620743,-0.19863557815551758
1739817642463091000,4.187091064453125,-0.19182023406028748,-0.08677695691585541,-0.2210633009672165
1739817642473160700,4.19716064453125,-0.1531388908624649,-0.046143244951963425,-0.23530402779579163
1739817642483230000,4.20722998046875,-0.11170284450054169,0.003794667776674032,-0.2245759516954422
1739817642493299700,4.2172998046875,-0.0713101476430893,0.060083236545324326,-0.19619065523147583
1739817642503369000,4.227368896484375,-0.04455578327178955,0.10917671769857407,-0.152467742562294
1739817642513437700,4.237437744140625,-0.022615863010287285,0.14912626147270203,-0.10785713791847229
1739817642523507700,4.2475078125,-0.010033930651843548,0.17987388372421265,-0.07110664248466492
1739817642533576700,4.25757666015625,0.0002677091397345066,0.20335417985916138,-0.04272400587797165
1739817642543646000,4.26764599609375,0.0003053206019103527,0.2096368819475174,-0.023733753710985184
1739817642553715700,4.2777158203125,-0.008296157233417034,0.18158607184886932,-0.019225556403398514
1739817642563785000,4.287784912109375,-0.018530694767832756,0.136479452252388,-0.034497570246458054
1739817642573855000,4.29785498046875,-0.026819515973329544,0.100960873067379,-0.06783342361450195
1739817642583923700,4.307923828125,-0.039862293750047684,0.06502894312143326,-0.10667280852794647
1739817642593992700,4.31799267578125,-0.043543580919504166,0.04541423171758652,-0.14963677525520325
1739817642604062700,4.328062744140625,-0.05141045153141022,0.05237913876771927,-0.18550904095172882
1739817642614132000,4.338132080078125,-0.05552529916167259,0.08332400768995285,-0.21565842628479004
1739817642624200700,4.34820068359375,-0.06616615504026413,0.12965424358844757,-0.2299250066280365
1739817642634271000,4.35827099609375,-0.07622784376144409,0.16625726222991943,-0.233734130859375
1739817642644339700,4.368339599609375,-0.07751245051622391,0.19991417229175568,-0.2258281707763672
1739817642654410000,4.378409912109375,-0.08194874227046967,0.2140212059020996,-0.2174418866634369
1739817642664478700,4.388478759765625,-0.08591652661561966,0.20721730589866638,-0.21412242949008942
1739817642674548000,4.3985478515625,-0.08570560812950134,0.18974457681179047,-0.20538221299648285
1739817642684617700,4.40861767578125,-0.08432251214981079,0.1740427166223526,-0.1814883053302765
1739817642694687000,4.41868701171875,-0.07285281270742416,0.16052238643169403,-0.14569516479969025
1739817642704755700,4.428755615234375,-0.06669311225414276,0.15309515595436096,-0.1067361906170845
1739817642714826000,4.438825927734375,-0.05490942299365997,0.1505364030599594,-0.07089590281248093
1739817642724894700,4.448894775390625,-0.0419824980199337,0.1487150937318802,-0.048221293836832047
1739817642734964700,4.45896484375,-0.027552427724003792,0.1340285688638687,-0.04414639249444008
1739817642745033700,4.46903369140625,-0.013282041996717453,0.1268744021654129,-0.06523534655570984
1739817642755103000,4.47910302734375,0.00905628688633442,0.14110872149467468,-0.10054593533277512
1739817642765172700,4.4891728515625,0.033292386680841446,0.1444094479084015,-0.13640378415584564
1739817642775241700,4.49924169921875,0.05635056644678116,0.13647083938121796,-0.16649244725704193
1739817642785310700,4.509310791015625,0.07396987825632095,0.12409181892871857,-0.18100951611995697
1739817642795380700,4.519380615234375,0.0905509814620018,0.11608955264091492,-0.1721702218055725
1739817642805449700,4.52944970703125,0.09758170694112778,0.1210477352142334,-0.14149749279022217
1739817642815519700,4.539519775390625,0.09014403074979782,0.10442641377449036,-0.10391390323638916
1739817642825589000,4.549589111328125,0.08210083097219467,0.08143512904644012,-0.06735451519489288
1739817642835657700,4.55965771484375,0.07831594347953796,0.06396851688623428,-0.03959665074944496
1739817642845728000,4.56972802734375,0.07113773375749588,0.03568762540817261,-0.020128704607486725
1739817642855796700,4.579796630859375,0.06610675901174545,0.015020960941910744,-0.01423033606261015
1739817642865865700,4.58986572265625,0.05766972899436951,0.009916774928569794,-0.012782697565853596
1739817642875935700,4.599935791015625,0.05841941386461258,0.008837927132844925,-0.010122465901076794
1739817642886005000,4.6100048828125,0.06828572601079941,0.014353489503264427,0.006036089733242989
1739817642896073700,4.62007373046875,0.08387427777051926,0.03231251612305641,0.04066810384392738
1739817642906144000,4.63014404296875,0.09614934772253036,0.0397779755294323,0.08956529945135117
1739817642916212700,4.640212646484375,0.10740625858306885,0.035185351967811584,0.13468298316001892
1739817642926283000,4.650282958984375,0.12138620018959045,0.025557322427630424,0.16785672307014465
1739817642936351700,4.660351806640625,0.13313047587871552,0.01121566817164421,0.17690826952457428
1739817642946421000,4.6704208984375,0.14595827460289001,-0.004137363750487566,0.1703527271747589
1739817642956490800,4.68049072265625,0.15339115262031555,-0.013282392174005508,0.15459534525871277
1739817642966560000,4.69056005859375,0.1560661792755127,-0.02685599960386753,0.11377107352018356
1739817642976628700,4.700628662109375,0.1580291986465454,-0.043680254369974136,0.07564712315797806
1739817642986698800,4.71069873046875,0.1585487276315689,-0.051491234451532364,0.04551132023334503
1739817642996767700,4.720767822265625,0.15723605453968048,-0.04141277074813843,0.042393025010824203
1739817643006837800,4.730837646484375,0.15061531960964203,-0.01724822446703911,0.05724690482020378
1739817643016906800,4.74090673828125,0.13406378030776978,-0.028712067753076553,0.06669420003890991
1739817643026975700,4.750975830078125,0.1240566074848175,-0.09447544068098068,0.03623869642615318
1739817643037045800,4.761045654296875,0.1351180523633957,-0.13608919084072113,-0.02924789860844612
1739817643047114800,4.77111474609375,0.15024994313716888,-0.1335260421037674,-0.11917643249034882
1739817643057183700,4.781183837890625,0.16436442732810974,-0.08983102440834045,-0.21271571516990662
1739817643067253800,4.791253662109375,0.1822463870048523,-0.04188475012779236,-0.2953168451786041
1739817643077322800,4.80132275390625,0.2068081796169281,0.006581585854291916,-0.3190527856349945
1739817643087392800,4.811392822265625,0.21294227242469788,0.03034345619380474,-0.27397456765174866
1739817643097462000,4.8214619140625,0.19243380427360535,0.018098508939146996,-0.16632425785064697
1739817643107530800,4.83153076171875,0.1567227840423584,-0.01023544929921627,-0.029194124042987823
1739817643117601000,4.84160107421875,0.12224551290273666,-0.03929319977760315,0.10228213667869568
1739817643127669800,4.851669677734375,0.09109101444482803,-0.0743943303823471,0.18613111972808838
1739817643137739000,4.861739013671875,0.0628279522061348,-0.11502830684185028,0.20680098235607147
1739817643147808800,4.871808837890625,0.04497024416923523,-0.12899906933307648,0.15982431173324585
1739817643157878000,4.8818779296875,0.0401105061173439,-0.10452461987733841,0.07311151921749115
1739817643167946800,4.89194677734375,0.04866828769445419,-0.04987019672989845,-0.025797557085752487
1739817643178017000,4.90201708984375,0.054939500987529755,0.024431997910141945,-0.11764945089817047
1739817643188085800,4.912085693359375,0.05172763764858246,0.10076475143432617,-0.19337770342826843
1739817643198155800,4.92215576171875,0.044479046016931534,0.14688457548618317,-0.2337038218975067
1739817643208224800,4.932224853515625,0.030076567083597183,0.14272989332675934,-0.24323855340480804
1739817643218294000,4.9422939453125,0.022403733804821968,0.11990155279636383,-0.21760669350624084
1739817643228363800,4.95236376953125,0.01644449681043625,0.11513040959835052,-0.17483855783939362
1739817643238432800,4.962432861328125,0.02535863034427166,0.10555794090032578,-0.1298854649066925
1739817643248501800,4.972501708984375,0.0413777232170105,0.10820774734020233,-0.09200312197208405
1739817643258571800,4.98257177734375,0.06947061419487,0.11974749714136124,-0.060574088245630264
1739817643268640800,4.992640869140625,0.09812508523464203,0.14133106172084808,-0.033178653568029404
1739817643278710000,5.0027099609375,0.1230701208114624,0.15357626974582672,0.005866749212145805
1739817643288779800,5.01277978515625,0.14399605989456177,0.132989302277565,0.06286747008562088
1739817643298848800,5.022848876953125,0.15961603820323944,0.08857150375843048,0.1269039809703827
1739817643308918800,5.032918701171875,0.16657035052776337,0.039682045578956604,0.1924258917570114
1739817643318987800,5.04298779296875,0.17624294757843018,-0.015396121889352798,0.2453354448080063
1739817643329056800,5.053056884765625,0.18818727135658264,-0.06446205824613571,0.27936968207359314
1739817643339126800,5.063126708984375,0.2061827927827835,-0.08686590194702148,0.2816719710826874
1739817643349195800,5.07319580078125,0.22294774651527405,-0.08828900009393692,0.24210667610168457
1739817643359268600,5.0832685546875,0.23809367418289185,-0.06751155108213425,0.1714887022972107
1739817643369338600,5.093338623046875,0.24712716042995453,-0.022297801449894905,0.09866882860660553
1739817643379407600,5.10340771484375,0.2611367106437683,0.0231021698564291,0.041664931923151016
1739817643389476600,5.1134765625,0.2719598710536957,0.0660448893904686,0.009803185239434242
1739817643399546600,5.123546630859375,0.2737734913825989,0.08227791637182236,0.010775506496429443
1739817643409615600,5.13361572265625,0.2690565884113312,0.070870541036129,0.03579667583107948
1739817643419685600,5.143685546875,0.2519393861293793,0.04292786121368408,0.06943666189908981
1739817643429754400,5.15375439453125,0.23167815804481506,0.0025787861086428165,0.08707955479621887
1739817643439823600,5.16382373046875,0.21800042688846588,-0.02059178054332733,0.08348748087882996
1739817643449893400,5.173893310546875,0.21262747049331665,-0.021744536235928535,0.0652172714471817
1739817643459962600,5.183962646484375,0.21373587846755981,-0.004072865005582571,0.03801601380109787
1739817643470031600,5.194031494140625,0.2081812620162964,0.035117991268634796,0.022608481347560883
1739817643480101600,5.2041015625,0.1952231079339981,0.070657879114151,0.020938146859407425
1739817643490170400,5.21417041015625,0.1764703243970871,0.09031830728054047,0.017740920186042786
1739817643500239600,5.224239501953125,0.15108826756477356,0.08424736559391022,0.0045998189598321915
1739817643510309400,5.234309326171875,0.11968591809272766,0.05709077790379524,-0.019727881997823715
1739817643520378600,5.244378662109375,0.0951443538069725,0.024787699803709984,-0.05290421470999718
1739817643530448600,5.25444873046875,0.07129181176424026,-0.0021592723205685616,-0.08981899917125702
1739817643540517600,5.264517578125,0.04965309426188469,-0.009763662703335285,-0.12213486433029175
1739817643550586400,5.27458642578125,0.041082508862018585,0.017519624903798103,-0.1332775205373764
1739817643560656600,5.28465673828125,0.03057713806629181,0.06079838424921036,-0.11464472115039825
1739817643570725600,5.2947255859375,0.032412514090538025,0.11471623927354813,-0.06918951123952866
1739817643580794600,5.304794677734375,0.040055785328149796,0.15980009734630585,-0.013711871579289436
1739817643590864600,5.31486474609375,0.05486723780632019,0.18622799217700958,0.03240855783224106
1739817643600933600,5.32493359375,0.07100546360015869,0.1875864714384079,0.06352598965167999
1739817643611002600,5.335002685546875,0.08809437602758408,0.17811472713947296,0.06948846578598022
1739817643621072600,5.34507275390625,0.09525401890277863,0.1458776891231537,0.04997575283050537
1739817643631141600,5.3551416015625,0.10766692459583282,0.09439609199762344,0.01910167932510376
1739817643641211400,5.36521142578125,0.11539914458990097,0.032175853848457336,-0.023633532226085663
1739817643651280600,5.37528076171875,0.12872004508972168,-0.030539093539118767,-0.068773552775383
1739817643661349600,5.385349609375,0.138523668050766,-0.08760850131511688,-0.10825172066688538
1739817643671419600,5.395419677734375,0.1483505666255951,-0.11648854613304138,-0.1237352043390274
1739817643681488600,5.405488525390625,0.1568678915500641,-0.12734200060367584,-0.11974978446960449
1739817643691557600,5.4155576171875,0.1597089320421219,-0.1242406964302063,-0.1005144789814949
1739817643701627400,5.42562744140625,0.1638546735048294,-0.10291090607643127,-0.06329627335071564
1739817643711696600,5.435696533203125,0.16366229951381683,-0.07784224301576614,-0.03747284412384033
1739817643721765600,5.445765625,0.1562376767396927,-0.04741828888654709,-0.020588139072060585
1739817643731835600,5.455835693359375,0.14808551967144012,-0.02750716358423233,-0.024640768766403198
1739817643741904400,5.465904296875,0.13695697486400604,-0.011823009699583054,-0.027152396738529205
1739817643751973600,5.4759736328125,0.12598499655723572,-0.005850997753441334,-0.029450751841068268
1739817643762043400,5.48604345703125,0.11349929869174957,-0.007622266188263893,-0.01976935938000679
1739817643772112600,5.496112548828125,0.09818874299526215,-0.01649707555770874,-0.004248756915330887
1739817643782182700,5.5061826171875,0.07592525333166122,-0.020845750346779823,-0.007368916645646095
1739817643792251600,5.516251708984375,0.05556745082139969,-0.02182719111442566,-0.012239101342856884
1739817643802320400,5.5263203125,0.034420352429151535,-0.019317427650094032,-0.022009972482919693
1739817643812390700,5.536390625,0.011281163431704044,-0.02379409223794937,-0.03239995241165161
1739817643822459400,5.54645947265625,-0.01275493111461401,-0.029248513281345367,-0.04550163820385933
1739817643832528600,5.556528564453125,-0.032698821276426315,-0.03647452965378761,-0.064763642847538
1739817643842598700,5.5665986328125,-0.049427200108766556,-0.051596757024526596,-0.08828228712081909
1739817643852667600,5.576667724609375,-0.06426327675580978,-0.06383933871984482,-0.1099928468465805
1739817643862736400,5.586736328125,-0.07833222299814224,-0.07686486095190048,-0.127439484000206
1739817643872806700,5.596806640625,-0.0875106155872345,-0.07445253431797028,-0.13237129151821136
1739817643882875600,5.606875732421875,-0.08839718252420425,-0.062127161771059036,-0.114873506128788
1739817643892944600,5.616944580078125,-0.07971588522195816,-0.03773096203804016,-0.09245676547288895
1739817643903014700,5.6270146484375,-0.06502056121826172,-0.01051451824605465,-0.0517926923930645
1739817643913083600,5.637083740234375,-0.05286169797182083,0.024641525000333786,-0.008336097002029419
1739817643923153700,5.647153564453125,-0.048841122537851334,0.05476000905036926,0.025704428553581238
1739817643933222700,5.65722265625,-0.047418348491191864,0.06504030525684357,0.03783804178237915
1739817643943291600,5.667291748046875,-0.04618290811777115,0.0690092146396637,0.033963143825531006
1739817643953361400,5.677361328125,-0.04697788134217262,0.053926803171634674,0.019142333418130875
1739817643963430700,5.6874306640625,-0.05434791371226311,0.03152428939938545,0.005979128181934357
1739817643973499600,5.697499755859375,-0.07003632187843323,-0.006586811505258083,-0.0010144412517547607
1739817643983569700,5.707569580078125,-0.08319473266601562,-0.04403218999505043,-0.00594395212829113
1739817643993638400,5.717638427734375,-0.09679093956947327,-0.07498496770858765,-0.005032124929130077
1739817644003707600,5.727707763671875,-0.10462196171283722,-0.09383881837129593,0.013616394251585007
1739817644013777400,5.73777734375,-0.10968898236751556,-0.1051434800028801,0.042473480105400085
1739817644023846700,5.7478466796875,-0.11010470241308212,-0.10950493812561035,0.07184867560863495
1739817644033915400,5.757915283203125,-0.10052806884050369,-0.11601273715496063,0.09832935035228729
1739817644043985700,5.767985595703125,-0.07787548750638962,-0.12256970256567001,0.11411657184362411
1739817644054054400,5.778054443359375,-0.05142269656062126,-0.12076032161712646,0.1144627258181572
1739817644064123600,5.78812353515625,-0.03644188493490219,-0.11567661166191101,0.10085556656122208
1739817644074193400,5.798193359375,-0.03903382271528244,-0.13583731651306152,0.06649571657180786
1739817644084262700,5.8082626953125,-0.05535260960459709,-0.17516741156578064,0.009563460946083069
1739817644094332400,5.81833251953125,-0.07475638389587402,-0.2205827534198761,-0.052891965955495834
1739817644104401700,5.828401611328125,-0.09836823493242264,-0.23940464854240417,-0.12903493642807007
1739817644114470400,5.838470458984375,-0.13520117104053497,-0.23858048021793365,-0.23318684101104736
1739817644124540700,5.848540771484375,-0.17020656168460846,-0.2417917251586914,-0.34796908497810364
1739817644134609400,5.858609375,-0.2015516608953476,-0.2212148755788803,-0.44138476252555847
1739817644144678700,5.8686787109375,-0.2218760997056961,-0.15120117366313934,-0.49582937359809875
1739817644154748700,5.878748779296875,-0.22798112034797668,-0.038805440068244934,-0.5004990696907043
1739817644164817700,5.888817626953125,-0.21733620762825012,0.08412474393844604,-0.4337466359138489
1739817644174886400,5.898886474609375,-0.19648964703083038,0.17614689469337463,-0.2924390137195587
1739817644184956700,5.908956787109375,-0.17370525002479553,0.21554996073246002,-0.10121313482522964
1739817644195025700,5.919025634765625,-0.15624722838401794,0.20977376401424408,0.10045067965984344
1739817644205094700,5.9290947265625,-0.14519774913787842,0.15541625022888184,0.26991748809814453
1739817644215164700,5.93916455078125,-0.1166485846042633,0.09739311039447784,0.3857715427875519
1739817644225233700,5.949233642578125,-0.07783327251672745,0.0476793497800827,0.44042786955833435
1739817644235302700,5.959302734375,-0.04413865879178047,-0.0005591427907347679,0.448975145816803
1739817644245372400,5.969372314453125,-0.017120355740189552,-0.05133257433772087,0.405899316072464
1739817644255441700,5.979441650390625,-0.0034393712412565947,-0.10207436233758926,0.34090468287467957
1739817644265510700,5.9895107421875,0.013375561684370041,-0.1715778112411499,0.2816120684146881
1739817644275580700,5.99958056640625,0.020005619153380394,-0.1999608278274536,0.2400410771369934
1739817644285649700,6.009649658203125,0.008147628977894783,-0.22192977368831635,0.20923921465873718
1739817644295719700,6.0197197265625,-0.013297511264681816,-0.23462678492069244,0.20111486315727234
1739817644305788400,6.029788330078125,-0.04846055805683136,-0.21814608573913574,0.1971864253282547
1739817644315857700,6.039857666015625,-0.08538750559091568,-0.18962712585926056,0.19940774142742157
1739817644325927400,6.049927490234375,-0.11714915931224823,-0.14779604971408844,0.20671865344047546
1739817644335996700,6.05999658203125,-0.15254630148410797,-0.09529662132263184,0.22373677790164948
1739817644346065400,6.0700654296875,-0.19283592700958252,-0.03936970978975296,0.23227567970752716
1739817644356132900,6.0801328125,-0.21983543038368225,0.02282612957060337,0.24547047913074493
1739817644366201900,6.090201904296875,-0.24246378242969513,0.0771801769733429,0.24007411301136017
1739817644376270800,6.100270751953125,-0.2645435929298401,0.1130385622382164,0.23917658627033234
1739817644386340900,6.1103408203125,-0.2820248305797577,0.13439151644706726,0.2451103776693344
1739817644396409900,6.120409912109375,-0.3020741641521454,0.13421189785003662,0.25217539072036743
1739817644406478800,6.130478759765625,-0.3233642578125,0.10920721292495728,0.2566143572330475
1739817644416548600,6.140548583984375,-0.3420913815498352,0.06885985285043716,0.24522852897644043
1739817644426617900,6.150617919921875,-0.3533192574977875,0.0016483236104249954,0.2135869711637497
1739817644436686800,6.160686767578125,-0.3595271706581116,-0.05693405494093895,0.16068431735038757
1739817644446756900,6.1707568359375,-0.35433506965637207,-0.10886409133672714,0.0900583490729332
1739817644456825900,6.180825927734375,-0.34221145510673523,-0.1362018883228302,0.021142927929759026
1739817644466894800,6.190894775390625,-0.31812235713005066,-0.14494717121124268,-0.046072326600551605
1739817644476964600,6.200964599609375,-0.28621384501457214,-0.12325063347816467,-0.08846145868301392
1739817644487033900,6.211033935546875,-0.24913598597049713,-0.08656904846429825,-0.09827946126461029
1739817644497102800,6.221102783203125,-0.20156820118427277,-0.05631820484995842,-0.08680815994739532
1739817644507172900,6.2311728515625,-0.15166908502578735,-0.014812307432293892,-0.05297243222594261
1739817644517241600,6.24124169921875,-0.10155240446329117,0.025770273059606552,-0.005613240413367748
1739817644527312000,6.251311767578125,-0.05031824856996536,0.07123708724975586,0.05347777530550957
1739817644537380600,6.261380615234375,-0.004833329003304243,0.11690463870763779,0.10279962420463562
1739817644547449900,6.271449951171875,0.041654277592897415,0.14641165733337402,0.1318262219429016
1739817644557519600,6.28151953125,0.0932898297905922,0.16795524954795837,0.13423965871334076
1739817644567588900,6.2915888671875,0.14223766326904297,0.17063571512699127,0.12512604892253876
1739817644577657600,6.30165771484375,0.1726675033569336,0.1492263823747635,0.11217692494392395
1739817644587728000,6.311727783203125,0.18741290271282196,0.11926847696304321,0.08941328525543213
1739817644597796600,6.321796630859375,0.19647248089313507,0.07894843071699142,0.04884370416402817
1739817644607865900,6.331865966796875,0.19069501757621765,0.03095826879143715,-0.006261092610657215
1739817644617936000,6.341935791015625,0.1805402934551239,-0.016639966517686844,-0.07041385024785995
1739817644628004900,6.3520048828125,0.16850359737873077,-0.07127711176872253,-0.13424049317836761
1739817644638073600,6.362073486328125,0.14744947850704193,-0.13498170673847198,-0.18487116694450378
1739817644648144000,6.372143798828125,0.11419832706451416,-0.18128076195716858,-0.23744942247867584
1739817644658212900,6.382212890625,0.08556395769119263,-0.20819348096847534,-0.2922564744949341
1739817644668281900,6.39228173828125,0.06705285608768463,-0.20812104642391205,-0.3451545536518097
1739817644678352000,6.402351806640625,0.04460342973470688,-0.18805700540542603,-0.399933397769928
1739817644688420900,6.4124208984375,0.020465601235628128,-0.15160658955574036,-0.44206035137176514
1739817644698489600,6.422489501953125,-0.003805067390203476,-0.09873736649751663,-0.45729315280914307
1739817644708560000,6.432559814453125,-0.021716423332691193,-0.0519016869366169,-0.42408832907676697
1739817644718628900,6.44262890625,-0.04333622381091118,-0.012121716514229774,-0.3372877836227417
1739817644728697900,6.45269775390625,-0.050357647240161896,0.017308875918388367,-0.20891888439655304
1739817644738768000,6.462767822265625,-0.04023192450404167,0.033478423953056335,-0.06554186344146729
1739817644748836900,6.4728369140625,-0.030059978365898132,0.03411465138196945,0.03401428833603859
1739817644758905900,6.48290576171875,-0.014477641321718693,0.03818633779883385,0.059590715914964676
1739817644768975600,6.4929755859375,0.004852646961808205,0.03898501768708229,0.01851039007306099
1739817644779044900,6.503044921875,0.028094124048948288,0.06207836791872978,-0.06524871289730072
1739817644789113900,6.51311376953125,0.05549512058496475,0.08724311739206314,-0.1565280258655548
1739817644799184000,6.523183837890625,0.07317115366458893,0.11281175166368484,-0.22584734857082367
1739817644809252900,6.5332529296875,0.08158008754253387,0.1393541395664215,-0.25602468848228455
1739817644819321900,6.54332177734375,0.08905362337827682,0.15932536125183105,-0.24219617247581482
1739817644829391600,6.5533916015625,0.10371113568544388,0.17157509922981262,-0.19964604079723358
1739817644839460900,6.5634609375,0.10926347225904465,0.17292895913124084,-0.14323696494102478
1739817644849530600,6.573530517578125,0.11908547580242157,0.16173702478408813,-0.09275727719068527
1739817644859600000,6.583599853515625,0.11924676597118378,0.14093932509422302,-0.06414836645126343
1739817644869668600,6.593668701171875,0.11910402029752731,0.12559711933135986,-0.05498283728957176
1739817644879737900,6.60373779296875,0.11622188240289688,0.11188735067844391,-0.06172256916761398
1739817644889807600,6.6138076171875,0.11205164343118668,0.08537504822015762,-0.07320611923933029
1739817644899876900,6.623876953125,0.10973896086215973,0.061060719192028046,-0.07443713396787643
1739817644909946600,6.633946533203125,0.09906687587499619,0.03967127576470375,-0.06880241632461548
1739817644920016000,6.644015869140625,0.09268967062234879,0.011299027130007744,-0.04186002165079117
1739817644930084600,6.654084716796875,0.09072478860616684,-0.020524948835372925,0.005252363160252571
1739817644940155000,6.66415478515625,0.09798701107501984,-0.04741840064525604,0.06774745136499405
1739817644950223600,6.6742236328125,0.10298123955726624,-0.06781928241252899,0.12549756467342377
1739817644960292900,6.68429296875,0.09878531843423843,-0.07749230414628983,0.1724785715341568
1739817644970363000,6.69436279296875,0.0971786379814148,-0.08732789009809494,0.2043054699897766
1739817644980432000,6.704431884765625,0.09909205138683319,-0.08656465262174606,0.217892125248909
1739817644990500600,6.71450048828125,0.09940044581890106,-0.07429280877113342,0.21190188825130463
1739817645000571000,6.72457080078125,0.11253339052200317,-0.062007129192352295,0.19875645637512207
1739817645010639600,6.7346396484375,0.12754695117473602,-0.04440656304359436,0.19131238758563995
1739817645020708900,6.744708984375,0.14475323259830475,-0.012774796225130558,0.20139996707439423
1739817645030779000,6.75477880859375,0.152260422706604,0.030834199860692024,0.22599585354328156
1739817645040848000,6.764847900390625,0.14252862334251404,0.07544320076704025,0.25794902443885803
1739817645050916600,6.77491650390625,0.11840464919805527,0.0332786962389946,0.2573615312576294
1739817645060987000,6.78498681640625,0.10080531239509583,-0.049816008657217026,0.20478594303131104
1739817645071056000,6.795055908203125,0.10085298120975494,-0.09284470230340958,0.10835021734237671
1739817645081124900,6.805124755859375,0.1081535816192627,-0.09221556782722473,-0.012128657661378384
1739817645091195000,6.81519482421875,0.1123800128698349,-0.06464332342147827,-0.1353248804807663
1739817645101264000,6.825263916015625,0.13601043820381165,-0.03444770723581314,-0.25696060061454773
1739817645111332900,6.835332763671875,0.17428219318389893,0.03302134945988655,-0.35097071528434753
1739817645121402600,6.845402587890625,0.2115059345960617,0.11248081177473068,-0.38030049204826355
1739817645131472000,6.855471923828125,0.23588690161705017,0.17168980836868286,-0.3169606626033783
1739817645141540900,6.865540771484375,0.23496070504188538,0.21592850983142853,-0.17941194772720337
1739817645151611000,6.87561083984375,0.22404786944389343,0.22047586739063263,0.019684365019202232
1739817645161680000,6.885679931640625,0.20229633152484894,0.1709589958190918,0.21889300644397736
1739817645171748900,6.895748779296875,0.1816621571779251,0.08393488079309464,0.3652464747428894
1739817645181818600,6.905818603515625,0.16910982131958008,-0.0013599158264696598,0.4365133047103882
1739817645191888000,6.915887939453125,0.14716272056102753,-0.049226775765419006,0.4139390289783478
1739817645201956900,6.925956787109375,0.12903767824172974,-0.05850965157151222,0.32860589027404785
1739817645212027000,6.93602685546875,0.11272980272769928,-0.03248364105820656,0.20766377449035645
1739817645222095600,6.946095703125,0.09664881974458694,0.0007866299711167812,0.0701400488615036
1739817645232164900,6.956164794921875,0.08277694135904312,0.029765017330646515,-0.03709213435649872
1739817645242234600,6.966234619140625,0.06871964037418365,0.07487807422876358,-0.0796210914850235
1739817645252304000,6.976303955078125,0.05845368281006813,0.10678620636463165,-0.056235600262880325
1739817645262372600,6.98637255859375,0.04285409674048424,0.11372943967580795,0.009869489818811417
1739817645272443000,6.99644287109375,0.033638760447502136,0.10003067553043365,0.08739624172449112
1739817645282511600,7.00651171875,0.024531515315175056,0.0709618628025055,0.14424633979797363
1739817645292580900,7.016580810546875,0.018552185967564583,0.030171291902661324,0.16294892132282257
1739817645302650600,7.026650634765625,0.013275155797600746,-0.011779019609093666,0.13706935942173004
1739817645312720000,7.036719970703125,0.011986186727881432,-0.05759710818529129,0.08302582800388336
1739817645322788600,7.04678857421875,0.015575201250612736,-0.09014089405536652,0.02511587366461754
1739817645332859000,7.05685888671875,0.02466243878006935,-0.11644867062568665,-0.026304706931114197
1739817645342927600,7.066927734375,0.047877367585897446,-0.1267542690038681,-0.058882616460323334
1739817645352996600,7.07699658203125,0.07375024259090424,-0.1125716045498848,-0.070247121155262
1739817645363066400,7.08706640625,0.10795368254184723,-0.057466745376586914,-0.060486771166324615
1739817645373135600,7.097135498046875,0.1526588350534439,0.024904826655983925,-0.023621702566742897
1739817645383204400,7.107204345703125,0.19092951714992523,0.12082495540380478,0.039767391979694366
1739817645393274600,7.117274658203125,0.21465136110782623,0.19487549364566803,0.11632714420557022
1739817645403343400,7.12734326171875,0.23500318825244904,0.23312944173812866,0.17789621651172638
1739817645413412600,7.13741259765625,0.24990464746952057,0.24760743975639343,0.21302464604377747
1739817645423482400,7.147482421875,0.25732940435409546,0.24184772372245789,0.21369031071662903
1739817645433551600,7.157551513671875,0.2505210340023041,0.23260602355003357,0.18654286861419678
1739817645443620400,7.167620361328125,0.24705643951892853,0.218303844332695,0.13588546216487885
1739817645453690600,7.177690673828125,0.25372421741485596,0.2014492303133011,0.06933759152889252
1739817645463759400,7.18775927734375,0.25919994711875916,0.193182572722435,-0.0007147695869207382
1739817645473828600,7.19782861328125,0.266760915517807,0.19886735081672668,-0.06580934673547745
1739817645483898600,7.207898681640625,0.26392918825149536,0.20522795617580414,-0.1078667938709259
1739817645493967600,7.217967529296875,0.2527253031730652,0.19609810411930084,-0.1173015758395195
1739817645504036400,7.228036376953125,0.23312704265117645,0.18461166322231293,-0.09668552130460739
1739817645514106600,7.238106689453125,0.2045140415430069,0.16169171035289764,-0.06756625324487686
1739817645524175600,7.248175537109375,0.17629225552082062,0.12386362999677658,-0.047617845237255096
1739817645534244600,7.25824462890625,0.14772851765155792,0.07947805523872375,-0.049545176327228546
1739817645544314600,7.268314697265625,0.11759278178215027,0.03701735660433769,-0.07080431282520294
1739817645554383600,7.278383544921875,0.09050257503986359,-0.0022434955462813377,-0.0939282774925232
1739817645564452600,7.28845263671875,0.05991501733660698,-0.03178869187831879,-0.10092858970165253
1739817645574522400,7.2985224609375,0.037077076733112335,-0.048318661749362946,-0.09028074145317078
1739817645584591600,7.308591552734375,0.002338145859539509,-0.07074838131666183,-0.06083565577864647
1739817645594660600,7.31866064453125,-0.020989546552300453,-0.08157946169376373,-0.009029715321958065
1739817645604730600,7.328730712890625,-0.035899706184864044,-0.07505249232053757,0.044102080166339874
1739817645614799600,7.338799560546875,-0.041683029383420944,-0.0612245611846447,0.09905294328927994
1739817645624868600,7.34886865234375,-0.04871537163853645,-0.05390726029872894,0.13280904293060303
1739817645634938400,7.3589384765625,-0.055705904960632324,-0.055430322885513306,0.14802874624729156
1739817645645007600,7.369007568359375,-0.05720234289765358,-0.05629059672355652,0.14288149774074554
1739817645655076600,7.37907666015625,-0.05907374620437622,-0.051699575036764145,0.11783047020435333
1739817645665146600,7.389146728515625,-0.06030138209462166,-0.032754018902778625,0.08108404278755188
1739817645675215400,7.39921533203125,-0.059257958084344864,-0.010638064704835415,0.03643614426255226
1739817645685284600,7.40928466796875,-0.05579560250043869,0.017058128491044044,-0.015328306704759598
1739817645695354400,7.419354248046875,-0.0470694899559021,0.04916679859161377,-0.05673513561487198
1739817645705423600,7.429423583984375,-0.02697410248219967,0.07489721477031708,-0.07348201423883438
1739817645715492600,7.43949267578125,-0.008930918760597706,0.10797660797834396,-0.07827489823102951
1739817645725562600,7.449562744140625,0.009447845630347729,0.13305644690990448,-0.07041489332914352
1739817645735631400,7.45963134765625,0.0293419249355793,0.16620029509067535,-0.05624394491314888
1739817645745700600,7.46970068359375,0.036929480731487274,0.1948237419128418,-0.04266136884689331
1739817645755770400,7.479770263671875,0.03749513626098633,0.20028162002563477,-0.0237065888941288
1739817645765839600,7.489839599609375,0.031206507235765457,0.18618029356002808,-0.016760092228651047
1739817645775908400,7.499908447265625,0.012786488980054855,0.16165071725845337,-0.018664784729480743
1739817645785977600,7.5099775390625,-0.0014065839350223541,0.1312660276889801,-0.027123577892780304
1739817645796047400,7.52004736328125,-0.016217488795518875,0.09687182307243347,-0.041143257170915604
1739817645806116600,7.53011669921875,-0.03570500761270523,0.07562132924795151,-0.05656827613711357
1739817645816185600,7.540185546875,-0.05556100606918335,0.04756865277886391,-0.06497028470039368
1739817645826255600,7.550255615234375,-0.07466449588537216,0.02593696489930153,-0.05943739414215088
1739817645836324400,7.560324462890625,-0.09906384348869324,0.006338228937238455,-0.03976329416036606
1739817645846393600,7.5703935546875,-0.1363835334777832,0.001036426518112421,-0.01879468560218811
1739817645856463400,7.58046337890625,-0.1876632273197174,-0.022713910788297653,-0.011577253229916096
1739817645866532600,7.59053271484375,-0.24020588397979736,-0.05949064716696739,-0.036704640835523605
1739817645876601300,7.600601318359375,-0.29363927245140076,-0.09889264404773712,-0.09448830783367157
1739817645886671600,7.610671630859375,-0.3316233158111572,-0.11070796847343445,-0.19177599251270294
1739817645896740400,7.620740234375,-0.3700425922870636,-0.08670356124639511,-0.3039968013763428
1739817645906809600,7.6308095703125,-0.40636521577835083,-0.05318989232182503,-0.4001389443874359
1739817645916879400,7.64087939453125,-0.44062304496765137,-0.01564278081059456,-0.44199609756469727
1739817645926948600,7.650948486328125,-0.4625092148780823,0.03125588968396187,-0.400119423866272
1739817645937017300,7.661017333984375,-0.48634421825408936,0.08236248046159744,-0.269318550825119
1739817645947087600,7.671087646484375,-0.519221842288971,0.14223839342594147,-0.06955622881650925
1739817645957156400,7.68115625,-0.5498175621032715,0.20325061678886414,0.1517529934644699
1739817645967225600,7.6912255859375,-0.5815001130104065,0.22032956779003143,0.338273286819458
1739817645977295600,7.701295654296875,-0.6068936586380005,0.18629011511802673,0.45594343543052673
1739817645987364600,7.711364501953125,-0.637372612953186,0.13228309154510498,0.4989384710788727
1739817645997433300,7.721433349609375,-0.675255298614502,0.059765223413705826,0.4746626913547516
1739817646007503600,7.731503662109375,-0.7198583483695984,-0.030463360249996185,0.4022853374481201
1739817646017572600,7.741572509765625,-0.7760632634162903,-0.1201237365603447,0.3052554726600647
1739817646027641600,7.7516416015625,-0.8437595367431641,-0.18788528442382812,0.20402270555496216
1739817646037711600,7.761711669921875,-0.9259529709815979,-0.23237845301628113,0.12705495953559875
1739817646047780600,7.771780517578125,-1.0157169103622437,-0.2569940686225891,0.08222010731697083
1739817646057849600,7.781849609375,-1.1081424951553345,-0.2561226785182953,0.06186477094888687
1739817646067919600,7.791919677734375,-1.1954294443130493,-0.2311817705631256,0.055552661418914795
1739817646077988600,7.801988525390625,-1.2763967514038086,-0.18182727694511414,0.07256120443344116
1739817646088057600,7.8120576171875,-1.3531368970870972,-0.12165278196334839,0.10618191957473755
1739817646098127600,7.822127685546875,-1.4330708980560303,-0.08048483729362488,0.1564706563949585
1739817646108196600,7.832196533203125,-1.5142050981521606,-0.05325143784284592,0.21887421607971191
1739817646118265600,7.842265625,-1.6051100492477417,-0.03998942673206329,0.2972038984298706
1739817646128334600,7.85233447265625,-1.7136439085006714,-0.0453893318772316,0.381966233253479
1739817646138404600,7.862404541015625,-1.8279249668121338,-0.057565838098526,0.46085014939308167
1739817646148473600,7.8724736328125,-1.9605432748794556,-0.08877624571323395,0.5239407420158386
1739817646158542600,7.88254248046875,-2.1044251918792725,-0.13109120726585388,0.5630244612693787
1739817646168612600,7.892612548828125,-2.2404961585998535,-0.17132069170475006,0.579578161239624
1739817646178681600,7.902681640625,-2.3793134689331055,-0.2154143750667572,0.5744675397872925
1739817646188750600,7.91275048828125,-2.506643533706665,-0.26703834533691406,0.5443945527076721
1739817646198820600,7.922820556640625,-2.6207830905914307,-0.31241273880004883,0.5039376616477966
1739817646208889600,7.9328896484375,-2.7236101627349854,-0.35586756467819214,0.46652352809906006
1739817646218958600,7.94295849609375,-2.807910203933716,-0.39130279421806335,0.4505078196525574
1739817646229028400,7.9530283203125,-2.902353286743164,-0.4306299686431885,0.43960556387901306
1739817646239097600,7.96309765625,-2.985417366027832,-0.4642462432384491,0.4235978424549103
1739817646249166600,7.97316650390625,-3.0410730838775635,-0.48660436272621155,0.41266700625419617
1739817646259236600,7.983236572265625,-3.0860977172851562,-0.5033838748931885,0.4004167318344116
1739817646269305300,7.993305419921875,-3.1199042797088623,-0.5134003758430481,0.3865303099155426
1739817646279374600,8.00337451171875,-3.14701509475708,-0.5099034309387207,0.36374616622924805
1739817646289444400,8.0134443359375,-3.167268991470337,-0.4872418940067291,0.332037091255188
1739817646299513600,8.023513671875,-3.172649383544922,-0.48033496737480164,0.2901410460472107
1739817646309582600,8.03358251953125,-3.172214984893799,-0.47375333309173584,0.24955855309963226
1739817646319652600,8.043652587890625,-3.1678671836853027,-0.47197380661964417,0.21005667746067047
1739817646329721300,8.053721435546874,-3.16402268409729,-0.46773192286491394,0.18310122191905975
1739817646339790600,8.06379052734375,-3.1618335247039795,-0.46830397844314575,0.18530473113059998
1739817646349860400,8.0738603515625,-3.162119150161743,-0.4883376359939575,0.19961577653884888
1739817646359929000,8.08392919921875,-3.1637179851531982,-0.5137814879417419,0.222970113158226
1739817646369998300,8.093998291015625,-3.1694207191467285,-0.5404917001724243,0.2472379058599472
1739817646380067000,8.104067138671875,-3.1820619106292725,-0.5570722818374634,0.2567451298236847
1739817646390137000,8.11413720703125,-3.201449394226074,-0.5675914287567139,0.24397020041942596
1739817646400206000,8.1242060546875,-3.2050626277923584,-0.5624731183052063,0.21949946880340576
1739817646410275300,8.134275390625,-3.1890645027160645,-0.5458270311355591,0.20003393292427063
1739817646420345300,8.144345458984375,-3.1632134914398193,-0.5089325904846191,0.18062694370746613
1739817646430414000,8.1544140625,-3.144152879714966,-0.47710826992988586,0.17176562547683716
1739817646440483000,8.164483154296875,-3.1127114295959473,-0.4498361647129059,0.17828211188316345
1739817646450553000,8.174552978515624,-3.0788092613220215,-0.4197031855583191,0.18840868771076202
1739817646460622300,8.184622314453126,-3.036240577697754,-0.40921780467033386,0.21012835204601288
1739817646470691300,8.19469140625,-2.9884088039398193,-0.40291446447372437,0.23706184327602386
1739817646480761300,8.20476123046875,-2.9348485469818115,-0.40461355447769165,0.2801145017147064
1739817646490830000,8.214830078125,-2.8811066150665283,-0.4160935580730438,0.30862775444984436
1739817646500899300,8.2248994140625,-2.8259871006011963,-0.4135262668132782,0.3120965361595154
1739817646510969000,8.234968994140624,-2.766399621963501,-0.39060673117637634,0.2906404435634613
1739817646521038300,8.245038330078126,-2.699993133544922,-0.35761523246765137,0.25509175658226013
1739817646531107000,8.255107177734375,-2.627333879470825,-0.33415651321411133,0.21432913839817047
1739817646541177300,8.26517724609375,-2.5528171062469482,-0.3123081922531128,0.17700813710689545
1739817646551246000,8.27524609375,-2.474156618118286,-0.2872656285762787,0.14529430866241455
1739817646561315300,8.2853154296875,-2.3902411460876465,-0.2714248597621918,0.123499795794487
1739817646571384000,8.295384033203124,-2.308948278427124,-0.24745380878448486,0.11879806965589523
1739817646581454300,8.305454345703126,-2.22114634513855,-0.22039476037025452,0.13448327779769897
1739817646591523000,8.315523193359375,-2.1292459964752197,-0.182520791888237,0.16667869687080383
1739817646601592300,8.32559228515625,-2.034316301345825,-0.14285939931869507,0.2017725110054016
1739817646611662000,8.335662109375,-1.937782883644104,-0.11027792096138,0.22390694916248322
1739817646621731300,8.3457314453125,-1.8338607549667358,-0.0793471708893776,0.23632046580314636
1739817646631800000,8.355800048828126,-1.7185919284820557,-0.050564736127853394,0.22955869138240814
1739817646641870300,8.365870361328126,-1.5978071689605713,-0.03195643052458763,0.219911128282547
1739817646651939000,8.37593896484375,-1.4721304178237915,-0.0328463576734066,0.19870561361312866
1739817646662008300,8.38600830078125,-1.354264259338379,-0.05455990508198738,0.17644105851650238
1739817646672078000,8.396078125,-1.231584906578064,-0.07127588987350464,0.15207058191299438
1739817646682147300,8.406147216796874,-1.1066728830337524,-0.08311843872070312,0.13414297997951508
1739817646692216000,8.416216064453126,-0.9833066463470459,-0.08846530318260193,0.1221582442522049
1739817646702286300,8.426286376953126,-0.8685816526412964,-0.0909002348780632,0.11172930896282196
1739817646712355000,8.43635498046875,-0.7601597309112549,-0.08045604079961777,0.10329876095056534
1739817646722424300,8.44642431640625,-0.6594016551971436,-0.06179819256067276,0.10043506324291229
1739817646732494000,8.456494140625,-0.5624817609786987,-0.038331881165504456,0.09358573704957962
1739817646742563300,8.466563232421874,-0.46961283683776855,-0.0027789478190243244,0.08616670221090317
1739817646752632000,8.476632080078126,-0.38122615218162537,0.03221338242292404,0.0800851359963417
1739817646762701300,8.486701416015626,-0.2984077036380768,0.05000835657119751,0.07482193410396576
1739817646772771000,8.49677099609375,-0.214279443025589,0.061589669436216354,0.06947162002325058
1739817646782840300,8.50684033203125,-0.12952646613121033,0.06150071695446968,0.05267266184091568
1739817646792909000,8.516908935546875,-0.04770105332136154,0.060162417590618134,0.03431530296802521
1739817646802979300,8.526979248046874,0.0245161484926939,0.05285123735666275,0.018421024084091187
1739817646813048000,8.537048095703126,0.083831287920475,0.05045345798134804,-0.0024702930822968483
1739817646823117300,8.547117431640626,0.13315144181251526,0.04259873181581497,-0.03649457171559334
1739817646833187000,8.55718701171875,0.17173749208450317,0.03833539038896561,-0.08483129739761353
1739817646843256300,8.56725634765625,0.21427136659622192,0.04516346752643585,-0.1450914442539215
1739817646853325000,8.577324951171875,0.25536221265792847,0.049202997237443924,-0.20353403687477112
1739817646863395300,8.587395263671874,0.2943927049636841,0.06510552763938904,-0.24027368426322937
1739817646873464000,8.597464111328126,0.33351635932922363,0.08273950964212418,-0.25627273321151733
1739817646883533300,8.607533203125,0.3698938190937042,0.09927986562252045,-0.25151607394218445
1739817646893602000,8.61760205078125,0.39315083622932434,0.11655624955892563,-0.2167350947856903
1739817646903672300,8.62767236328125,0.40922221541404724,0.12508928775787354,-0.1471019685268402
1739817646913741000,8.637740966796875,0.4179270565509796,0.13241519033908844,-0.05785287916660309
1739817646923810300,8.647810302734374,0.4221223294734955,0.1484338343143463,0.034706879407167435
1739817646933880000,8.657880126953126,0.41870632767677307,0.1690036803483963,0.09779760241508484
1739817646943949300,8.66794921875,0.40333881974220276,0.1785215437412262,0.11630178242921829
1739817646954018000,8.67801806640625,0.38539251685142517,0.1817946434020996,0.09444833546876907
1739817646964088300,8.68808837890625,0.3745254874229431,0.17536896467208862,0.04640917479991913
1739817646974157000,8.698156982421875,0.36775797605514526,0.15519249439239502,-0.01833670400083065
1739817646984226300,8.708226318359374,0.35742172598838806,0.15391656756401062,-0.0795622393488884
1739817646994296300,8.71829638671875,0.3508186638355255,0.1579967439174652,-0.12800003588199615
1739817647004365300,8.728365234375,0.33778274059295654,0.16452015936374664,-0.1527583748102188
1739817647014434000,8.73843408203125,0.3193742334842682,0.17298999428749084,-0.1538962721824646
1739817647024504000,8.748504150390625,0.3038780987262726,0.17082270979881287,-0.13514788448810577
1739817647034573300,8.7585732421875,0.289905309677124,0.1620149165391922,-0.10638685524463654
1739817647044642300,8.768642333984374,0.2818066477775574,0.14825302362442017,-0.07497993111610413
1739817647054711000,8.7787109375,0.27764642238616943,0.1329461634159088,-0.050962675362825394
1739817647064781300,8.78878125,0.27563655376434326,0.12280057370662689,-0.04195799678564072
1739817647074850000,8.79885009765625,0.26816800236701965,0.11323465406894684,-0.044464707374572754
1739817647084919300,8.808919189453125,0.2601074278354645,0.10534850507974625,-0.04686208814382553
1739817647094989300,8.8189892578125,0.24685582518577576,0.0983131006360054,-0.059686414897441864
1739817647105058300,8.829058349609374,0.22620967030525208,0.09819113463163376,-0.07886863499879837
1739817647115127000,8.839126953125,0.20337849855422974,0.1081235259771347,-0.09450123459100723
1739817647125197000,8.849197021484375,0.18093977868556976,0.11940174549818039,-0.10874275863170624
1739817647135266300,8.859266357421875,0.1663816124200821,0.12287849932909012,-0.11596977710723877
1739817647145335300,8.869335205078125,0.16028563678264618,0.12473871558904648,-0.1167341023683548
1739817647155404000,8.879404052734374,0.1654815822839737,0.12201757729053497,-0.1086624413728714
1739817647165474300,8.889474365234374,0.17608016729354858,0.12283463776111603,-0.10129107534885406
1739817647175543300,8.899543212890626,0.18982228636741638,0.13349099457263947,-0.08263587206602097
1739817647185612300,8.9096123046875,0.19859127700328827,0.1372886598110199,-0.04709811881184578
1739817647195682300,8.919682373046875,0.2041456550359726,0.12519662082195282,-0.00541007611900568
1739817647205751300,8.929751220703125,0.20338799059391022,0.10233604162931442,0.03796030208468437
1739817647215820300,8.9398203125,0.20223666727542877,0.05480578541755676,0.08426200598478317
1739817647225890000,8.94989013671875,0.20086540281772614,0.002690918743610382,0.12261898070573807
1739817647235959300,8.959959228515626,0.19226643443107605,-0.043467387557029724,0.151706725358963
1739817647246028300,8.9700283203125,0.18383380770683289,-0.07320797443389893,0.16172844171524048
1739817647256098300,8.980098388671875,0.17178975045681,-0.09164812415838242,0.15398411452770233
1739817647266167000,8.9901669921875,0.16216668486595154,-0.1000506579875946,0.12073056399822235
1739817647276236300,9.000236328125,0.15236715972423553,-0.10673822462558746,0.07786495238542557
1739817647286305300,9.01030517578125,0.14937536418437958,-0.10815555602312088,0.03137947618961334
1739817647296375300,9.020375244140626,0.13566316664218903,-0.09128273278474808,-0.001406530849635601
1739817647306444300,9.0304443359375,0.1215076670050621,-0.07333968579769135,-0.021305937319993973
1739817647316513300,9.04051318359375,0.10453502833843231,-0.055742695927619934,-0.02465290203690529
1739817647326583000,9.0505830078125,0.07716013491153717,-0.05761276185512543,-0.013513166457414627
1739817647336652300,9.06065234375,0.050665102899074554,-0.06974280625581741,-0.0028052479028701782
1739817647346721300,9.07072119140625,0.028758473694324493,-0.07581748068332672,0.0037935329601168633
1739817647356790500,9.08079052734375,0.011507615447044373,-0.07359638065099716,-0.003722168505191803
1739817647366859500,9.090859619140625,0.0036803181283175945,-0.05463946983218193,-0.006763232871890068
1739817647376928500,9.100928466796875,0.005378928501158953,-0.016667354851961136,-0.004051315598189831
1739817647386998500,9.11099853515625,0.01804971694946289,0.014516929164528847,0.006467104889452457
1739817647397067500,9.121067626953124,0.029436258599162102,0.03943517059087753,0.010460657998919487
1739817647407136500,9.131136474609375,0.03582092374563217,0.05451931431889534,0.012160287238657475
1739817647417205500,9.14120556640625,0.03358738496899605,0.048415012657642365,0.0016368795186281204
1739817647427275500,9.151275634765625,0.03632697835564613,0.034038737416267395,-0.020716361701488495
1739817647437344500,9.161344482421875,0.033450961112976074,0.016237488016486168,-0.05179847031831741
1739817647447413500,9.17141357421875,0.025932325050234795,-0.013569409027695656,-0.07648012042045593
1739817647457483500,9.1814833984375,0.016985807567834854,-0.03878925368189812,-0.08388616144657135
1739817647467552500,9.191552490234375,-0.002734101377427578,-0.05287018418312073,-0.08547632396221161
1739817647477621500,9.20162158203125,-0.012090655043721199,-0.05227964371442795,-0.08071362227201462
1739817647487691500,9.21169140625,-0.022581912577152252,-0.04788649454712868,-0.06745906919240952
1739817647497760500,9.221760498046875,-0.03538241982460022,-0.0428040437400341,-0.056517571210861206
1739817647507829500,9.23182958984375,-0.051113709807395935,-0.03292158618569374,-0.044124022126197815
1739817647517898500,9.2418984375,-0.055386222898960114,-0.03987083584070206,-0.0487736314535141
1739817647527968800,9.25196875,-0.07119447737932205,-0.04140641540288925,-0.0686301663517952
1739817647538037500,9.26203759765625,-0.08787599951028824,-0.03689511492848396,-0.10318857431411743
1739817647548106500,9.2721064453125,-0.1076265349984169,-0.056229397654533386,-0.12763214111328125
1739817647558176500,9.282176513671875,-0.11925576627254486,-0.07723676413297653,-0.12952475249767303
1739817647568245800,9.292245849609374,-0.12347555160522461,-0.1016872450709343,-0.11192578077316284
1739817647578314500,9.302314453125,-0.1207081750035286,-0.11418614536523819,-0.07852959632873535
1739817647588384500,9.312384521484375,-0.12397294491529465,-0.11148064583539963,-0.036174945533275604
1739817647598453500,9.32245361328125,-0.12384042888879776,-0.10738115012645721,0.004724717698991299
1739817647608522500,9.3325224609375,-0.12395068258047104,-0.10578857362270355,0.029035650193691254
1739817647618591500,9.342591552734374,-0.1268397718667984,-0.10268935561180115,0.02937537245452404
1739817647628661800,9.352661865234374,-0.12293558567762375,-0.10021820664405823,0.00825357623398304
1739817647638730500,9.36273046875,-0.11503481864929199,-0.08445776253938675,-0.02947528287768364
1739817647648799500,9.372799560546875,-0.11747001111507416,-0.0674247220158577,-0.06412620097398758
1739817647658869500,9.382869384765625,-0.1204230934381485,-0.060798339545726776,-0.08056047558784485
1739817647668938800,9.392938720703125,-0.12288838624954224,-0.05761932581663132,-0.07906697690486908
1739817647679007500,9.403007568359374,-0.1201830506324768,-0.06173143535852432,-0.06675072759389877
1739817647689077500,9.413077392578124,-0.1183001920580864,-0.06502123922109604,-0.05793965607881546
1739817647699146500,9.423146484375,-0.10921944677829742,-0.060488879680633545,-0.06408189982175827
1739817647709215700,9.4332158203125,-0.10351921617984772,-0.0509483739733696,-0.07426955550909042
1739817647719284500,9.443284423828125,-0.09656353294849396,-0.03863323852419853,-0.08897221088409424
1739817647729354500,9.4533544921875,-0.08306822925806046,-0.02826528623700142,-0.09497763961553574
1739817647739423500,9.463423583984374,-0.06721191853284836,-0.02384563907980919,-0.07687705010175705
1739817647749492700,9.47349267578125,-0.05441462993621826,-0.028265422210097313,-0.04530421271920204
1739817647759562500,9.4835625,-0.04778987541794777,-0.02719678170979023,-0.01380480732768774
1739817647769631700,9.4936318359375,-0.045806884765625,-0.0296705923974514,0.0011701472103595734
1739817647779700500,9.503700439453125,-0.03956335037946701,-0.029343634843826294,-0.0044042794033885
1739817647789770500,9.5137705078125,-0.03708821162581444,-0.03409205377101898,-0.02121947705745697
1739817647799839500,9.523839599609374,-0.038046032190322876,-0.03945513442158699,-0.04169439896941185
1739817647809908700,9.53390869140625,-0.04612606391310692,-0.0368814542889595,-0.05649864301085472
1739817647819977500,9.5439775390625,-0.05301289260387421,-0.03661017864942551,-0.05192403495311737
1739817647830047500,9.554047607421875,-0.06743843853473663,-0.03772417828440666,-0.03514212369918823
1739817647840116500,9.564116455078125,-0.0818575993180275,-0.044288963079452515,-0.01361063588410616
1739817647850185700,9.574185791015625,-0.092447929084301,-0.043560322374105453,0.010069127194583416
1739817647860255500,9.58425537109375,-0.10141458362340927,-0.037197697907686234,0.04062163457274437
1739817647870324700,9.59432470703125,-0.10933242738246918,-0.036587297916412354,0.06811317801475525
1739817647880393500,9.6043935546875,-0.11888672411441803,-0.04155682399868965,0.09201300144195557
1739817647890463500,9.61446337890625,-0.13257403671741486,-0.05338259041309357,0.10339188575744629
1739817647900532500,9.624532470703125,-0.1455208957195282,-0.05657391622662544,0.11157369613647461
1739817647910601700,9.634601806640624,-0.15795600414276123,-0.10298962146043777,0.11366134881973267
1739817647920670500,9.64467041015625,-0.1677914708852768,-0.19712984561920166,0.08510814607143402
1739817647930740500,9.654740478515626,-0.17858819663524628,-0.2587604224681854,0.020457245409488678
1739817647940809500,9.6648095703125,-0.1845158487558365,-0.2818688750267029,-0.08704161643981934
1739817647950878700,9.674878662109375,-0.19597436487674713,-0.26075267791748047,-0.21944865584373474
1739817647960948500,9.684948486328125,-0.19261519610881805,-0.20492082834243774,-0.33400559425354004
1739817647971017500,9.695017578125,-0.17987704277038574,-0.12769314646720886,-0.3757232129573822
1739817647981086500,9.70508642578125,-0.17323508858680725,-0.05591468885540962,-0.32182472944259644
1739817647991155700,9.71515576171875,-0.16393479704856873,-0.011452682316303253,-0.17037153244018555
1739817648001225500,9.7252255859375,-0.16599686443805695,0.008589424192905426,0.020802995190024376
1739817648011294700,9.735294677734375,-0.17615896463394165,-0.0008243178017437458,0.1752959042787552
1739817648021363500,9.745363525390625,-0.18267859518527985,-0.01707318425178528,0.2430068850517273
1739817648031433500,9.75543359375,-0.1779504269361496,-0.028120774775743484,0.23937007784843445
1739817648041502500,9.76550244140625,-0.17991279065608978,-0.03524051606655121,0.17280681431293488
1739817648051571700,9.77557177734375,-0.18858110904693604,-0.0618891716003418,0.08298131823539734
1739817648061641500,9.785641357421875,-0.20029482245445251,-0.11783887445926666,-0.008527414873242378
1739817648071710500,9.79571044921875,-0.21193869411945343,-0.1858789026737213,-0.08701983094215393
1739817648081779500,9.805779541015625,-0.21043238043785095,-0.23228922486305237,-0.1442972868680954
1739817648091848700,9.8158486328125,-0.21196530759334564,-0.24337516725063324,-0.1896224170923233
1739817648101918500,9.82591845703125,-0.2087811976671219,-0.21505506336688995,-0.22972461581230164
1739817648111987700,9.83598779296875,-0.19813574850559235,-0.1550106406211853,-0.2459118366241455
1739817648122056400,9.846056396484375,-0.1741524636745453,-0.05807559937238693,-0.21888205409049988
1739817648132126500,9.85612646484375,-0.14858025312423706,0.06502023339271545,-0.1216396689414978
1739817648142195500,9.866195556640625,-0.13571512699127197,0.18896879255771637,0.05098672956228256
1739817648152264700,9.8762646484375,-0.1393146514892578,0.28276771306991577,0.2722405791282654
1739817648162333400,9.88633349609375,-0.1537563055753708,0.3251318633556366,0.4761543273925781
1739817648172403500,9.896403564453125,-0.1618749499320984,0.3344167172908783,0.6399863958358765
1739817648182472400,9.906472412109375,-0.1754390150308609,0.3268101215362549,0.7494879961013794
1739817648192541700,9.916541748046875,-0.20115822553634644,0.2747889757156372,0.7888569831848145
1739817648202611500,9.926611572265625,-0.23055829107761383,0.2110476791858673,0.765261173248291
1739817648212680700,9.9366806640625,-0.25537365674972534,0.12538950145244598,0.6853695511817932
1739817648222749400,9.94674951171875,-0.283884733915329,0.034153033047914505,0.5509055256843567
1739817648232818700,9.956818603515625,-0.31905630230903625,-0.06889133155345917,0.3748551607131958
1739817648242888400,9.966888427734375,-0.3571185767650604,-0.1862584352493286,0.1819557398557663
1739817648252957700,9.976957763671875,-0.3857795298099518,-0.284263551235199,-0.012758620083332062
1739817648263026400,9.9870263671875,-0.42689940333366394,-0.3593353033065796,-0.17865130305290222
1739817648273096400,9.997096435546876,-0.47870108485221863,-0.43273839354515076,-0.31944090127944946
1739817648283165400,10.00716552734375,-0.5231138467788696,-0.5055211186408997,-0.4492746889591217
1739817648293234700,10.017234619140625,-0.531982958316803,-0.5515471696853638,-0.564278781414032
1739817648303304400,10.027304443359375,-0.4984748661518097,-0.5365487933158875,-0.6571043133735657
1739817648313373400,10.03737353515625,-0.42691120505332947,-0.47033435106277466,-0.6871461272239685
1739817648323442400,10.0474423828125,-0.3365894854068756,-0.34710046648979187,-0.6220799088478088
1739817648333511700,10.05751171875,-0.23392224311828613,-0.17902062833309174,-0.46222707629203796
1739817648343581400,10.06758154296875,-0.1392848938703537,-0.0010117338970303535,-0.23212413489818573
1739817648353650700,10.077650634765625,-0.052045851945877075,0.14238297939300537,0.034409813582897186
1739817648363720000,10.087719970703125,0.00903324969112873,0.2199452966451645,0.2791227400302887
1739817648373790000,10.0977900390625,0.0487537682056427,0.1891876459121704,0.4477487802505493
1739817648383859000,10.10785888671875,0.0780995637178421,0.12814490497112274,0.508091390132904
1739817648393928000,10.117927978515626,0.09725381433963776,0.07407313585281372,0.4582703113555908
1739817648403997000,10.127996826171875,0.11512751877307892,0.017490120604634285,0.3248405158519745
1739817648414067000,10.13806689453125,0.12288849800825119,-0.03608895093202591,0.14468485116958618
1739817648424136000,10.148135986328125,0.12460985034704208,-0.07557523250579834,-0.044802140444517136
1739817648434205000,10.158204833984374,0.12895187735557556,-0.08960476517677307,-0.20205646753311157
1739817648444275200,10.168275146484374,0.10993757843971252,-0.08537521958351135,-0.3135855793952942
1739817648454344000,10.178343994140626,0.07107433676719666,-0.06778664141893387,-0.3603147268295288
1739817648464413000,10.188412841796875,0.024762088432908058,-0.05748092010617256,-0.35125502943992615
1739817648474482200,10.198482177734375,-0.025304540991783142,-0.044802408665418625,-0.2987563908100128
1739817648484552200,10.20855224609375,-0.07131457328796387,-0.035594772547483444,-0.22490188479423523
1739817648494621000,10.218620849609374,-0.11164282262325287,-0.02231438457965851,-0.14098888635635376
1739817648504690000,10.22868994140625,-0.13732315599918365,0.00023876503109931946,-0.06561466306447983
1739817648514760000,10.238760009765626,-0.1519971787929535,0.02767784893512726,-0.0042232125997543335
1739817648524829200,10.2488291015625,-0.15250302851200104,0.04805050045251846,0.024728544056415558
1739817648534898000,10.25889794921875,-0.1453244835138321,0.06536504626274109,0.03791145607829094
1739817648544967000,10.268966796875,-0.13665582239627838,0.0716690793633461,0.04061182960867882
1739817648555037000,10.279036865234374,-0.12670040130615234,0.07458709925413132,0.038005661219358444
1739817648565106000,10.28910595703125,-0.1122724637389183,0.06197729706764221,0.023619797080755234
1739817648575175200,10.299175048828126,-0.09925147145986557,0.05097365006804466,0.005421617068350315
1739817648585245200,10.3092451171875,-0.08691474050283432,0.04704413563013077,-0.02904525026679039
1739817648595314000,10.31931396484375,-0.0732138454914093,0.039022162556648254,-0.0718608871102333
1739817648605383000,10.3293828125,-0.05374240130186081,0.034143730998039246,-0.11725230515003204
1739817648615452200,10.3394521484375,-0.0361197292804718,0.039373647421598434,-0.15090720355510712
1739817648625522200,10.349522216796874,-0.021419823169708252,0.050874702632427216,-0.16252782940864563
1739817648635591000,10.3595908203125,-0.011195681057870388,0.061810437589883804,-0.14087659120559692
1739817648645660000,10.369659912109375,-0.00798842404037714,0.06916938722133636,-0.10442786663770676
1739817648655730000,10.37972998046875,0.00012915721163153648,0.056896474212408066,-0.06281197816133499
1739817648665799200,10.389799072265625,0.007080249022692442,0.031627144664525986,-0.03477749228477478
1739817648675868200,10.3998681640625,0.020468758419156075,-0.004253623075783253,-0.021268073469400406
1739817648685937000,10.40993701171875,0.04327584058046341,-0.03406183049082756,-0.02411235310137272
1739817648696007000,10.4200068359375,0.07234504818916321,-0.03983263298869133,-0.033231548964977264
1739817648706076200,10.430076171875,0.09046543389558792,-0.026673084124922752,-0.040337733924388885
1739817648716145200,10.440145263671875,0.10872619599103928,0.004981514532119036,-0.037817053496837616
1739817648726215200,10.450215087890625,0.12154442071914673,0.03723450377583504,-0.018060101196169853
1739817648736284000,10.460283935546874,0.12346403300762177,0.0580095574259758,0.01903586834669113
1739817648746353200,10.470353271484376,0.11660318821668625,0.05812126770615578,0.0535694882273674
1739817648756422100,10.480422119140625,0.1050884798169136,0.05345673859119415,0.08297744393348694
1739817648766492200,10.4904921875,0.08721854537725449,0.035122137516736984,0.0980030745267868
1739817648776561000,10.500560791015625,0.07095728069543839,0.022869199514389038,0.09719932824373245
1739817648786630000,10.5106298828125,0.05534931644797325,0.021087056025862694,0.09327751398086548
1739817648796700000,10.520699951171874,0.03975411131978035,0.03302760422229767,0.09847387671470642
1739817648806769200,10.53076904296875,0.035854436457157135,0.052623044699430466,0.1068434789776802
1739817648816838100,10.540838134765625,0.04586631804704666,0.0874428078532219,0.125753253698349
1739817648826907000,10.550906982421875,0.07247363775968552,0.14113540947437286,0.1497727632522583
1739817648836977000,10.560976806640625,0.10375352948904037,0.20990115404129028,0.18364150822162628
1739817648847046100,10.571046142578124,0.12529084086418152,0.28653162717819214,0.21874822676181793
1739817648857115100,10.581115234375,0.13114367425441742,0.3398886024951935,0.24763794243335724
1739817648867185200,10.59118505859375,0.13735748827457428,0.29785725474357605,0.2546050250530243
1739817648877254000,10.60125390625,0.16199518740177155,0.2108115702867508,0.20441189408302307
1739817648887323100,10.6113232421875,0.19084006547927856,0.1575620174407959,0.08687081933021545
1739817648897392000,10.62139208984375,0.20313188433647156,0.15934260189533234,-0.06590114533901215
1739817648907462100,10.631462158203124,0.21160489320755005,0.18858788907527924,-0.21145761013031006
1739817648917531100,10.64153125,0.2208806872367859,0.2186187505722046,-0.307962030172348
1739817648927600000,10.65160009765625,0.23150832951068878,0.2166324406862259,-0.3232218325138092
1739817648937670000,10.661669921875,0.22796793282032013,0.18430432677268982,-0.27830255031585693
1739817648947739100,10.6717392578125,0.20363521575927734,0.12354332208633423,-0.2248431295156479
1739817648957808000,10.68180810546875,0.16618850827217102,0.06756208837032318,-0.18880097568035126
1739817648967877000,10.691877197265624,0.13921323418617249,0.018211571499705315,-0.16524292528629303
1739817648977947000,10.70194677734375,0.11657370626926422,-0.019810646772384644,-0.1270289570093155
1739817648988016000,10.71201611328125,0.09731367230415344,-0.029920518398284912,-0.05817348137497902
1739817648998085000,10.722085205078125,0.07073105871677399,-0.024528948590159416,0.038550399243831635
1739817649008155100,10.732155029296875,0.03830038756132126,-0.00851710420101881,0.15135006606578827
1739817649018224000,10.74222412109375,0.0031740893609821796,0.04337485507130623,0.25864163041114807
1739817649028293000,10.752293212890624,-0.039733368903398514,0.0846608579158783,0.3340553641319275
1739817649038362000,10.762362060546875,-0.08963461965322495,0.12114163488149643,0.3659821152687073
1739817649048432000,10.77243212890625,-0.13911892473697662,0.14905351400375366,0.3716156780719757
1739817649058501000,10.782501220703125,-0.17126141488552094,0.15372790396213531,0.3582761883735657
1739817649068570000,10.792570068359375,-0.1825837641954422,0.15201535820960999,0.3304457366466522
1739817649078639900,10.802639892578124,-0.18049292266368866,0.1261667162179947,0.29546859860420227
1739817649088709000,10.812709228515626,-0.16381411254405975,0.08934284001588821,0.2672961354255676
1739817649098778000,10.822778076171875,-0.1425224095582962,0.055761173367500305,0.24822072684764862
1739817649108847000,10.83284716796875,-0.11785150319337845,0.017245348542928696,0.22247181832790375
1739817649118916900,10.842916748046875,-0.09342020004987717,-0.00830182433128357,0.17062219977378845
1739817649128986000,10.852986083984375,-0.07348126173019409,-0.030843615531921387,0.10237443447113037
1739817649139055000,10.86305517578125,-0.049077652394771576,-0.06119353324174881,0.02173631452023983
1739817649149125000,10.873125,-0.02694924920797348,-0.059175945818424225,-0.040760062634944916
1739817649159194000,10.883194091796875,-0.0035323400516062975,-0.04724045470356941,-0.07722911983728409
1739817649169263000,10.89326318359375,0.024697987362742424,-0.03744930028915405,-0.08592891693115234
1739817649179332000,10.90333203125,0.04957537353038788,-0.020357929170131683,-0.07029962539672852
1739817649189402000,10.913402099609375,0.0769195482134819,-0.00984831154346466,-0.030152179300785065
1739817649199471000,10.92347119140625,0.10814884305000305,-0.007247202098369598,0.030747124925255775
1739817649209540000,10.9335400390625,0.1280142217874527,-0.006047045812010765,0.07850490510463715
1739817649219609000,10.943609130859375,0.14564621448516846,-0.005840917117893696,0.10447631776332855
1739817649229679000,10.95367919921875,0.16488657891750336,-0.003337320638820529,0.10650437325239182
1739817649239748000,10.963748046875,0.18743610382080078,0.006533419247716665,0.08865772932767868
1739817649249817000,10.973817138671874,0.20743700861930847,0.015958169475197792,0.07238571345806122
1739817649259887000,10.98388720703125,0.22085241973400116,0.020181676372885704,0.045041974633932114
1739817649269956000,10.9939560546875,0.23392702639102936,0.01674605906009674,0.01120772585272789
1739817649280025000,11.004025146484375,0.23841311037540436,0.018560737371444702,-0.010575599037110806
1739817649290094000,11.014093994140625,0.23928770422935486,0.011729729361832142,-0.026371605694293976
1739817649300164000,11.0241640625,0.236737459897995,-0.0018204348161816597,-0.034072134643793106
1739817649310233000,11.034233154296874,0.22709105908870697,-0.013663974590599537,-0.036953750997781754
1739817649320302000,11.044302001953126,0.2228052318096161,-0.02845783531665802,-0.03475877270102501
1739817649330372000,11.0543720703125,0.21096855401992798,-0.03412067890167236,-0.03193112090229988
1739817649340441000,11.064441162109375,0.19581598043441772,-0.031899601221084595,-0.03536313772201538
1739817649350510000,11.074510009765625,0.17619705200195312,-0.02056676149368286,-0.05351366847753525
1739817649360579800,11.084579833984375,0.15787237882614136,-0.0018628481775522232,-0.08654405921697617
1739817649370649900,11.09464990234375,0.13748766481876373,0.02663956582546234,-0.12351851165294647
1739817649380718600,11.104718505859376,0.11810676753520966,0.061629507690668106,-0.15380264818668365
1739817649390787800,11.114787841796876,0.10126294195652008,0.08042332530021667,-0.16171854734420776
1739817649400856800,11.12485693359375,0.08042211085557938,0.08851773291826248,-0.1367247849702835
1739817649410926800,11.1349267578125,0.06746688485145569,0.07399850338697433,-0.08949019014835358
1739817649420995800,11.144995849609375,0.05148685351014137,0.04261448606848717,-0.029179980978369713
1739817649431064800,11.15506494140625,0.040802136063575745,0.007229323033243418,0.02617941051721573
1739817649441134800,11.165134765625,0.030276257544755936,-0.03380945697426796,0.06107641011476517
1739817649451203800,11.175203857421875,0.03626314923167229,-0.06232774257659912,0.07421840727329254
1739817649461272800,11.18527294921875,0.04938001558184624,-0.07379771769046783,0.07463385909795761
1739817649471341800,11.195341796875,0.061540499329566956,-0.08274149149656296,0.07558071613311768
1739817649481411800,11.205411865234375,0.06847110390663147,-0.0773342102766037,0.06937289237976074
1739817649491480800,11.215480712890624,0.07978689670562744,-0.0652516782283783,0.0684063732624054
1739817649501549800,11.2255498046875,0.09608304500579834,-0.037561189383268356,0.06146511435508728
1739817649511619800,11.235619873046875,0.10920310765504837,-0.007343633566051722,0.04742705821990967
1739817649521688800,11.245688720703125,0.1270923614501953,0.019439779222011566,0.038202401250600815
1739817649531757800,11.2557578125,0.13916099071502686,0.05315688997507095,0.02872457168996334
1739817649541826800,11.265826904296874,0.14173386991024017,0.07265922427177429,0.024415843188762665
1739817649551896800,11.275896728515624,0.13548073172569275,0.07865380495786667,0.025555871427059174
1739817649561965800,11.2859658203125,0.13220104575157166,0.07764553278684616,0.039707377552986145
1739817649572034800,11.296034912109375,0.12178434431552887,0.06994304060935974,0.05697647109627724
1739817649582103800,11.306103759765625,0.11282599717378616,0.06389500200748444,0.08037927001714706
1739817649592173800,11.316173828125,0.10543323308229446,0.057333167642354965,0.09323707967996597
1739817649602242800,11.326242919921874,0.09348656237125397,0.05271631106734276,0.0943252444267273
1739817649612311800,11.336311767578126,0.0892224907875061,0.05392606183886528,0.07695277035236359
1739817649622381800,11.3463818359375,0.07070579379796982,0.04933024197816849,0.056306879967451096
1739817649632450800,11.356450927734375,0.05380355194211006,0.03908856585621834,0.04114042967557907
1739817649642519800,11.366519775390625,0.03657982498407364,0.022812122479081154,0.023998193442821503
1739817649652588800,11.3765888671875,0.014589649625122547,-0.0012381221167743206,0.011021426878869534
1739817649662658800,11.386658935546874,-0.005768618546426296,-0.026203125715255737,0.0025752121582627296
1739817649672727800,11.396727783203126,-0.02368810400366783,-0.048412345349788666,-0.00410208385437727
1739817649682796800,11.406796875,-0.03849368169903755,-0.0511372908949852,-0.018504727631807327
1739817649692865800,11.41686572265625,-0.053296804428100586,-0.052369341254234314,-0.03820139542222023
1739817649702935800,11.426935791015625,-0.06244529411196709,-0.034498732537031174,-0.050446875393390656
1739817649713004800,11.4370048828125,-0.07133831828832626,-0.012483419850468636,-0.05360380932688713
1739817649723073800,11.44707373046875,-0.08319604396820068,0.017497381195425987,-0.05277689918875694
1739817649733143800,11.457143798828126,-0.08884010463953018,0.050167664885520935,-0.05040663108229637
1739817649743213000,11.467213134765625,-0.09297013282775879,0.07728955894708633,-0.048395682126283646
1739817649753281800,11.47728173828125,-0.08766218274831772,0.09092165529727936,-0.05108720436692238
1739817649763350800,11.487350830078125,-0.07791954278945923,0.08910883963108063,-0.056658271700143814
1739817649773420800,11.4974208984375,-0.06542742997407913,0.07559850066900253,-0.05199233070015907
1739817649783490000,11.507489990234374,-0.05610610544681549,0.0559193380177021,-0.04013487324118614
1739817649793558800,11.517558837890626,-0.05642227455973625,0.032174836844205856,-0.024674098938703537
1739817649803628800,11.52762890625,-0.0638948380947113,0.0018361061811447144,-0.008183271624147892
1739817649813697800,11.53769775390625,-0.06329893320798874,-0.02232123352587223,0.007242060732096434
1739817649823766800,11.547766845703125,-0.07044019550085068,-0.05253959074616432,0.013817671686410904
1739817649833835800,11.557835693359374,-0.08389893919229507,-0.08299387991428375,0.011053553782403469
1739817649843906000,11.567906005859374,-0.09034059941768646,-0.1119333803653717,-0.00024810340255498886
1739817649853974800,11.577974853515625,-0.09896665066480637,-0.1336086094379425,-0.015976442024111748
1739817649864043800,11.588043701171875,-0.1132156252861023,-0.14353740215301514,-0.03241134434938431
1739817649874112800,11.59811279296875,-0.13250598311424255,-0.1444823443889618,-0.03714772313833237
1739817649884183000,11.60818310546875,-0.1562909483909607,-0.14453373849391937,-0.03596474602818489
1739817649894251800,11.618251708984374,-0.19414809346199036,-0.15764765441417694,-0.026001090183854103
1739817649904320800,11.62832080078125,-0.23037028312683105,-0.1992158740758896,-0.03398018330335617
1739817649914390800,11.638390869140625,-0.2739519476890564,-0.23802585899829865,-0.07106946408748627
1739817649924460000,11.6484599609375,-0.30924972891807556,-0.25735774636268616,-0.1406266987323761
1739817649934528800,11.65852880859375,-0.3366495370864868,-0.25525322556495667,-0.240814670920372
1739817649944597800,11.66859765625,-0.36500924825668335,-0.25298047065734863,-0.3475882411003113
1739817649954667800,11.678667724609374,-0.3874973654747009,-0.24370762705802917,-0.4299395680427551
1739817649964737000,11.688737060546876,-0.3918183445930481,-0.22590066492557526,-0.46144983172416687
1739817649974805800,11.6988056640625,-0.3893893361091614,-0.20090417563915253,-0.4365229904651642
1739817649984874800,11.708874755859375,-0.38829052448272705,-0.14351464807987213,-0.3419027328491211
1739817649994944800,11.71894482421875,-0.38039347529411316,-0.06944508850574493,-0.19404256343841553
1739817650005014000,11.729013916015624,-0.3586655557155609,0.011448164470493793,-0.007603970356285572
1739817650015082800,11.739082763671876,-0.3289617896080017,0.08530419319868088,0.1913776844739914
1739817650025153000,11.749153076171876,-0.3010963201522827,0.1263541579246521,0.34988129138946533
1739817650035221800,11.7592216796875,-0.2680712938308716,0.15087005496025085,0.4747591018676758
1739817650045290800,11.769290771484375,-0.22382928431034088,0.1494082510471344,0.5560557842254639
1739817650055359700,11.77935986328125,-0.18207833170890808,0.13625957071781158,0.5904619097709656
1739817650065430000,11.789429931640624,-0.15441927313804626,0.09013895690441132,0.5796798467636108
1739817650075498800,11.799498779296876,-0.13674482703208923,0.017273547127842903,0.5306779146194458
1739817650085567700,11.809567626953125,-0.12145108729600906,-0.06355525553226471,0.4416026175022125
1739817650095637800,11.8196376953125,-0.10667365789413452,-0.1539192795753479,0.32192444801330566
1739817650105707000,11.82970703125,-0.09725352376699448,-0.22698736190795898,0.19947363436222076
1739817650115775700,11.839775634765624,-0.09616103768348694,-0.26561713218688965,0.0932423323392868
1739817650125844700,11.8498447265625,-0.10696921497583389,-0.27368810772895813,0.014809045009315014
1739817650135914800,11.859914794921876,-0.12501688301563263,-0.2673221826553345,-0.01875411905348301
1739817650145984000,11.86998388671875,-0.1517619490623474,-0.24766220152378082,-0.010053306818008423
1739817650156052700,11.880052734375,-0.18567892909049988,-0.23704497516155243,0.027208320796489716
1739817650166121700,11.890121826171875,-0.21448208391666412,-0.23757067322731018,0.07203810662031174
1739817650176191700,11.900191650390624,-0.23587782680988312,-0.23852747678756714,0.11640843003988266
1739817650186261000,11.910260986328124,-0.24632860720157623,-0.2233828902244568,0.15210331976413727
1739817650196329700,11.920329833984376,-0.25167152285575867,-0.19113852083683014,0.16981956362724304
1739817650206398700,11.930398681640625,-0.25158417224884033,-0.1620432287454605,0.17519941926002502
1739817650216468700,11.94046875,-0.2463199496269226,-0.14091096818447113,0.17507711052894592
1739817650226538000,11.9505380859375,-0.23729157447814941,-0.12631285190582275,0.16531449556350708
1739817650236606700,11.960606689453124,-0.2310362458229065,-0.12431482970714569,0.15548357367515564
1739817650246677000,11.970677001953124,-0.22346433997154236,-0.12793833017349243,0.13253511488437653
1739817650256745700,11.980745849609375,-0.2170448899269104,-0.12330640107393265,0.10145695507526398
1739817650266814700,11.990814697265625,-0.2106599658727646,-0.11434593051671982,0.05650865659117699
1739817650276884000,12.000884033203125,-0.19589412212371826,-0.08723662793636322,-0.0017787814140319824
1739817650286954000,12.0109541015625,-0.17761604487895966,-0.049241576343774796,-0.04863203689455986
1739817650297022700,12.021022705078124,-0.14968934655189514,0.0026293406262993813,-0.08677893131971359
1739817650307091700,12.031091796875,-0.12210805714130402,0.05548962578177452,-0.1088501438498497
1739817650317161000,12.041160888671875,-0.09260845184326172,0.10351524502038956,-0.11917389929294586
1739817650327231000,12.05123095703125,-0.06405084580183029,0.13235382735729218,-0.10287056118249893
1739817650337299700,12.0612998046875,-0.04027939587831497,0.14660468697547913,-0.07614576071500778
1739817650347368700,12.07136865234375,-0.01938290148973465,0.14080698788166046,-0.039168305695056915
1739817650357438000,12.08143798828125,-0.009798282757401466,0.11206724494695663,-0.008282084949314594
1739817650367506700,12.091506591796875,-0.006607549265027046,0.07911302894353867,0.004938645288348198
1739817650377576000,12.101575927734375,-0.0022345909383147955,0.04081542789936066,-0.003998362459242344
1739817650387644700,12.111644775390625,-0.0023445794358849525,0.01976047269999981,-0.0383792407810688
1739817650397715000,12.12171484375,-0.0022272258065640926,0.0050736055709421635,-0.08540872484445572
1739817650407783700,12.13178369140625,0.0003054402768611908,0.0009933761321008205,-0.134038046002388
1739817650417853000,12.14185302734375,-0.011503631249070168,0.0005602156743407249,-0.17040713131427765
1739817650427921700,12.151921630859375,-0.026311073452234268,-0.0012592561542987823,-0.18897680938243866
1739817650437992000,12.161991943359375,-0.03150992840528488,0.0010808608494699001,-0.19421841204166412
1739817650448060700,12.172060791015625,-0.02826193906366825,0.015753014013171196,-0.20206968486309052
1739817650458130000,12.1821298828125,-0.02491806447505951,0.029423220083117485,-0.19777235388755798
1739817650468199700,12.19219970703125,-0.006853044964373112,0.03976614028215408,-0.17567771673202515
1739817650478269000,12.20226904296875,0.018366696313023567,0.06045442074537277,-0.13279180228710175
1739817650488337700,12.212337646484375,0.04785561561584473,0.07761716842651367,-0.10047169029712677
1739817650498407000,12.222406982421875,0.08222325146198273,0.1076999306678772,-0.07687020301818848
1739817650508476700,12.2324765625,0.11927847564220428,0.14861248433589935,-0.0666082426905632
1739817650518546000,12.2425458984375,0.16207659244537354,0.16088414192199707,-0.07214981317520142
1739817650528614700,12.25261474609375,0.21824400126934052,0.11555501818656921,-0.09286334365606308
