time,seconds_elapsed,z,y,x
1739817638304434000,0.028433837890625,-34.162689208984375,-20.554595947265625,-8.86641788482666
1739817638314503000,0.0385029296875,-34.544403076171875,-20.72314453125,-8.90914249420166
1739817638324573000,0.048572998046875,-34.592864990234375,-21.13347816467285,-9.05441665649414
1739817638334642000,0.058641845703125,-34.698699951171875,-21.67970848083496,-9.41268253326416
1739817638344707800,0.068707763671875,-35.074981689453125,-21.83997344970703,-9.750030517578125
1739817638354777600,0.078777587890625,-34.8349609375,-22.266902923583984,-9.982656478881836
1739817638364846600,0.0888466796875,-34.9151611328125,-22.192174911499023,-9.874852180480957
1739817638374916600,0.09891650390625,-34.828521728515625,-21.798419952392578,-10.036236763000488
1739817638384985600,0.108985595703125,-34.903594970703125,-21.806713104248047,-9.927335739135742
1739817638395055900,0.119055908203125,-34.546783447265625,-21.743141174316406,-10.1234712600708
1739817638405124600,0.12912451171875,-34.85858154296875,-22.014911651611328,-10.124025344848633
1739817638415193600,0.139193603515625,-34.268646240234375,-22.490507125854492,-10.498470306396484
1739817638425263600,0.149263671875,-35.097869873046875,-22.089717864990234,-10.208954811096191
1739817638435332900,0.159332763671875,-34.9141845703125,-21.803361892700195,-10.312028884887695
1739817638445402600,0.169402587890625,-34.60345458984375,-21.98333168029785,-10.093212127685547
1739817638455471900,0.179471923828125,-34.544219970703125,-21.90511131286621,-10.302841186523438
1739817638465541600,0.189541748046875,-34.52215576171875,-22.140445709228516,-10.22884750366211
1739817638475610600,0.199610595703125,-34.37139892578125,-21.966060638427734,-10.256080627441406
1739817638485679600,0.2096796875,-34.21063232421875,-22.10411834716797,-10.07348918914795
1739817638495749600,0.21974951171875,-34.521728515625,-22.184650421142578,-10.18979263305664
1739817638505818600,0.229818603515625,-34.681365966796875,-22.15009880065918,-10.30971908569336
1739817638515888600,0.239888671875,-34.442657470703125,-21.966318130493164,-10.230587005615234
1739817638525957600,0.24995751953125,-34.05853271484375,-22.158836364746094,-10.167511940002441
1739817638536027600,0.260027587890625,-34.11798095703125,-22.422714233398438,-10.371373176574707
1739817638546096600,0.2700966796875,-34.0355224609375,-22.327449798583984,-10.339818000793457
1739817638556165600,0.28016552734375,-34.40924072265625,-22.415409088134766,-10.39027214050293
1739817638566235600,0.290235595703125,-34.633575439453125,-22.257211685180664,-10.412373542785645
1739817638576304600,0.3003046875,-34.5206298828125,-22.45061492919922,-10.404789924621582
1739817638586374700,0.310374755859375,-34.59344482421875,-22.226438522338867,-10.299650192260742
1739817638596443600,0.320443603515625,-34.340606689453125,-21.95829963684082,-10.495272636413574
1739817638606512600,0.3305126953125,-34.403167724609375,-21.765838623046875,-10.455498695373535
1739817638616582700,0.340582763671875,-34.619537353515625,-21.581281661987305,-10.564637184143066
1739817638626651600,0.350651611328125,-34.59173583984375,-21.49489402770996,-10.847039222717285
1739817638636721700,0.3607216796875,-34.739990234375,-21.2476749420166,-10.87535572052002
1739817638646790700,0.370790771484375,-34.005889892578125,-21.56205940246582,-10.719489097595215
1739817638656860700,0.380860595703125,-34.16571044921875,-21.551633834838867,-10.877379417419434
1739817638666929700,0.3909296875,-34.072296142578125,-21.828824996948242,-10.808735847473145
1739817638676998700,0.40099853515625,-33.757049560546875,-21.845659255981445,-10.870566368103027
1739817638687068700,0.411068603515625,-33.649200439453125,-22.072481155395508,-10.692461967468262
1739817638697137700,0.4211376953125,-33.941802978515625,-22.221057891845703,-10.778178215026855
1739817638707207700,0.431207763671875,-34.243682861328125,-22.177467346191406,-10.867971420288086
1739817638717276700,0.441276611328125,-33.779327392578125,-22.245773315429688,-10.824822425842285
1739817638727346700,0.4513466796875,-34.087493896484375,-22.20563507080078,-10.781246185302734
1739817638737415700,0.461415771484375,-34.0013427734375,-22.33298683166504,-10.834274291992188
1739817638747484700,0.471484619140625,-34.195037841796875,-22.20566749572754,-10.57761287689209
1739817638757554700,0.4815546875,-34.04412841796875,-22.384443283081055,-10.757073402404785
1739817638767623700,0.491623779296875,-34.08563232421875,-22.267120361328125,-10.866669654846191
1739817638777693700,0.501693603515625,-34.270172119140625,-22.413820266723633,-10.649741172790527
1739817638787762700,0.5117626953125,-34.500457763671875,-22.209285736083984,-10.617692947387695
1739817638797831700,0.521831787109375,-34.7513427734375,-22.039249420166016,-10.743919372558594
1739817638807901700,0.531901611328125,-34.381805419921875,-21.995723724365234,-10.777432441711426
1739817638817970700,0.541970703125,-34.440155029296875,-21.875574111938477,-10.69457721710205
1739817638828040700,0.552040771484375,-34.58258056640625,-21.80506134033203,-10.862724304199219
1739817638838109700,0.562109619140625,-34.0557861328125,-21.858642578125,-10.782787322998047
1739817638848179500,0.572179443359375,-34.09234619140625,-21.9063777923584,-11.0274019241333
1739817638858248700,0.582248779296875,-34.41632080078125,-22.16643714904785,-11.101911544799805
1739817638868317700,0.592317626953125,-34.066650390625,-22.099504470825195,-11.013248443603516
1739817638878387700,0.6023876953125,-34.16632080078125,-22.159584045410156,-10.827713012695312
1739817638888456700,0.612456787109375,-34.115966796875,-22.148683547973633,-11.025178909301758
1739817638898526700,0.622526611328125,-34.10650634765625,-22.199298858642578,-11.013285636901855
1739817638908595500,0.632595458984375,-34.16595458984375,-22.02509880065918,-10.801176071166992
1739817638918664700,0.642664794921875,-33.96026611328125,-22.206010818481445,-10.970588684082031
1739817638928734500,0.652734375,-33.9095458984375,-22.318193435668945,-10.878850936889648
1739817638938803700,0.6628037109375,-34.109161376953125,-21.95358657836914,-10.96666145324707
1739817638948873700,0.672873779296875,-34.767974853515625,-22.05440330505371,-11.091184616088867
1739817638958942700,0.682942626953125,-34.4083251953125,-21.93238067626953,-11.10608196258545
1739817638969012700,0.6930126953125,-34.070465087890625,-21.842580795288086,-10.911486625671387
1739817638979081700,0.703081787109375,-33.93927001953125,-21.863895416259766,-11.071540832519531
1739817638989150700,0.713150634765625,-34.020233154296875,-21.876489639282227,-11.120118141174316
1739817638999220700,0.723220703125,-34.00958251953125,-21.895389556884766,-11.077179908752441
1739817639009289700,0.733289794921875,-34.24432373046875,-22.0751953125,-11.189543724060059
1739817639019359500,0.743359375,-34.15692138671875,-22.2966365814209,-11.096830368041992
1739817639029428700,0.7534287109375,-34.1055908203125,-22.14278221130371,-11.040238380432129
1739817639039497700,0.763497802734375,-33.97247314453125,-22.000925064086914,-10.805266380310059
1739817639049567700,0.773567626953125,-34.1343994140625,-22.035980224609375,-11.064364433288574
1739817639059636500,0.783636474609375,-34.372039794921875,-22.274681091308594,-10.916500091552734
1739817639069706800,0.793706787109375,-34.424407958984375,-22.23414421081543,-11.297989845275879
1739817639079775500,0.803775390625,-34.422149658203125,-22.141948699951172,-11.195570945739746
1739817639089844700,0.8138447265625,-34.336395263671875,-22.1921329498291,-11.12700366973877
1739817639099914500,0.82391455078125,-34.53485107421875,-22.172924041748047,-10.986321449279785
1739817639109983700,0.833983642578125,-34.340789794921875,-22.18448829650879,-10.702146530151367
1739817639120053800,0.8440537109375,-34.391571044921875,-22.29294204711914,-11.007659912109375
1739817639130122800,0.854122802734375,-34.13739013671875,-22.185405731201172,-11.124881744384766
1739817639140192800,0.86419287109375,-34.305419921875,-22.1173038482666,-11.12010383605957
1739817639150261800,0.87426171875,-34.417449951171875,-22.067344665527344,-11.23304557800293
1739817639160330800,0.884330810546875,-34.378753662109375,-22.419357299804688,-11.112191200256348
1739817639170400500,0.894400390625,-34.32977294921875,-22.031665802001953,-11.108654022216797
1739817639180469800,0.9044697265625,-34.4830322265625,-22.02305030822754,-11.256869316101074
1739817639190539500,0.91453955078125,-34.43927001953125,-22.026874542236328,-10.918913841247559
1739817639200608800,0.92460888671875,-34.175201416015625,-22.106929779052734,-11.103259086608887
1739817639210677500,0.934677490234375,-34.616180419921875,-22.16444969177246,-11.142745971679688
1739817639220747800,0.944747802734375,-34.34521484375,-22.123619079589844,-11.148090362548828
1739817639230816500,0.95481640625,-34.469635009765625,-22.076030731201172,-11.033050537109375
1739817639240886800,0.96488671875,-34.663818359375,-22.00423812866211,-11.183959007263184
1739817639250955500,0.97495556640625,-34.7681884765625,-21.934412002563477,-11.094083786010742
1739817639261024800,0.985024658203125,-34.650238037109375,-22.165321350097656,-11.267426490783691
1739817639271094500,0.995094482421875,-34.451446533203125,-22.026071548461914,-11.113025665283203
1739817639281163800,1.005163818359375,-34.660858154296875,-21.706707000732422,-11.1010103225708
1739817639291233500,1.015233642578125,-34.56414794921875,-21.705957412719727,-11.130764961242676
1739817639301302800,1.025302734375,-34.83636474609375,-21.67884635925293,-11.165410041809082
1739817639311372800,1.035372802734375,-34.347259521484375,-21.69999122619629,-11.051002502441406
1739817639321441500,1.045441650390625,-34.4874267578125,-21.846923828125,-11.064156532287598
1739817639331510500,1.055510498046875,-34.385711669921875,-21.90682029724121,-11.159649848937988
1739817639341580500,1.06558056640625,-34.46588134765625,-22.09116554260254,-11.229727745056152
1739817639351649800,1.07564990234375,-33.977783203125,-22.222564697265625,-11.22017765045166
1739817639361719800,1.0857197265625,-34.302886962890625,-21.87740135192871,-11.203497886657715
1739817639371788800,1.095788818359375,-34.3486328125,-22.079505920410156,-11.158591270446777
1739817639381857800,1.10585791015625,-34.428375244140625,-22.094139099121094,-10.952815055847168
1739817639391927800,1.115927734375,-34.177001953125,-21.991817474365234,-11.080301284790039
1739817639401996800,1.125996826171875,-34.73309326171875,-21.957740783691406,-11.02212905883789
1739817639412066800,1.13606689453125,-34.73504638671875,-21.839187622070312,-11.118083953857422
1739817639422135800,1.1461357421875,-34.597686767578125,-21.971664428710938,-11.102057456970215
1739817639432204800,1.156204833984375,-34.484161376953125,-21.82448387145996,-11.143102645874023
1739817639442274800,1.16627490234375,-34.69378662109375,-22.132278442382812,-11.126665115356445
1739817639452343800,1.17634375,-34.82745361328125,-22.028663635253906,-11.01293659210205
1739817639462413800,1.186413818359375,-34.727874755859375,-22.120166778564453,-10.842927932739258
1739817639472482600,1.196482666015625,-34.51409912109375,-21.99745750427246,-10.733489036560059
1739817639482551800,1.2065517578125,-34.76885986328125,-21.879669189453125,-10.75277328491211
1739817639492621800,1.216621826171875,-34.599639892578125,-21.972171783447266,-10.575626373291016
1739817639502690800,1.22669091796875,-34.56646728515625,-21.97418785095215,-11.039559364318848
1739817639512760800,1.2367607421875,-34.65673828125,-21.815650939941406,-11.122499465942383
1739817639522829800,1.246829833984375,-34.458740234375,-21.88907814025879,-11.032851219177246
1739817639532898600,1.256898681640625,-34.7548828125,-21.860427856445312,-10.907586097717285
1739817639542968800,1.26696875,-35.196929931640625,-22.05214500427246,-10.855888366699219
1739817639553037800,1.277037841796875,-34.58819580078125,-22.213272094726562,-11.032662391662598
1739817639563107800,1.28710791015625,-34.88043212890625,-22.06862449645996,-11.054647445678711
1739817639573176800,1.2971767578125,-35.334930419921875,-21.993518829345703,-10.882843017578125
1739817639583246600,1.30724658203125,-34.9737548828125,-21.88121223449707,-10.828553199768066
1739817639593315800,1.31731591796875,-34.967041015625,-21.888338088989258,-11.086819648742676
1739817639603384800,1.327384765625,-34.867645263671875,-22.054183959960938,-11.035654067993164
1739817639613454800,1.337454833984375,-34.914947509765625,-21.948604583740234,-11.078444480895996
1739817639623523800,1.34752392578125,-34.8848876953125,-22.171152114868164,-10.96448802947998
1739817639633593900,1.35759375,-34.7225341796875,-21.830467224121094,-10.661437034606934
1739817639643662600,1.36766259765625,-34.951385498046875,-21.71837615966797,-10.720793724060059
1739817639653731800,1.37773193359375,-34.80340576171875,-21.78621482849121,-10.753975868225098
1739817639663801600,1.387801513671875,-34.887969970703125,-21.70163345336914,-10.954601287841797
1739817639673870800,1.397870849609375,-34.580718994140625,-21.745939254760742,-10.851497650146484
1739817639683940900,1.40794091796875,-34.5006103515625,-21.773677825927734,-10.808934211730957
1739817639694009900,1.418009765625,-34.49090576171875,-21.927846908569336,-10.981147766113281
1739817639704078600,1.42807861328125,-34.577545166015625,-21.862695693969727,-10.884224891662598
1739817639714148900,1.43814892578125,-34.82373046875,-21.84269142150879,-10.791646003723145
1739817639724217900,1.4482177734375,-35.084564208984375,-21.94983673095703,-10.871007919311523
1739817639734287600,1.45828759765625,-34.66497802734375,-21.856903076171875,-10.737420082092285
1739817639744356900,1.46835693359375,-35.0115966796875,-21.79447364807129,-10.745290756225586
1739817639754425900,1.47842578125,-34.626861572265625,-21.65399932861328,-10.797406196594238
1739817639764496000,1.488495849609375,-35.1011962890625,-21.699600219726562,-10.71352481842041
1739817639774564900,1.49856494140625,-34.727203369140625,-21.65472412109375,-10.722421646118164
1739817639784635000,1.508634765625,-34.66497802734375,-21.85940933227539,-10.882416725158691
1739817639794703600,1.51870361328125,-34.828094482421875,-21.78252601623535,-11.095938682556152
1739817639804772900,1.52877294921875,-34.580291748046875,-21.773710250854492,-11.046065330505371
1739817639814842600,1.538842529296875,-34.59130859375,-21.725605010986328,-11.034173965454102
1739817639824912000,1.548911865234375,-34.68524169921875,-21.720088958740234,-10.987977027893066
1739817639834981600,1.558981689453125,-34.5728759765625,-21.438274383544922,-11.048904418945312
1739817639845051000,1.56905078125,-34.748687744140625,-21.7095947265625,-11.170165061950684
1739817639855119600,1.57911962890625,-34.897430419921875,-21.575666427612305,-11.151439666748047
1739817639865190000,1.58918994140625,-34.774261474609375,-21.774677276611328,-11.226037979125977
1739817639875258600,1.599258544921875,-34.554931640625,-21.811199188232422,-10.817134857177734
1739817639885329000,1.609328857421875,-34.87860107421875,-21.765966415405273,-11.234090805053711
1739817639895398000,1.61939794921875,-34.90350341796875,-21.459835052490234,-11.137923240661621
1739817639905467000,1.629466796875,-35.248809814453125,-21.63385009765625,-11.5054931640625
1739817639915537000,1.639536865234375,-35.279754638671875,-21.650300979614258,-11.16183090209961
1739817639925606000,1.64960595703125,-35.051666259765625,-21.548431396484375,-11.06522274017334
1739817639935676000,1.659676025390625,-35.02056884765625,-21.37666893005371,-11.313148498535156
1739817639945744600,1.66974462890625,-35.083892822265625,-21.567848205566406,-11.288981437683105
1739817639955814000,1.67981396484375,-35.220458984375,-21.437910079956055,-11.077733993530273
1739817639965883600,1.689883544921875,-35.508697509765625,-21.571664810180664,-11.123189926147461
1739817639975953000,1.699952880859375,-35.11077880859375,-21.40045166015625,-10.982877731323242
1739817639986022700,1.710022705078125,-35.28131103515625,-21.380409240722656,-11.085047721862793
1739817639996092000,1.720091796875,-35.63043212890625,-21.30156898498535,-10.983386039733887
1739817640006160600,1.73016064453125,-35.3736572265625,-21.30653953552246,-11.050643920898438
1739817640016231000,1.74023095703125,-34.965667724609375,-21.094087600708008,-10.837580680847168
1739817640026299600,1.750299560546875,-35.05792236328125,-21.344772338867188,-10.882749557495117
1739817640036370000,1.760369873046875,-35.11962890625,-21.482772827148438,-10.977104187011719
1739817640046438700,1.770438720703125,-34.87744140625,-21.363800048828125,-10.931715965270996
1739817640056508000,1.7805078125,-34.60638427734375,-21.44558334350586,-10.75994873046875
1739817640066577700,1.79057763671875,-34.933868408203125,-21.357362747192383,-10.854312896728516
1739817640076647000,1.80064697265625,-34.840545654296875,-21.082792282104492,-11.060355186462402
1739817640086717000,1.810717041015625,-34.8560791015625,-21.209440231323242,-11.012839317321777
1739817640096785700,1.82078564453125,-34.5963134765625,-21.182010650634766,-11.141180038452148
1739817640106854700,1.830854736328125,-35.04327392578125,-21.138431549072266,-11.168384552001953
1739817640116924700,1.840924560546875,-35.2152099609375,-21.07179832458496,-10.839380264282227
1739817640126994000,1.850993896484375,-34.865570068359375,-21.068574905395508,-10.734563827514648
1739817640137063700,1.861063720703125,-34.974822998046875,-21.277362823486328,-10.911590576171875
1739817640147133000,1.8711328125,-34.72064208984375,-21.074726104736328,-11.015560150146484
1739817640157201700,1.88120166015625,-34.663787841796875,-21.15219497680664,-10.932716369628906
1739817640167272000,1.89127197265625,-35.06292724609375,-21.142738342285156,-10.813176155090332
1739817640177340700,1.901340576171875,-34.7947998046875,-21.211753845214844,-10.826431274414062
1739817640187411000,1.911410888671875,-34.865325927734375,-21.1533260345459,-10.997065544128418
1739817640197479700,1.921479736328125,-35.033203125,-21.212955474853516,-11.133601188659668
1739817640207549000,1.931548828125,-35.45684814453125,-21.00041961669922,-10.77626895904541
1739817640217618700,1.94161865234375,-35.104034423828125,-21.0596981048584,-10.84233283996582
1739817640227688000,1.95168798828125,-34.542510986328125,-20.913047790527344,-10.782877922058105
1739817640237757700,1.9617578125,-34.87457275390625,-21.043378829956055,-10.890475273132324
1739817640247826700,1.97182666015625,-34.63299560546875,-21.078201293945312,-10.937341690063477
1739817640257895700,1.981895751953125,-34.832855224609375,-21.07234001159668,-10.871320724487305
1739817640267965700,1.991965576171875,-34.9002685546875,-21.19186019897461,-11.097681999206543
1739817640278034700,2.00203466796875,-35.3157958984375,-21.107973098754883,-10.92520809173584
1739817640288104700,2.012104736328125,-35.062591552734375,-20.9716739654541,-10.626056671142578
1739817640298173700,2.022173583984375,-34.671051025390625,-20.93268585205078,-10.653229713439941
1739817640308242700,2.03224267578125,-34.769805908203125,-20.883045196533203,-10.93503189086914
1739817640318313000,2.04231298828125,-34.748931884765625,-20.628917694091797,-10.711573600769043
1739817640328381700,2.052381591796875,-34.620941162109375,-20.595964431762695,-10.911367416381836
1739817640338452000,2.062451904296875,-34.677581787109375,-20.52606773376465,-10.377904891967773
1739817640348520200,2.072520263671875,-34.57452392578125,-20.39192771911621,-10.328872680664062
1739817640358589200,2.082589111328125,-35.003631591796875,-20.53845977783203,-10.44216537475586
1739817640368659200,2.0926591796875,-34.84429931640625,-20.785003662109375,-10.490335464477539
1739817640378728200,2.102728271484375,-34.72607421875,-20.865148544311523,-10.498980522155762
1739817640388797200,2.112797119140625,-35.177459716796875,-21.03588104248047,-10.580723762512207
1739817640398867200,2.1228671875,-35.385650634765625,-20.9018497467041,-10.514618873596191
1739817640408936200,2.132936279296875,-35.579559326171875,-20.810312271118164,-10.471277236938477
1739817640419006200,2.143006103515625,-35.52215576171875,-20.756925582885742,-10.699016571044922
1739817640429075200,2.1530751953125,-34.9490966796875,-20.629352569580078,-10.720246315002441
1739817640439144200,2.163144287109375,-35.2099609375,-20.736282348632812,-10.722893714904785
1739817640449214200,2.173214111328125,-35.35223388671875,-20.930511474609375,-10.666217803955078
1739817640459283200,2.183283203125,-35.40789794921875,-20.874555587768555,-10.535819053649902
1739817640469353200,2.193353271484375,-35.354217529296875,-20.96146011352539,-10.708675384521484
1739817640479422200,2.203422119140625,-35.355255126953125,-20.99888801574707,-10.415884971618652
1739817640489491200,2.2134912109375,-35.649322509765625,-20.9849796295166,-10.454266548156738
1739817640499561200,2.223561279296875,-35.487701416015625,-20.931058883666992,-10.222528457641602
1739817640509630200,2.233630126953125,-35.4102783203125,-21.141639709472656,-10.363835334777832
1739817640519700200,2.2437001953125,-35.35906982421875,-21.126264572143555,-10.411661148071289
1739817640529769200,2.253769287109375,-35.191436767578125,-20.706884384155273,-10.227038383483887
1739817640539838200,2.263838134765625,-34.98651123046875,-20.731386184692383,-10.197667121887207
1739817640549908200,2.273908203125,-35.413177490234375,-20.653356552124023,-10.360372543334961
1739817640559977200,2.283977294921875,-35.633514404296875,-20.72394561767578,-10.184212684631348
1739817640570047200,2.294047119140625,-35.475677490234375,-20.659929275512695,-10.397565841674805
1739817640580116200,2.3041162109375,-35.479461669921875,-20.74091339111328,-10.599628448486328
1739817640590185200,2.314185302734375,-35.134552001953125,-20.63521957397461,-10.242351531982422
1739817640600255200,2.324255126953125,-35.36370849609375,-20.881301879882812,-10.268634796142578
1739817640610324200,2.33432421875,-35.22637939453125,-20.7906436920166,-10.410393714904785
1739817640620394200,2.344394287109375,-35.286163330078125,-20.917808532714844,-10.355802536010742
1739817640630463200,2.354463134765625,-35.041107177734375,-20.87886619567871,-10.370732307434082
1739817640640532200,2.3645322265625,-35.024810791015625,-20.577089309692383,-10.526320457458496
1739817640650602000,2.37460205078125,-35.1905517578125,-20.5490665435791,-10.373863220214844
1739817640660671200,2.384671142578125,-35.358551025390625,-20.603355407714844,-10.363373756408691
1739817640670740200,2.394740234375,-35.18316650390625,-20.618654251098633,-10.496390342712402
1739817640680810200,2.404810302734375,-35.22943115234375,-20.727245330810547,-10.485650062561035
1739817640690879200,2.414879150390625,-35.162567138671875,-20.64487648010254,-10.519937515258789
1739817640700949200,2.42494921875,-35.233734130859375,-20.776472091674805,-10.289772987365723
1739817640711018000,2.43501806640625,-35.654205322265625,-20.609643936157227,-10.261642456054688
1739817640721087200,2.445087158203125,-35.523162841796875,-20.83704948425293,-10.238255500793457
1739817640731157200,2.4551572265625,-35.626861572265625,-20.534744262695312,-10.425762176513672
1739817640741226200,2.465226318359375,-35.276458740234375,-20.628053665161133,-10.456204414367676
1739817640751296300,2.475296142578125,-35.4923095703125,-20.53379249572754,-10.454968452453613
1739817640761365200,2.485365234375,-35.420440673828125,-20.606603622436523,-10.573690414428711
1739817640771434200,2.495434326171875,-35.76995849609375,-20.6700439453125,-10.524821281433105
1739817640781504300,2.505504150390625,-35.596649169921875,-20.381807327270508,-10.558866500854492
1739817640791573200,2.5155732421875,-35.40362548828125,-20.600017547607422,-10.396346092224121
1739817640801643000,2.52564306640625,-35.0552978515625,-20.279396057128906,-10.474925994873047
1739817640811712300,2.535712158203125,-35.159576416015625,-20.546167373657227,-10.548672676086426
1739817640821781200,2.54578125,-35.003173828125,-20.633750915527344,-10.324368476867676
1739817640831851300,2.555851318359375,-35.070404052734375,-20.48905372619629,-10.442924499511719
1739817640841920300,2.565920166015625,-35.13311767578125,-20.45140838623047,-10.51262378692627
1739817640851990300,2.575990234375,-35.20379638671875,-20.299976348876953,-10.742146492004395
1739817640862059000,2.58605908203125,-34.81292724609375,-20.503610610961914,-10.700002670288086
1739817640872128300,2.596128173828125,-35.1448974609375,-20.48686981201172,-10.587624549865723
1739817640882198000,2.606197998046875,-35.152740478515625,-20.4626522064209,-10.490002632141113
1739817640892267300,2.616267333984375,-35.365692138671875,-20.60331153869629,-10.606037139892578
1739817640902337300,2.626337158203125,-35.484588623046875,-20.526073455810547,-10.557486534118652
1739817640912406300,2.63640625,-35.26068115234375,-20.512311935424805,-10.701120376586914
1739817640922475000,2.64647509765625,-35.301300048828125,-20.339414596557617,-10.5494966506958
1739817640932545300,2.656545166015625,-35.298583984375,-20.32172203063965,-10.4434232711792
1739817640942614300,2.6666142578125,-35.057769775390625,-20.446706771850586,-10.564715385437012
1739817640952684300,2.676684326171875,-35.1231689453125,-20.52519989013672,-10.442754745483398
1739817640962753300,2.686753173828125,-35.181884765625,-20.40101432800293,-10.542878150939941
1739817640972822300,2.696822265625,-35.15692138671875,-20.210302352905273,-10.539161682128906
1739817640982892300,2.706892333984375,-35.464324951171875,-19.962919235229492,-10.50293254852295
1739817640992961300,2.716961181640625,-35.54388427734375,-20.16032600402832,-10.45120620727539
1739817641003030300,2.7270302734375,-35.213470458984375,-20.17864227294922,-10.248149871826172
1739817641013100000,2.73710009765625,-35.225555419921875,-20.243619918823242,-10.29037094116211
1739817641023169300,2.747169189453125,-35.541717529296875,-20.23560905456543,-10.453169822692871
1739817641033239000,2.757239013671875,-35.560333251953125,-20.216289520263672,-10.449007034301758
1739817641043308300,2.767308349609375,-35.189453125,-20.299449920654297,-10.429526329040527
1739817641053377000,2.777376953125,-35.2353515625,-20.27364730834961,-10.500197410583496
1739817641063447300,2.787447265625,-35.383819580078125,-19.889680862426758,-10.709430694580078
1739817641073516000,2.79751611328125,-35.51580810546875,-19.819936752319336,-10.657004356384277
1739817641083586300,2.80758642578125,-35.953521728515625,-19.697629928588867,-10.9231595993042
1739817641093655000,2.817655029296875,-35.90545654296875,-19.556171417236328,-10.876224517822266
1739817641103724300,2.827724365234375,-35.84375,-19.34877586364746,-10.737736701965332
1739817641113794000,2.8377939453125,-35.26251220703125,-19.272884368896484,-10.869134902954102
1739817641123863300,2.84786328125,-35.3604736328125,-19.291738510131836,-10.973752975463867
1739817641133933300,2.857933349609375,-35.522491455078125,-19.385208129882812,-11.039813041687012
1739817641144002300,2.868002197265625,-35.70758056640625,-19.35089874267578,-11.23580265045166
1739817641154071000,2.878071044921875,-35.2266845703125,-19.61317253112793,-11.193263053894043
1739817641164141000,2.88814111328125,-35.4361572265625,-19.762920379638672,-11.250221252441406
1739817641174210300,2.898210205078125,-35.323455810546875,-19.971298217773438,-11.305401802062988
1739817641184280000,2.908280029296875,-35.05462646484375,-20.268354415893555,-11.235001564025879
1739817641194349300,2.918349365234375,-35.062042236328125,-20.459888458251953,-11.417271614074707
1739817641204418300,2.928418212890625,-34.76617431640625,-20.66650390625,-11.127476692199707
1739817641214488300,2.93848828125,-34.913726806640625,-21.00775909423828,-11.103300094604492
1739817641224557000,2.94855712890625,-34.941009521484375,-21.444862365722656,-11.445905685424805
1739817641234626300,2.958626220703125,-34.4649658203125,-21.79830551147461,-11.423666000366211
1739817641244696000,2.968696044921875,-34.26959228515625,-21.836917877197266,-11.264458656311035
1739817641254765300,2.978765380859375,-34.253753662109375,-21.741432189941406,-11.021403312683105
1739817641264835000,2.9888349609375,-34.05670166015625,-21.656620025634766,-11.351654052734375
1739817641274904300,2.998904296875,-33.912139892578125,-21.877241134643555,-11.593111038208008
1739817641284973000,3.00897314453125,-34.07415771484375,-21.823219299316406,-11.46884822845459
1739817641295043300,3.019043212890625,-33.8280029296875,-21.528820037841797,-11.352889060974121
1739817641305112000,3.029112060546875,-34.078033447265625,-21.26787567138672,-11.587764739990234
1739817641315182300,3.039182373046875,-34.094512939453125,-21.076004028320312,-11.052614212036133
1739817641325251000,3.0492509765625,-34.324615478515625,-21.208906173706055,-10.745301246643066
1739817641335320300,3.0593203125,-34.631011962890625,-21.22902488708496,-10.395231246948242
1739817641345390000,3.06939013671875,-34.579498291015625,-21.2805118560791,-9.751697540283203
1739817641355459300,3.079459228515625,-34.407989501953125,-21.50735092163086,-9.170031547546387
1739817641365529300,3.089529296875,-34.0513916015625,-21.437458038330078,-8.518733024597168
1739817641375598300,3.099598388671875,-34.624847412109375,-21.749303817749023,-8.4771089553833
1739817641385667300,3.109667236328125,-34.226104736328125,-21.619922637939453,-8.217272758483887
1739817641395737300,3.1197373046875,-34.416259765625,-21.74371910095215,-8.168962478637695
1739817641405806300,3.129806396484375,-34.136932373046875,-21.689189910888672,-7.985447883605957
1739817641415875300,3.139875244140625,-34.26568603515625,-21.653715133666992,-7.9764556884765625
1739817641425945600,3.149945556640625,-34.719390869140625,-21.30455780029297,-8.32800006866455
1739817641436014300,3.160014404296875,-34.902862548828125,-21.423131942749023,-8.453509330749512
1739817641446084600,3.170084716796875,-34.79168701171875,-21.240394592285156,-8.473467826843262
1739817641456153300,3.1801533203125,-34.8765869140625,-21.121416091918945,-8.716341972351074
1739817641466222600,3.19022265625,-34.976287841796875,-20.88446044921875,-8.721945762634277
1739817641476292400,3.200292236328125,-34.95355224609375,-20.89511489868164,-9.068780899047852
1739817641486361600,3.210361572265625,-34.641998291015625,-20.811538696289062,-9.036534309387207
1739817641496431400,3.220431396484375,-34.55419921875,-20.72651481628418,-9.29965591430664
1739817641506500600,3.23050048828125,-34.596923828125,-20.979276657104492,-9.274421691894531
1739817641516569300,3.2405693359375,-34.491668701171875,-20.828767776489258,-9.47628116607666
1739817641526639400,3.250639404296875,-34.900360107421875,-20.96815299987793,-9.412444114685059
1739817641536708400,3.260708251953125,-34.539093017578125,-20.679065704345703,-9.367193222045898
1739817641546778400,3.2707783203125,-34.420196533203125,-20.825828552246094,-9.427669525146484
1739817641556847400,3.280847412109375,-34.5517578125,-20.861976623535156,-9.749285697937012
1739817641566916400,3.290916259765625,-34.600616455078125,-20.76193618774414,-9.442648887634277
1739817641576986400,3.300986328125,-34.730682373046875,-20.79556655883789,-9.876462936401367
1739817641587055400,3.311055419921875,-34.6768798828125,-20.879430770874023,-9.74460506439209
1739817641597124400,3.321124267578125,-34.83447265625,-20.70012092590332,-10.186049461364746
1739817641607194400,3.3311943359375,-34.53228759765625,-20.71767234802246,-10.122689247131348
1739817641617263400,3.341263427734375,-34.240142822265625,-20.509761810302734,-10.033090591430664
1739817641627333400,3.35133349609375,-34.37738037109375,-20.310623168945312,-9.984055519104004
1739817641637402400,3.36140234375,-34.18585205078125,-20.45945167541504,-10.135618209838867
1739817641647471400,3.371471435546875,-34.24273681640625,-20.542821884155273,-10.35633659362793
1739817641657541600,3.381541748046875,-34.15869140625,-20.58936309814453,-10.529122352600098
1739817641667610400,3.3916103515625,-34.369354248046875,-20.719432830810547,-10.205135345458984
1739817641677680400,3.401680419921875,-34.32769775390625,-20.944021224975586,-10.308562278747559
1739817641687749400,3.411749267578125,-34.17791748046875,-21.222309112548828,-10.233390808105469
1739817641697818600,3.421818603515625,-34.40966796875,-21.19928550720215,-10.36896800994873
1739817641707888400,3.431888427734375,-34.5162353515625,-21.387462615966797,-10.050994873046875
1739817641717957400,3.441957275390625,-34.16094970703125,-21.606779098510742,-10.498000144958496
1739817641728027400,3.45202734375,-33.69659423828125,-21.7606201171875,-10.436986923217773
1739817641738096400,3.462096435546875,-33.915130615234375,-21.850425720214844,-10.513859748840332
1739817641748165400,3.472165283203125,-33.647003173828125,-21.947223663330078,-11.10904598236084
1739817641758235400,3.4822353515625,-34.02386474609375,-22.26715850830078,-11.388540267944336
1739817641768304400,3.492304443359375,-33.764434814453125,-21.9999942779541,-11.463611602783203
1739817641778373400,3.502373291015625,-33.82177734375,-21.942012786865234,-11.211543083190918
1739817641788443400,3.512443359375,-33.422119140625,-21.737842559814453,-11.12769603729248
1739817641798512400,3.522512451171875,-33.464935302734375,-21.632762908935547,-11.601754188537598
1739817641808582400,3.53258251953125,-33.5374755859375,-21.5811767578125,-11.65201187133789
1739817641818651400,3.5426513671875,-33.270355224609375,-21.21320915222168,-11.862312316894531
1739817641828720400,3.552720458984375,-33.478973388671875,-21.275814056396484,-12.13891315460205
1739817641838790400,3.562790283203125,-33.199554443359375,-20.9383487701416,-12.581740379333496
1739817641848859400,3.572859375,-33.6815185546875,-20.615829467773438,-12.854668617248535
1739817641858929400,3.582929443359375,-32.978424072265625,-20.467185974121094,-13.432114601135254
1739817641868998400,3.592998291015625,-32.7725830078125,-20.266925811767578,-14.280779838562012
1739817641879067400,3.6030673828125,-33.16729736328125,-20.288066864013672,-14.5415678024292
1739817641889137400,3.613137451171875,-32.7674560546875,-20.057872772216797,-15.271262168884277
1739817641899206400,3.623206298828125,-32.390228271484375,-20.071029663085938,-15.692948341369629
1739817641909275400,3.633275390625,-32.57012939453125,-20.31195640563965,-16.465412139892578
1739817641919345400,3.643345458984375,-32.392303466796875,-20.4529972076416,-16.94448471069336
1739817641929414400,3.653414306640625,-32.407440185546875,-20.2291259765625,-16.93572998046875
1739817641939484400,3.663484375,-32.233917236328125,-20.299325942993164,-16.895706176757812
1739817641949553400,3.673553466796875,-32.3057861328125,-20.11271095275879,-16.83940887451172
1739817641959622400,3.683622314453125,-32.548736572265625,-19.987716674804688,-16.536579132080078
1739817641969692400,3.6936923828125,-32.575927734375,-19.93246078491211,-16.423656463623047
1739817641979761400,3.703761474609375,-32.947662353515625,-20.011070251464844,-15.978358268737793
1739817641989831400,3.71383154296875,-32.809295654296875,-19.848678588867188,-15.923165321350098
1739817641999900400,3.723900390625,-32.95831298828125,-19.714248657226562,-15.495673179626465
1739817642009969400,3.733969482421875,-33.012237548828125,-19.923791885375977,-15.2210054397583
1739817642020039400,3.744039306640625,-32.88470458984375,-19.978899002075195,-15.009133338928223
1739817642030108400,3.7541083984375,-32.7928466796875,-20.28034210205078,-14.83361530303955
1739817642040177400,3.764177490234375,-33.114166259765625,-20.21628189086914,-14.67164134979248
1739817642050247400,3.774247314453125,-33.1866455078125,-20.348613739013672,-14.642996788024902
1739817642060316400,3.78431640625,-32.941436767578125,-20.634767532348633,-14.204808235168457
1739817642070386400,3.794386474609375,-32.5477294921875,-20.736820220947266,-14.11398983001709
1739817642080455400,3.804455322265625,-32.808349609375,-20.943031311035156,-14.078198432922363
1739817642090524400,3.8145244140625,-32.83544921875,-20.883893966674805,-13.98991870880127
1739817642100594400,3.824594482421875,-32.59930419921875,-21.029634475708008,-13.840458869934082
1739817642110663400,3.834663330078125,-32.21441650390625,-20.96430015563965,-13.997149467468262
1739817642120733400,3.8447333984375,-32.321624755859375,-20.68386459350586,-14.159375190734863
1739817642130802400,3.854802490234375,-32.22064208984375,-20.54632568359375,-14.169939994812012
1739817642140871400,3.864871337890625,-32.61224365234375,-20.360132217407227,-14.102679252624512
1739817642150941400,3.87494140625,-32.6461181640625,-20.2827091217041,-14.062785148620605
1739817642161010400,3.885010498046875,-32.98651123046875,-20.126407623291016,-14.067793846130371
1739817642171079400,3.895079345703125,-33.083984375,-19.928136825561523,-13.876093864440918
1739817642181149400,3.9051494140625,-33.263275146484375,-20.020896911621094,-13.71996021270752
1739817642191218400,3.915218505859375,-32.749664306640625,-19.94529914855957,-13.378870964050293
1739817642201288400,3.925288330078125,-33.282928466796875,-19.799274444580078,-13.259535789489746
1739817642211357400,3.935357421875,-33.168365478515625,-19.999088287353516,-13.436774253845215
1739817642221426400,3.945426513671875,-33.10064697265625,-19.930849075317383,-13.2370023727417
1739817642231496400,3.955496337890625,-32.903778076171875,-19.776342391967773,-13.37899112701416
1739817642241565400,3.9655654296875,-33.065826416015625,-19.911073684692383,-13.165888786315918
1739817642251634400,3.975634521484375,-32.858367919921875,-19.850128173828125,-12.981003761291504
1739817642261704400,3.985704345703125,-32.40081787109375,-19.919553756713867,-13.057541847229004
1739817642271773400,3.9957734375,-32.427154541015625,-19.654613494873047,-12.94919490814209
1739817642281843500,4.005843505859375,-32.6114501953125,-19.924131393432617,-12.856398582458496
1739817642291912200,4.015912109375,-32.728912353515625,-19.74698829650879,-12.976656913757324
1739817642301981400,4.0259814453125,-32.84600830078125,-19.702423095703125,-12.6183443069458
1739817642312051200,4.03605126953125,-32.9638671875,-19.664119720458984,-12.51293659210205
1739817642322120400,4.046120361328125,-33.288299560546875,-19.807580947875977,-12.530028343200684
1739817642332190500,4.0561904296875,-33.10498046875,-19.62116241455078,-12.402373313903809
1739817642342259500,4.066259521484375,-33.099945068359375,-19.734323501586914,-12.088818550109863
1739817642352328000,4.076327880859375,-33.01116943359375,-19.991519927978516,-12.118781089782715
1739817642362398000,4.08639794921875,-32.974212646484375,-19.74941062927246,-11.922262191772461
1739817642372466700,4.096466796875,-33.132598876953125,-19.93456268310547,-11.958331108093262
1739817642382536000,4.106535888671875,-33.151519775390625,-19.797048568725586,-12.029976844787598
1739817642392605700,4.116605712890625,-33.177703857421875,-19.865848541259766,-11.913077354431152
1739817642402675000,4.126675048828125,-33.230621337890625,-19.81241226196289,-11.801648139953613
1739817642412744700,4.13674462890625,-33.255035400390625,-19.765886306762695,-11.948410987854004
1739817642422814000,4.14681396484375,-32.973907470703125,-19.758821487426758,-11.862817764282227
1739817642432882700,4.156882568359375,-32.97515869140625,-19.991483688354492,-12.00062084197998
1739817642442953000,4.166952880859375,-33.39971923828125,-19.761201858520508,-11.954695701599121
1739817642453021700,4.177021728515625,-33.28179931640625,-19.394926071166992,-11.478164672851562
1739817642463091000,4.187091064453125,-33.1058349609375,-19.688568115234375,-11.888120651245117
1739817642473160700,4.19716064453125,-33.132049560546875,-19.736631393432617,-11.837237358093262
1739817642483230000,4.20722998046875,-33.24322509765625,-19.793537139892578,-11.693489074707031
1739817642493299700,4.2172998046875,-33.0726318359375,-19.471839904785156,-11.830223083496094
1739817642503369000,4.227368896484375,-33.71014404296875,-19.440723419189453,-11.830900192260742
1739817642513437700,4.237437744140625,-33.707855224609375,-19.46563148498535,-11.794240951538086
1739817642523507700,4.2475078125,-33.60418701171875,-19.363037109375,-12.042855262756348
1739817642533576700,4.25757666015625,-33.744140625,-19.44904327392578,-11.923859596252441
1739817642543646000,4.26764599609375,-33.78424072265625,-19.360279083251953,-11.75843334197998
1739817642553715700,4.2777158203125,-34.06756591796875,-19.227985382080078,-11.47809886932373
1739817642563785000,4.287784912109375,-34.2830810546875,-19.198760986328125,-11.471700668334961
1739817642573855000,4.29785498046875,-34.04425048828125,-19.402956008911133,-11.396371841430664
1739817642583923700,4.307923828125,-34.16656494140625,-19.2262020111084,-11.440166473388672
1739817642593992700,4.31799267578125,-34.0775146484375,-19.172447204589844,-11.307469367980957
1739817642604062700,4.328062744140625,-34.193115234375,-19.175519943237305,-11.309306144714355
1739817642614132000,4.338132080078125,-34.180511474609375,-19.022762298583984,-11.242706298828125
1739817642624200700,4.34820068359375,-33.854583740234375,-19.071483612060547,-11.096121788024902
1739817642634271000,4.35827099609375,-34.001251220703125,-18.88069725036621,-10.983109474182129
1739817642644339700,4.368339599609375,-33.620574951171875,-18.89552879333496,-11.011682510375977
1739817642654410000,4.378409912109375,-33.42919921875,-18.919910430908203,-10.936885833740234
1739817642664478700,4.388478759765625,-33.616302490234375,-18.690650939941406,-10.678141593933105
1739817642674548000,4.3985478515625,-34.0264892578125,-18.64483070373535,-10.527270317077637
1739817642684617700,4.40861767578125,-34.26983642578125,-18.587417602539062,-10.5516939163208
1739817642694687000,4.41868701171875,-34.349761962890625,-18.64228057861328,-10.334790229797363
1739817642704755700,4.428755615234375,-34.235504150390625,-18.508859634399414,-10.29470443725586
1739817642714826000,4.438825927734375,-34.286102294921875,-18.57684898376465,-10.532769203186035
1739817642724894700,4.448894775390625,-34.2457275390625,-18.43040657043457,-10.37343978881836
1739817642734964700,4.45896484375,-34.2115478515625,-18.410024642944336,-10.437219619750977
1739817642745033700,4.46903369140625,-34.28607177734375,-18.423032760620117,-10.417515754699707
1739817642755103000,4.47910302734375,-34.748443603515625,-18.33640480041504,-10.141704559326172
1739817642765172700,4.4891728515625,-34.518707275390625,-18.306629180908203,-10.12901782989502
1739817642775241700,4.49924169921875,-34.425079345703125,-18.26157569885254,-10.181635856628418
1739817642785310700,4.509310791015625,-34.57318115234375,-18.164579391479492,-10.2432222366333
1739817642795380700,4.519380615234375,-34.8260498046875,-18.0938777923584,-10.092567443847656
1739817642805449700,4.52944970703125,-34.904266357421875,-18.20838165283203,-10.114225387573242
1739817642815519700,4.539519775390625,-34.410675048828125,-18.027116775512695,-10.255889892578125
1739817642825589000,4.549589111328125,-34.5928955078125,-17.82788848876953,-10.008244514465332
1739817642835657700,4.55965771484375,-34.823974609375,-17.935361862182617,-10.094701766967773
1739817642845728000,4.56972802734375,-34.942718505859375,-17.91824722290039,-9.902353286743164
1739817642855796700,4.579796630859375,-35.48651123046875,-17.78968620300293,-9.957598686218262
1739817642865865700,4.58986572265625,-34.900146484375,-17.805940628051758,-9.994892120361328
1739817642875935700,4.599935791015625,-35.030029296875,-17.623380661010742,-10.140830993652344
1739817642886005000,4.6100048828125,-34.618988037109375,-17.554731369018555,-10.08332633972168
1739817642896073700,4.62007373046875,-34.740081787109375,-17.57868194580078,-10.269789695739746
1739817642906144000,4.63014404296875,-34.74261474609375,-17.819581985473633,-10.122550964355469
1739817642916212700,4.640212646484375,-34.35198974609375,-17.687257766723633,-10.249133110046387
1739817642926283000,4.650282958984375,-34.434234619140625,-17.862960815429688,-10.11892032623291
1739817642936351700,4.660351806640625,-33.923614501953125,-17.973922729492188,-9.9945650100708
1739817642946421000,4.6704208984375,-34.1314697265625,-17.903732299804688,-10.024602890014648
1739817642956490800,4.68049072265625,-34.17852783203125,-18.021713256835938,-10.222871780395508
1739817642966560000,4.69056005859375,-33.962371826171875,-18.011009216308594,-10.32253360748291
1739817642976628700,4.700628662109375,-34.128875732421875,-18.1490478515625,-10.188386917114258
1739817642986698800,4.71069873046875,-34.43133544921875,-18.032596588134766,-10.069341659545898
1739817642996767700,4.720767822265625,-34.62799072265625,-17.910356521606445,-10.295588493347168
1739817643006837800,4.730837646484375,-34.302337646484375,-18.16996955871582,-10.522181510925293
1739817643016906800,4.74090673828125,-34.3546142578125,-18.0618896484375,-10.356017112731934
1739817643026975700,4.750975830078125,-34.387298583984375,-17.981853485107422,-10.383892059326172
1739817643037045800,4.761045654296875,-34.356109619140625,-18.207664489746094,-10.474481582641602
1739817643047114800,4.77111474609375,-34.358551025390625,-18.03945541381836,-10.247570037841797
1739817643057183700,4.781183837890625,-34.020294189453125,-18.062217712402344,-10.502685546875
1739817643067253800,4.791253662109375,-33.915618896484375,-17.78349494934082,-10.83745288848877
1739817643077322800,4.80132275390625,-34.245758056640625,-17.631019592285156,-10.92863655090332
1739817643087392800,4.811392822265625,-33.868927001953125,-17.515031814575195,-11.20035171508789
1739817643097462000,4.8214619140625,-34.13360595703125,-17.34642219543457,-11.04615592956543
1739817643107530800,4.83153076171875,-34.15594482421875,-17.2667236328125,-11.308452606201172
1739817643117601000,4.84160107421875,-34.66302490234375,-17.23076629638672,-11.187971115112305
1739817643127669800,4.851669677734375,-34.43914794921875,-17.262996673583984,-11.171342849731445
1739817643137739000,4.861739013671875,-34.52105712890625,-17.306827545166016,-11.336102485656738
1739817643147808800,4.871808837890625,-34.24542236328125,-17.36066246032715,-11.295961380004883
1739817643157878000,4.8818779296875,-34.20111083984375,-17.49399757385254,-11.282495498657227
1739817643167946800,4.89194677734375,-33.839019775390625,-17.47519302368164,-11.210874557495117
1739817643178017000,4.90201708984375,-34.07745361328125,-17.447595596313477,-11.381531715393066
1739817643188085800,4.912085693359375,-34.05670166015625,-17.371755599975586,-11.478875160217285
1739817643198155800,4.92215576171875,-34.3804931640625,-17.151084899902344,-11.54269027709961
1739817643208224800,4.932224853515625,-34.054656982421875,-17.210113525390625,-11.772066116333008
1739817643218294000,4.9422939453125,-34.083251953125,-17.147422790527344,-11.675093650817871
1739817643228363800,4.95236376953125,-33.8778076171875,-17.194869995117188,-11.476855278015137
1739817643238432800,4.962432861328125,-34.086029052734375,-17.09404945373535,-11.715580940246582
1739817643248501800,4.972501708984375,-34.41973876953125,-16.799474716186523,-11.460968017578125
1739817643258571800,4.98257177734375,-34.317413330078125,-16.701696395874023,-11.420923233032227
1739817643268640800,4.992640869140625,-34.2274169921875,-16.642168045043945,-11.376341819763184
1739817643278710000,5.0027099609375,-34.212554931640625,-16.86865234375,-11.586132049560547
1739817643288779800,5.01277978515625,-34.362640380859375,-16.850072860717773,-11.367722511291504
1739817643298848800,5.022848876953125,-34.1346435546875,-16.8717041015625,-11.50999641418457
1739817643308918800,5.032918701171875,-34.108245849609375,-16.527446746826172,-11.433032989501953
1739817643318987800,5.04298779296875,-34.06732177734375,-16.685075759887695,-11.22480297088623
1739817643329056800,5.053056884765625,-34.17193603515625,-16.86930274963379,-11.51954460144043
1739817643339126800,5.063126708984375,-34.31146240234375,-16.891815185546875,-11.552715301513672
1739817643349195800,5.07319580078125,-34.31097412109375,-16.87491798400879,-11.576684951782227
1739817643359268600,5.0832685546875,-33.96209716796875,-16.920988082885742,-11.743284225463867
1739817643369338600,5.093338623046875,-33.77490234375,-17.109804153442383,-11.740846633911133
1739817643379407600,5.10340771484375,-33.843597412109375,-16.97043800354004,-11.891120910644531
1739817643389476600,5.1134765625,-33.718505859375,-17.20901107788086,-11.834860801696777
1739817643399546600,5.123546630859375,-33.76300048828125,-17.139543533325195,-11.628703117370605
1739817643409615600,5.13361572265625,-33.787017822265625,-17.18703842163086,-11.600516319274902
1739817643419685600,5.143685546875,-33.581268310546875,-16.871122360229492,-11.794047355651855
1739817643429754400,5.15375439453125,-33.341156005859375,-17.115182876586914,-12.058562278747559
1739817643439823600,5.16382373046875,-33.631927490234375,-17.002174377441406,-11.888737678527832
1739817643449893400,5.173893310546875,-33.43218994140625,-16.934423446655273,-12.009623527526855
1739817643459962600,5.183962646484375,-33.625762939453125,-16.997852325439453,-12.208588600158691
1739817643470031600,5.194031494140625,-33.425689697265625,-16.975374221801758,-12.274046897888184
1739817643480101600,5.2041015625,-33.575836181640625,-17.11268424987793,-12.294487953186035
1739817643490170400,5.21417041015625,-33.88427734375,-17.19379234313965,-12.228446006774902
1739817643500239600,5.224239501953125,-33.725372314453125,-17.208023071289062,-12.315022468566895
1739817643510309400,5.234309326171875,-34.02386474609375,-17.08090591430664,-12.203452110290527
1739817643520378600,5.244378662109375,-33.585693359375,-17.14431381225586,-12.35031795501709
1739817643530448600,5.25444873046875,-33.908447265625,-16.846942901611328,-12.318324089050293
1739817643540517600,5.264517578125,-34.135955810546875,-16.830162048339844,-12.123787879943848
1739817643550586400,5.27458642578125,-33.876220703125,-16.771373748779297,-11.973977088928223
1739817643560656600,5.28465673828125,-33.715118408203125,-16.57390594482422,-12.091946601867676
1739817643570725600,5.2947255859375,-33.95361328125,-16.548542022705078,-12.082797050476074
1739817643580794600,5.304794677734375,-34.40155029296875,-16.66143226623535,-12.092997550964355
1739817643590864600,5.31486474609375,-34.26458740234375,-16.856342315673828,-12.078925132751465
1739817643600933600,5.32493359375,-34.07501220703125,-16.86046600341797,-11.972691535949707
1739817643611002600,5.335002685546875,-33.914215087890625,-16.80534553527832,-12.038681983947754
1739817643621072600,5.34507275390625,-33.89544677734375,-16.692974090576172,-11.85904312133789
1739817643631141600,5.3551416015625,-33.87957763671875,-16.972698211669922,-12.037096977233887
1739817643641211400,5.36521142578125,-34.019989013671875,-16.891244888305664,-12.051323890686035
1739817643651280600,5.37528076171875,-34.032379150390625,-16.708690643310547,-11.967368125915527
1739817643661349600,5.385349609375,-34.1197509765625,-16.76389503479004,-12.011710166931152
1739817643671419600,5.395419677734375,-34.102081298828125,-16.480247497558594,-11.965973854064941
1739817643681488600,5.405488525390625,-34.053558349609375,-16.524200439453125,-12.067093849182129
1739817643691557600,5.4155576171875,-34.163055419921875,-16.521482467651367,-12.149874687194824
1739817643701627400,5.42562744140625,-33.876495361328125,-16.60293960571289,-12.21956729888916
1739817643711696600,5.435696533203125,-33.787994384765625,-16.43752670288086,-12.239466667175293
1739817643721765600,5.445765625,-33.788909912109375,-16.40666961669922,-12.440953254699707
1739817643731835600,5.455835693359375,-33.9422607421875,-16.473066329956055,-12.276997566223145
1739817643741904400,5.465904296875,-33.55914306640625,-16.3124942779541,-12.349722862243652
1739817643751973600,5.4759736328125,-33.79931640625,-16.266727447509766,-12.34948444366455
1739817643762043400,5.48604345703125,-34.057586669921875,-16.392608642578125,-12.563523292541504
1739817643772112600,5.496112548828125,-34.08807373046875,-16.29685401916504,-12.41535472869873
1739817643782182700,5.5061826171875,-34.4620361328125,-16.446407318115234,-12.54207706451416
1739817643792251600,5.516251708984375,-34.171051025390625,-16.050891876220703,-12.592312812805176
1739817643802320400,5.5263203125,-34.0634765625,-16.320720672607422,-12.632132530212402
1739817643812390700,5.536390625,-34.245391845703125,-16.034975051879883,-12.579497337341309
1739817643822459400,5.54645947265625,-34.402618408203125,-15.771963119506836,-12.807976722717285
1739817643832528600,5.556528564453125,-34.13421630859375,-15.984918594360352,-12.826260566711426
1739817643842598700,5.5665986328125,-33.97369384765625,-15.980207443237305,-12.683018684387207
1739817643852667600,5.576667724609375,-33.67529296875,-15.801328659057617,-12.557148933410645
1739817643862736400,5.586736328125,-33.61328125,-15.7762451171875,-12.772534370422363
1739817643872806700,5.596806640625,-33.683563232421875,-15.552095413208008,-12.67270565032959
1739817643882875600,5.606875732421875,-33.801361083984375,-15.5943603515625,-12.96308422088623
1739817643892944600,5.616944580078125,-33.779876708984375,-15.512928009033203,-12.801711082458496
1739817643903014700,5.6270146484375,-34.271759033203125,-15.467220306396484,-12.98685359954834
1739817643913083600,5.637083740234375,-34.18609619140625,-15.462017059326172,-12.883557319641113
1739817643923153700,5.647153564453125,-34.01690673828125,-15.603042602539062,-12.76267147064209
1739817643933222700,5.65722265625,-34.05450439453125,-15.668102264404297,-12.840941429138184
1739817643943291600,5.667291748046875,-33.549102783203125,-15.667253494262695,-12.73522663116455
1739817643953361400,5.677361328125,-33.788543701171875,-15.676618576049805,-12.778910636901855
1739817643963430700,5.6874306640625,-33.679412841796875,-15.894306182861328,-12.695969581604004
1739817643973499600,5.697499755859375,-33.833770751953125,-15.828207015991211,-12.585373878479004
1739817643983569700,5.707569580078125,-33.974456787109375,-15.733713150024414,-12.522120475769043
1739817643993638400,5.717638427734375,-34.333526611328125,-15.680490493774414,-12.805804252624512
1739817644003707600,5.727707763671875,-34.10162353515625,-15.660955429077148,-12.698079109191895
1739817644013777400,5.73777734375,-33.844696044921875,-15.775306701660156,-12.709630012512207
1739817644023846700,5.7478466796875,-34.33929443359375,-15.844400405883789,-12.762848854064941
1739817644033915400,5.757915283203125,-34.112640380859375,-15.669759750366211,-12.460415840148926
1739817644043985700,5.767985595703125,-34.0633544921875,-15.816356658935547,-12.759806632995605
1739817644054054400,5.778054443359375,-34.10113525390625,-15.94196891784668,-13.001627922058105
1739817644064123600,5.78812353515625,-33.84716796875,-15.930967330932617,-12.90075397491455
1739817644074193400,5.798193359375,-33.8843994140625,-16.103200912475586,-13.203352928161621
1739817644084262700,5.8082626953125,-33.47119140625,-16.09665870666504,-13.233563423156738
1739817644094332400,5.81833251953125,-33.748779296875,-16.252412796020508,-12.866063117980957
1739817644104401700,5.828401611328125,-33.668243408203125,-15.974611282348633,-13.191712379455566
1739817644114470400,5.838470458984375,-33.373779296875,-15.863212585449219,-13.218920707702637
1739817644124540700,5.848540771484375,-33.053314208984375,-15.89447021484375,-13.579829216003418
1739817644134609400,5.858609375,-33.271881103515625,-15.82447624206543,-13.466301918029785
1739817644144678700,5.8686787109375,-33.143829345703125,-15.924882888793945,-13.639309883117676
1739817644154748700,5.878748779296875,-33.172332763671875,-15.771282196044922,-13.558955192565918
1739817644164817700,5.888817626953125,-33.545166015625,-15.352569580078125,-13.442906379699707
1739817644174886400,5.898886474609375,-33.586181640625,-15.479522705078125,-13.326468467712402
1739817644184956700,5.908956787109375,-33.22174072265625,-15.32235336303711,-13.11119556427002
1739817644195025700,5.919025634765625,-33.627777099609375,-15.264261245727539,-13.051575660705566
1739817644205094700,5.9290947265625,-33.574554443359375,-15.260379791259766,-12.982701301574707
1739817644215164700,5.93916455078125,-33.24542236328125,-15.52387809753418,-13.127274513244629
1739817644225233700,5.949233642578125,-33.296295166015625,-15.777294158935547,-13.001069068908691
1739817644235302700,5.959302734375,-33.161468505859375,-15.643411636352539,-12.821320533752441
1739817644245372400,5.969372314453125,-33.040069580078125,-15.85474967956543,-12.95590877532959
1739817644255441700,5.979441650390625,-33.097808837890625,-16.044973373413086,-13.013459205627441
1739817644265510700,5.9895107421875,-33.17803955078125,-16.351097106933594,-13.079157829284668
1739817644275580700,5.99958056640625,-32.951568603515625,-16.261350631713867,-12.975913047790527
1739817644285649700,6.009649658203125,-33.05718994140625,-16.325864791870117,-13.281790733337402
1739817644295719700,6.0197197265625,-32.610565185546875,-16.327394485473633,-13.302630424499512
1739817644305788400,6.029788330078125,-32.688201904296875,-16.674062728881836,-13.600935935974121
1739817644315857700,6.039857666015625,-32.7567138671875,-16.759563446044922,-13.530491828918457
1739817644325927400,6.049927490234375,-32.77691650390625,-16.738073348999023,-13.603032112121582
1739817644335996700,6.05999658203125,-32.48602294921875,-16.822134017944336,-13.787951469421387
1739817644346065400,6.0700654296875,-32.9874267578125,-16.76740837097168,-13.576251029968262
1739817644356132900,6.0801328125,-32.910369873046875,-16.88161277770996,-13.906922340393066
1739817644366201900,6.090201904296875,-32.782379150390625,-17.058917999267578,-13.69901180267334
1739817644376270800,6.100270751953125,-32.705230712890625,-17.112457275390625,-13.580815315246582
1739817644386340900,6.1103408203125,-32.775146484375,-17.418203353881836,-13.625933647155762
1739817644396409900,6.120409912109375,-33.083831787109375,-17.471261978149414,-13.534134864807129
1739817644406478800,6.130478759765625,-32.914306640625,-17.66407585144043,-13.429411888122559
1739817644416548600,6.140548583984375,-33.233642578125,-17.64716911315918,-13.57999324798584
1739817644426617900,6.150617919921875,-32.740447998046875,-17.753034591674805,-13.431548118591309
1739817644436686800,6.160686767578125,-32.4708251953125,-17.974773406982422,-13.42743968963623
1739817644446756900,6.1707568359375,-32.322662353515625,-17.9477481842041,-13.537384986877441
1739817644456825900,6.180825927734375,-32.601165771484375,-17.862464904785156,-13.122200965881348
1739817644466894800,6.190894775390625,-32.6280517578125,-18.042966842651367,-13.244929313659668
1739817644476964600,6.200964599609375,-32.7127685546875,-18.07741928100586,-13.128520011901855
1739817644487033900,6.211033935546875,-32.655120849609375,-18.00872802734375,-13.157423973083496
1739817644497102800,6.221102783203125,-32.710784912109375,-18.089265823364258,-13.4141206741333
1739817644507172900,6.2311728515625,-32.74169921875,-18.027545928955078,-13.162941932678223
1739817644517241600,6.24124169921875,-32.6871337890625,-17.729209899902344,-13.196759223937988
1739817644527312000,6.251311767578125,-32.555999755859375,-17.86878776550293,-13.10048770904541
1739817644537380600,6.261380615234375,-32.909637451171875,-18.064971923828125,-13.391791343688965
1739817644547449900,6.271449951171875,-33.109100341796875,-18.184524536132812,-13.215847969055176
1739817644557519600,6.28151953125,-32.770751953125,-18.131559371948242,-13.219077110290527
1739817644567588900,6.2915888671875,-32.506134033203125,-18.128143310546875,-13.088141441345215
1739817644577657600,6.30165771484375,-32.339141845703125,-18.056873321533203,-13.115290641784668
1739817644587728000,6.311727783203125,-32.7069091796875,-18.16019058227539,-12.944344520568848
1739817644597796600,6.321796630859375,-32.746673583984375,-18.28168296813965,-12.981186866760254
1739817644607865900,6.331865966796875,-32.816497802734375,-18.36577606201172,-13.075419425964355
1739817644617936000,6.341935791015625,-32.617431640625,-18.08248519897461,-13.25875186920166
1739817644628004900,6.3520048828125,-32.34979248046875,-18.082433700561523,-13.131558418273926
1739817644638073600,6.362073486328125,-32.57763671875,-18.155927658081055,-13.313427925109863
1739817644648144000,6.372143798828125,-32.3504638671875,-17.985944747924805,-13.42250919342041
1739817644658212900,6.382212890625,-32.346649169921875,-17.809368133544922,-13.46576976776123
1739817644668281900,6.39228173828125,-32.317779541015625,-17.53314208984375,-13.488408088684082
1739817644678352000,6.402351806640625,-32.199188232421875,-17.6343994140625,-13.674866676330566
1739817644688420900,6.4124208984375,-32.24603271484375,-17.29015350341797,-13.498612403869629
1739817644698489600,6.422489501953125,-32.41131591796875,-17.20340919494629,-13.548089027404785
1739817644708560000,6.432559814453125,-32.491851806640625,-17.270263671875,-13.771943092346191
1739817644718628900,6.44262890625,-33.19366455078125,-17.008869171142578,-13.87940502166748
1739817644728697900,6.45269775390625,-32.835296630859375,-17.077953338623047,-14.224873542785645
1739817644738768000,6.462767822265625,-32.830718994140625,-16.890254974365234,-14.202237129211426
1739817644748836900,6.4728369140625,-32.4437255859375,-16.831212997436523,-13.933602333068848
1739817644758905900,6.48290576171875,-32.6925048828125,-16.66756820678711,-13.595654487609863
1739817644768975600,6.4929755859375,-32.47027587890625,-16.81396484375,-13.74466609954834
1739817644779044900,6.503044921875,-32.7347412109375,-16.78533172607422,-13.707520484924316
1739817644789113900,6.51311376953125,-32.5836181640625,-16.96549415588379,-13.789189338684082
1739817644799184000,6.523183837890625,-32.413055419921875,-16.78755760192871,-13.719929695129395
1739817644809252900,6.5332529296875,-32.606048583984375,-16.604307174682617,-13.510062217712402
1739817644819321900,6.54332177734375,-32.670074462890625,-16.392995834350586,-13.71199893951416
1739817644829391600,6.5533916015625,-32.77587890625,-16.40031623840332,-13.805768013000488
1739817644839460900,6.5634609375,-32.803619384765625,-16.70602798461914,-13.85655689239502
1739817644849530600,6.573530517578125,-32.607757568359375,-16.81375503540039,-14.129044532775879
1739817644859600000,6.583599853515625,-32.774871826171875,-16.55259895324707,-13.73836612701416
1739817644869668600,6.593668701171875,-32.689453125,-16.40656280517578,-13.422926902770996
1739817644879737900,6.60373779296875,-32.765289306640625,-16.201053619384766,-13.389115333557129
1739817644889807600,6.6138076171875,-32.7100830078125,-16.298442840576172,-13.691941261291504
1739817644899876900,6.623876953125,-32.761260986328125,-16.18639373779297,-13.508536338806152
1739817644909946600,6.633946533203125,-32.746856689453125,-16.197282791137695,-13.838080406188965
1739817644920016000,6.644015869140625,-33.29327392578125,-16.336700439453125,-13.665162086486816
1739817644930084600,6.654084716796875,-33.082977294921875,-16.218994140625,-13.902514457702637
1739817644940155000,6.66415478515625,-33.085784912109375,-16.380550384521484,-13.774102210998535
1739817644950223600,6.6742236328125,-32.79608154296875,-16.288204193115234,-13.739487648010254
1739817644960292900,6.68429296875,-33.295928955078125,-16.21001625061035,-13.842223167419434
1739817644970363000,6.69436279296875,-33.052734375,-16.28750228881836,-13.957852363586426
1739817644980432000,6.704431884765625,-33.065093994140625,-16.537296295166016,-13.93730640411377
1739817644990500600,6.71450048828125,-33.05694580078125,-16.42575454711914,-14.052266120910645
1739817645000571000,6.72457080078125,-32.91485595703125,-16.676361083984375,-13.922280311584473
1739817645010639600,6.7346396484375,-32.83404541015625,-16.686479568481445,-14.04865550994873
1739817645020708900,6.744708984375,-32.7073974609375,-16.602304458618164,-13.967122077941895
1739817645030779000,6.75477880859375,-32.949462890625,-16.7935791015625,-14.093247413635254
1739817645040848000,6.764847900390625,-33.2474365234375,-16.603137969970703,-13.936171531677246
1739817645050916600,6.77491650390625,-32.80523681640625,-16.614990234375,-13.955826759338379
1739817645060987000,6.78498681640625,-33.067626953125,-16.776546478271484,-14.18687915802002
1739817645071056000,6.795055908203125,-32.56494140625,-17.152408599853516,-14.129780769348145
1739817645081124900,6.805124755859375,-32.396820068359375,-17.088132858276367,-14.079155921936035
1739817645091195000,6.81519482421875,-32.569183349609375,-16.937931060791016,-14.186230659484863
1739817645101264000,6.825263916015625,-32.71728515625,-16.91939353942871,-14.017073631286621
1739817645111332900,6.835332763671875,-32.791748046875,-17.022098541259766,-13.94463062286377
1739817645121402600,6.845402587890625,-32.765777587890625,-16.963640213012695,-14.20218563079834
1739817645131472000,6.855471923828125,-32.78216552734375,-16.540185928344727,-14.274701118469238
1739817645141540900,6.865540771484375,-32.806427001953125,-16.55630111694336,-14.29413890838623
1739817645151611000,6.87561083984375,-32.64556884765625,-16.61212730407715,-14.396714210510254
1739817645161680000,6.885679931640625,-32.963592529296875,-16.263181686401367,-14.338351249694824
1739817645171748900,6.895748779296875,-32.728424072265625,-16.577608108520508,-14.149016380310059
1739817645181818600,6.905818603515625,-32.409881591796875,-16.780010223388672,-14.34182071685791
1739817645191888000,6.915887939453125,-32.4400634765625,-16.791322708129883,-14.391554832458496
1739817645201956900,6.925956787109375,-32.9656982421875,-16.87630271911621,-14.334744453430176
1739817645212027000,6.93602685546875,-32.8543701171875,-16.973581314086914,-14.494126319885254
1739817645222095600,6.946095703125,-32.781524658203125,-17.014291763305664,-14.465008735656738
1739817645232164900,6.956164794921875,-32.69781494140625,-17.05003547668457,-14.351151466369629
1739817645242234600,6.966234619140625,-32.392791748046875,-17.03266716003418,-14.142159461975098
1739817645252304000,6.976303955078125,-32.873321533203125,-16.95815658569336,-14.182133674621582
1739817645262372600,6.98637255859375,-32.6484375,-16.94413185119629,-14.407988548278809
1739817645272443000,6.99644287109375,-33.083740234375,-16.886323928833008,-14.604941368103027
1739817645282511600,7.00651171875,-32.728851318359375,-16.98558235168457,-14.562283515930176
1739817645292580900,7.016580810546875,-32.68109130859375,-16.931394577026367,-14.557969093322754
1739817645302650600,7.026650634765625,-32.8681640625,-17.005111694335938,-14.575757026672363
1739817645312720000,7.036719970703125,-32.678863525390625,-17.138418197631836,-14.412461280822754
1739817645322788600,7.04678857421875,-32.467803955078125,-17.230369567871094,-14.413504600524902
1739817645332859000,7.05685888671875,-32.507965087890625,-16.931419372558594,-14.45926570892334
1739817645342927600,7.066927734375,-32.505340576171875,-17.021995544433594,-14.649542808532715
1739817645352996600,7.07699658203125,-32.742645263671875,-17.011924743652344,-14.45362377166748
1739817645363066400,7.08706640625,-32.583709716796875,-16.978832244873047,-14.66113567352295
1739817645373135600,7.097135498046875,-32.70965576171875,-16.997129440307617,-14.632441520690918
1739817645383204400,7.107204345703125,-32.860504150390625,-17.321008682250977,-14.73952579498291
1739817645393274600,7.117274658203125,-32.94158935546875,-17.17240333557129,-14.78801441192627
1739817645403343400,7.12734326171875,-32.6005859375,-17.07158660888672,-14.804533958435059
1739817645413412600,7.13741259765625,-33.002410888671875,-16.949506759643555,-14.631314277648926
1739817645423482400,7.147482421875,-32.594268798828125,-17.16320037841797,-14.333359718322754
1739817645433551600,7.157551513671875,-33.06256103515625,-17.142650604248047,-14.287190437316895
1739817645443620400,7.167620361328125,-32.73358154296875,-17.141267776489258,-14.346566200256348
1739817645453690600,7.177690673828125,-32.822357177734375,-17.10327911376953,-14.384039878845215
1739817645463759400,7.18775927734375,-32.487548828125,-17.148923873901367,-14.151726722717285
1739817645473828600,7.19782861328125,-32.878448486328125,-17.060932159423828,-14.039336204528809
1739817645483898600,7.207898681640625,-33.039276123046875,-16.956146240234375,-14.233550071716309
1739817645493967600,7.217967529296875,-33.00128173828125,-16.787734985351562,-14.396424293518066
1739817645504036400,7.228036376953125,-33.36767578125,-16.79632568359375,-14.285883903503418
1739817645514106600,7.238106689453125,-32.670806884765625,-16.78925132751465,-14.124653816223145
1739817645524175600,7.248175537109375,-32.815948486328125,-16.7652645111084,-14.310391426086426
1739817645534244600,7.25824462890625,-33.083770751953125,-16.746889114379883,-14.414952278137207
1739817645544314600,7.268314697265625,-33.383941650390625,-16.792713165283203,-14.265154838562012
1739817645554383600,7.278383544921875,-33.22186279296875,-16.67847442626953,-14.347268104553223
1739817645564452600,7.28845263671875,-33.2657470703125,-16.606029510498047,-14.349080085754395
1739817645574522400,7.2985224609375,-33.2288818359375,-16.60282325744629,-14.403498649597168
1739817645584591600,7.308591552734375,-33.245361328125,-16.550048828125,-14.439248085021973
1739817645594660600,7.31866064453125,-33.404266357421875,-16.569446563720703,-14.260455131530762
1739817645604730600,7.328730712890625,-33.2698974609375,-16.469791412353516,-14.315409660339355
1739817645614799600,7.338799560546875,-33.563720703125,-16.443077087402344,-14.390007972717285
1739817645624868600,7.34886865234375,-33.300018310546875,-16.4752197265625,-14.267727851867676
1739817645634938400,7.3589384765625,-33.13665771484375,-16.4805908203125,-14.295506477355957
1739817645645007600,7.369007568359375,-33.272735595703125,-16.564699172973633,-14.41010570526123
1739817645655076600,7.37907666015625,-33.08563232421875,-16.431032180786133,-14.096663475036621
1739817645665146600,7.389146728515625,-33.024993896484375,-16.463233947753906,-14.251360893249512
1739817645675215400,7.39921533203125,-33.1441650390625,-16.556669235229492,-14.318367958068848
1739817645685284600,7.40928466796875,-33.252899169921875,-16.63987159729004,-14.465460777282715
1739817645695354400,7.419354248046875,-33.029510498046875,-16.5937442779541,-14.60071086883545
1739817645705423600,7.429423583984375,-33.031341552734375,-16.63178062438965,-14.479743003845215
1739817645715492600,7.43949267578125,-32.7083740234375,-16.714759826660156,-14.382964134216309
1739817645725562600,7.449562744140625,-33.165130615234375,-16.52199363708496,-14.200730323791504
1739817645735631400,7.45963134765625,-33.31512451171875,-16.746585845947266,-14.394177436828613
1739817645745700600,7.46970068359375,-32.758880615234375,-16.732402801513672,-14.300711631774902
1739817645755770400,7.479770263671875,-33.0701904296875,-16.56019401550293,-14.223427772521973
1739817645765839600,7.489839599609375,-33.2232666015625,-16.56425666809082,-14.023293495178223
1739817645775908400,7.499908447265625,-33.45416259765625,-16.78213882446289,-13.953103065490723
1739817645785977600,7.5099775390625,-33.131195068359375,-16.64960479736328,-13.732544898986816
1739817645796047400,7.52004736328125,-32.996063232421875,-16.461406707763672,-13.826678276062012
1739817645806116600,7.53011669921875,-33.279693603515625,-16.434545516967773,-13.826485633850098
1739817645816185600,7.540185546875,-32.976654052734375,-16.63054847717285,-13.83914852142334
1739817645826255600,7.550255615234375,-33.162872314453125,-16.528030395507812,-13.848111152648926
1739817645836324400,7.560324462890625,-33.1595458984375,-16.58806800842285,-13.706376075744629
1739817645846393600,7.5703935546875,-33.16192626953125,-16.780488967895508,-13.686524391174316
1739817645856463400,7.58046337890625,-33.357635498046875,-16.729127883911133,-13.759034156799316
1739817645866532600,7.59053271484375,-32.8095703125,-16.78228759765625,-13.838540077209473
1739817645876601300,7.600601318359375,-33.428802490234375,-16.61549186706543,-13.740469932556152
1739817645886671600,7.610671630859375,-33.422943115234375,-16.578914642333984,-13.742600440979004
1739817645896740400,7.620740234375,-33.34771728515625,-16.393749237060547,-13.847334861755371
1739817645906809600,7.6308095703125,-32.975341796875,-16.377269744873047,-14.17351245880127
1739817645916879400,7.64087939453125,-33.24530029296875,-16.25789451599121,-14.034422874450684
1739817645926948600,7.650948486328125,-33.3978271484375,-16.253480911254883,-13.831839561462402
1739817645937017300,7.661017333984375,-33.86181640625,-16.085569381713867,-13.74921703338623
1739817645947087600,7.671087646484375,-33.430419921875,-16.33152961730957,-13.493901252746582
1739817645957156400,7.68115625,-33.591705322265625,-16.178606033325195,-13.315253257751465
1739817645967225600,7.6912255859375,-33.3677978515625,-16.39065933227539,-13.362717628479004
1739817645977295600,7.701295654296875,-33.613311767578125,-16.609630584716797,-13.177042961120605
1739817645987364600,7.711364501953125,-33.568267822265625,-16.885393142700195,-13.245671272277832
1739817645997433300,7.721433349609375,-33.7335205078125,-17.068878173828125,-13.160693168640137
1739817646007503600,7.731503662109375,-33.5650634765625,-17.3957576751709,-12.7094087600708
1739817646017572600,7.741572509765625,-33.359039306640625,-17.67452621459961,-12.644740104675293
1739817646027641600,7.7516416015625,-33.271331787109375,-17.70759391784668,-12.399565696716309
1739817646037711600,7.761711669921875,-33.1070556640625,-17.801910400390625,-12.259455680847168
1739817646047780600,7.771780517578125,-33.19049072265625,-18.003507614135742,-12.265469551086426
1739817646057849600,7.781849609375,-33.82659912109375,-18.272838592529297,-12.1939115524292
1739817646067919600,7.791919677734375,-33.3892822265625,-18.356719970703125,-12.150994300842285
1739817646077988600,7.801988525390625,-33.16070556640625,-18.370145797729492,-12.18694019317627
1739817646088057600,7.8120576171875,-33.148590087890625,-18.769311904907227,-11.850751876831055
1739817646098127600,7.822127685546875,-32.7333984375,-18.832387924194336,-11.446321487426758
1739817646108196600,7.832196533203125,-32.846160888671875,-19.111909866333008,-11.328083992004395
1739817646118265600,7.842265625,-33.32000732421875,-19.33814239501953,-11.012090682983398
1739817646128334600,7.85233447265625,-32.802764892578125,-19.650760650634766,-10.5938138961792
1739817646138404600,7.862404541015625,-33.017333984375,-19.698646545410156,-10.373685836791992
1739817646148473600,7.8724736328125,-32.9400634765625,-20.21827507019043,-10.174302101135254
1739817646158542600,7.88254248046875,-33.014801025390625,-20.622495651245117,-9.687956809997559
1739817646168612600,7.892612548828125,-32.87603759765625,-21.265851974487305,-9.181559562683105
1739817646178681600,7.902681640625,-32.62261962890625,-21.528120040893555,-8.901366233825684
1739817646188750600,7.91275048828125,-32.59881591796875,-21.770435333251953,-8.256183624267578
1739817646198820600,7.922820556640625,-32.5521240234375,-22.041858673095703,-7.918402671813965
1739817646208889600,7.9328896484375,-32.644378662109375,-22.539287567138672,-7.530973434448242
1739817646218958600,7.94295849609375,-32.29510498046875,-22.847896575927734,-6.979854583740234
1739817646229028400,7.9530283203125,-32.124969482421875,-23.370370864868164,-6.268653869628906
1739817646239097600,7.96309765625,-32.0228271484375,-23.577505111694336,-6.008264541625977
1739817646249166600,7.97316650390625,-31.65960693359375,-24.15423583984375,-5.438241958618164
1739817646259236600,7.983236572265625,-31.404754638671875,-24.597490310668945,-4.879255294799805
1739817646269305300,7.993305419921875,-31.421173095703125,-24.8984317779541,-4.096193313598633
1739817646279374600,8.00337451171875,-30.89697265625,-25.13638687133789,-3.0583415031433105
1739817646289444400,8.0134443359375,-30.90667724609375,-25.277408599853516,-2.2679262161254883
1739817646299513600,8.023513671875,-30.501068115234375,-25.51852798461914,-1.6261506080627441
1739817646309582600,8.03358251953125,-30.679534912109375,-25.431732177734375,-0.6475009918212891
1739817646319652600,8.043652587890625,-30.67657470703125,-25.684284210205078,0.023036479949951172
1739817646329721300,8.053721435546874,-30.718597412109375,-25.756317138671875,0.5565853118896484
1739817646339790600,8.06379052734375,-30.594329833984375,-25.78261375427246,1.1496737003326416
1739817646349860400,8.0738603515625,-30.902069091796875,-25.963825225830078,1.8498845100402832
1739817646359929000,8.08392919921875,-30.86944580078125,-25.98934555053711,2.531527042388916
1739817646369998300,8.093998291015625,-31.053436279296875,-26.084285736083984,3.2361793518066406
1739817646380067000,8.104067138671875,-30.723114013671875,-25.93842887878418,3.7891745567321777
1739817646390137000,8.11413720703125,-30.71417236328125,-25.871755599975586,4.641801834106445
1739817646400206000,8.1242060546875,-30.1710205078125,-25.86211395263672,5.3594770431518555
1739817646410275300,8.134275390625,-30.258514404296875,-25.687419891357422,6.255862712860107
1739817646420345300,8.144345458984375,-30.231048583984375,-25.599220275878906,6.6332855224609375
1739817646430414000,8.1544140625,-30.300811767578125,-25.588134765625,7.412910461425781
1739817646440483000,8.164483154296875,-30.402862548828125,-25.349533081054688,8.178884506225586
1739817646450553000,8.174552978515624,-30.002349853515625,-25.254716873168945,8.949772834777832
1739817646460622300,8.184622314453126,-29.9669189453125,-25.055858612060547,9.315951347351074
1739817646470691300,8.19469140625,-29.965057373046875,-24.76549530029297,10.231860160827637
1739817646480761300,8.20476123046875,-30.215301513671875,-24.572811126708984,10.730057716369629
1739817646490830000,8.214830078125,-29.82177734375,-24.283594131469727,11.35815715789795
1739817646500899300,8.2248994140625,-29.783843994140625,-24.14750862121582,11.918073654174805
1739817646510969000,8.234968994140624,-29.832733154296875,-23.870393753051758,12.48287296295166
1739817646521038300,8.245038330078126,-29.7520751953125,-23.619094848632812,13.037971496582031
1739817646531107000,8.255107177734375,-29.9656982421875,-23.47820281982422,13.569263458251953
1739817646541177300,8.26517724609375,-30.445098876953125,-23.05769157409668,14.219869613647461
1739817646551246000,8.27524609375,-29.973388671875,-22.837026596069336,14.642766952514648
1739817646561315300,8.2853154296875,-30.170989990234375,-22.456480026245117,15.037249565124512
1739817646571384000,8.295384033203124,-30.095672607421875,-22.01338005065918,15.317061424255371
1739817646581454300,8.305454345703126,-30.49090576171875,-21.618255615234375,15.935534477233887
1739817646591523000,8.315523193359375,-30.565673828125,-21.53376579284668,16.27799415588379
1739817646601592300,8.32559228515625,-30.493865966796875,-21.276161193847656,16.51869010925293
1739817646611662000,8.335662109375,-30.20916748046875,-21.13328742980957,16.76959991455078
1739817646621731300,8.3457314453125,-30.364898681640625,-20.730899810791016,17.28976821899414
1739817646631800000,8.355800048828126,-30.2611083984375,-20.43421173095703,17.906982421875
1739817646641870300,8.365870361328126,-30.305511474609375,-20.072635650634766,18.323291778564453
1739817646651939000,8.37593896484375,-30.572784423828125,-19.82012367248535,18.65302276611328
1739817646662008300,8.38600830078125,-30.352325439453125,-19.737396240234375,18.934085845947266
1739817646672078000,8.396078125,-30.041656494140625,-19.46278190612793,19.250640869140625
1739817646682147300,8.406147216796874,-30.37451171875,-19.37749671936035,19.354751586914062
1739817646692216000,8.416216064453126,-30.42071533203125,-18.879741668701172,19.572486877441406
1739817646702286300,8.426286376953126,-30.363311767578125,-18.908288955688477,19.814559936523438
1739817646712355000,8.43635498046875,-30.50189208984375,-18.909297943115234,19.95257568359375
1739817646722424300,8.44642431640625,-30.419891357421875,-18.67477035522461,20.070537567138672
1739817646732494000,8.456494140625,-30.2996826171875,-18.5629940032959,20.34378433227539
1739817646742563300,8.466563232421874,-30.24505615234375,-18.451274871826172,20.297557830810547
1739817646752632000,8.476632080078126,-30.1160888671875,-18.458667755126953,20.430511474609375
1739817646762701300,8.486701416015626,-30.11737060546875,-18.200109481811523,20.4576416015625
1739817646772771000,8.49677099609375,-30.131072998046875,-17.92011070251465,20.594913482666016
1739817646782840300,8.50684033203125,-30.198699951171875,-18.085222244262695,20.603626251220703
1739817646792909000,8.516908935546875,-30.110687255859375,-18.07744789123535,20.64327621459961
1739817646802979300,8.526979248046874,-29.946807861328125,-18.127382278442383,20.49713897705078
1739817646813048000,8.537048095703126,-30.4671630859375,-18.137544631958008,20.59424591064453
1739817646823117300,8.547117431640626,-30.299591064453125,-18.133785247802734,20.652236938476562
1739817646833187000,8.55718701171875,-30.16436767578125,-18.177888870239258,20.529338836669922
1739817646843256300,8.56725634765625,-30.18084716796875,-18.26198387145996,20.555992126464844
1739817646853325000,8.577324951171875,-30.2369384765625,-18.111557006835938,20.756484985351562
1739817646863395300,8.587395263671874,-30.2706298828125,-18.160198211669922,20.834854125976562
1739817646873464000,8.597464111328126,-30.221923828125,-18.1749267578125,20.65005111694336
1739817646883533300,8.607533203125,-30.177398681640625,-18.1010799407959,20.570011138916016
1739817646893602000,8.61760205078125,-30.2835693359375,-18.083173751831055,20.636493682861328
1739817646903672300,8.62767236328125,-30.48382568359375,-18.115530014038086,20.540794372558594
1739817646913741000,8.637740966796875,-30.629150390625,-18.242969512939453,20.59406280517578
1739817646923810300,8.647810302734374,-30.25738525390625,-18.51492691040039,20.51053237915039
1739817646933880000,8.657880126953126,-30.212005615234375,-18.26227378845215,20.42789077758789
1739817646943949300,8.66794921875,-30.308380126953125,-18.81647491455078,20.396190643310547
1739817646954018000,8.67801806640625,-30.085418701171875,-18.714284896850586,20.417091369628906
1739817646964088300,8.68808837890625,-29.83563232421875,-18.81439208984375,20.25052261352539
1739817646974157000,8.698156982421875,-29.947296142578125,-19.103960037231445,20.328922271728516
1739817646984226300,8.708226318359374,-29.78826904296875,-19.06501007080078,20.31641387939453
1739817646994296300,8.71829638671875,-30.174072265625,-19.08881187438965,20.48583984375
1739817647004365300,8.728365234375,-30.124725341796875,-19.154205322265625,20.399948120117188
1739817647014434000,8.73843408203125,-30.297576904296875,-19.296539306640625,20.42934799194336
1739817647024504000,8.748504150390625,-30.15142822265625,-19.161136627197266,20.27450180053711
1739817647034573300,8.7585732421875,-30.171630859375,-19.29530143737793,20.36776351928711
1739817647044642300,8.768642333984374,-30.1607666015625,-19.37881088256836,20.49350357055664
1739817647054711000,8.7787109375,-29.827880859375,-19.0255069732666,20.38426971435547
1739817647064781300,8.78878125,-29.70257568359375,-19.24036979675293,20.28661346435547
1739817647074850000,8.79885009765625,-29.784210205078125,-19.425996780395508,20.252105712890625
1739817647084919300,8.808919189453125,-30.152984619140625,-19.207294464111328,20.36186981201172
1739817647094989300,8.8189892578125,-29.9422607421875,-19.438961029052734,20.203105926513672
1739817647105058300,8.829058349609374,-29.905120849609375,-19.305265426635742,20.091934204101562
1739817647115127000,8.839126953125,-29.929168701171875,-19.447797775268555,20.046920776367188
1739817647125197000,8.849197021484375,-30.086273193359375,-19.305442810058594,20.104015350341797
1739817647135266300,8.859266357421875,-30.4378662109375,-19.458206176757812,20.072738647460938
1739817647145335300,8.869335205078125,-30.373443603515625,-19.296289443969727,20.243675231933594
1739817647155404000,8.879404052734374,-30.26763916015625,-19.110437393188477,20.212783813476562
1739817647165474300,8.889474365234374,-30.209991455078125,-19.286767959594727,20.370895385742188
1739817647175543300,8.899543212890626,-29.667816162109375,-19.131633758544922,20.38430404663086
1739817647185612300,8.9096123046875,-30.05792236328125,-19.270662307739258,20.362579345703125
1739817647195682300,8.919682373046875,-29.944366455078125,-19.210731506347656,20.298015594482422
1739817647205751300,8.929751220703125,-29.8746337890625,-19.13133430480957,20.295490264892578
1739817647215820300,8.9398203125,-30.253875732421875,-19.205659866333008,20.143333435058594
1739817647225890000,8.94989013671875,-30.047027587890625,-19.480010986328125,20.32213592529297
1739817647235959300,8.959959228515626,-29.9263916015625,-19.60211753845215,20.288612365722656
1739817647246028300,8.9700283203125,-29.578155517578125,-19.359844207763672,20.45990753173828
1739817647256098300,8.980098388671875,-29.969451904296875,-19.473405838012695,20.062911987304688
1739817647266167000,8.9901669921875,-29.51568603515625,-19.683090209960938,19.886045455932617
1739817647276236300,9.000236328125,-29.803070068359375,-19.521020889282227,19.98101043701172
1739817647286305300,9.01030517578125,-30.2960205078125,-19.608102798461914,19.910667419433594
1739817647296375300,9.020375244140626,-30.3568115234375,-19.557228088378906,19.866588592529297
1739817647306444300,9.0304443359375,-30.15887451171875,-19.807973861694336,19.86385726928711
1739817647316513300,9.04051318359375,-29.962554931640625,-19.605379104614258,19.803050994873047
1739817647326583000,9.0505830078125,-30.25592041015625,-19.83547592163086,19.820098876953125
1739817647336652300,9.06065234375,-30.42034912109375,-19.660953521728516,19.773067474365234
1739817647346721300,9.07072119140625,-30.004730224609375,-19.663755416870117,19.496540069580078
1739817647356790500,9.08079052734375,-30.17437744140625,-19.838008880615234,19.714500427246094
1739817647366859500,9.090859619140625,-30.160308837890625,-19.953338623046875,19.525829315185547
1739817647376928500,9.100928466796875,-30.0634765625,-19.90784454345703,19.628286361694336
1739817647386998500,9.11099853515625,-30.256622314453125,-19.79034996032715,19.501007080078125
1739817647397067500,9.121067626953124,-29.853546142578125,-19.821269989013672,19.454750061035156
1739817647407136500,9.131136474609375,-29.781158447265625,-19.745220184326172,19.514873504638672
1739817647417205500,9.14120556640625,-30.044647216796875,-19.85132598876953,19.532827377319336
1739817647427275500,9.151275634765625,-29.8328857421875,-19.864517211914062,19.468664169311523
1739817647437344500,9.161344482421875,-30.1802978515625,-20.010726928710938,19.864849090576172
1739817647447413500,9.17141357421875,-30.060272216796875,-20.13324737548828,19.751407623291016
1739817647457483500,9.1814833984375,-30.11578369140625,-20.210548400878906,19.591020584106445
1739817647467552500,9.191552490234375,-29.99853515625,-20.104515075683594,19.787479400634766
1739817647477621500,9.20162158203125,-29.94195556640625,-20.003372192382812,19.87470054626465
1739817647487691500,9.21169140625,-30.15570068359375,-19.64897346496582,19.75347900390625
1739817647497760500,9.221760498046875,-30.203369140625,-19.798084259033203,19.288341522216797
1739817647507829500,9.23182958984375,-30.03228759765625,-20.01836585998535,19.379966735839844
1739817647517898500,9.2418984375,-30.418853759765625,-19.81146812438965,19.424591064453125
1739817647527968800,9.25196875,-30.364898681640625,-19.776073455810547,19.477069854736328
1739817647538037500,9.26203759765625,-30.4732666015625,-19.550060272216797,19.533397674560547
1739817647548106500,9.2721064453125,-30.621124267578125,-19.561262130737305,19.444473266601562
1739817647558176500,9.282176513671875,-30.617095947265625,-19.440248489379883,19.560373306274414
1739817647568245800,9.292245849609374,-30.3939208984375,-19.54477882385254,19.511390686035156
1739817647578314500,9.302314453125,-30.204254150390625,-19.277963638305664,19.563831329345703
1739817647588384500,9.312384521484375,-30.1710205078125,-19.29132843017578,19.47296905517578
1739817647598453500,9.32245361328125,-30.49835205078125,-19.199356079101562,19.399099349975586
1739817647608522500,9.3325224609375,-30.599273681640625,-19.272581100463867,19.447120666503906
1739817647618591500,9.342591552734374,-30.4388427734375,-19.321016311645508,19.621437072753906
1739817647628661800,9.352661865234374,-30.234771728515625,-19.3142032623291,19.534337997436523
1739817647638730500,9.36273046875,-30.150970458984375,-19.45806884765625,19.404460906982422
1739817647648799500,9.372799560546875,-30.282958984375,-19.42292022705078,19.58984375
1739817647658869500,9.382869384765625,-30.49755859375,-19.281618118286133,19.581954956054688
1739817647668938800,9.392938720703125,-30.24224853515625,-19.082073211669922,19.567790985107422
1739817647679007500,9.403007568359374,-30.75518798828125,-19.082185745239258,19.811660766601562
1739817647689077500,9.413077392578124,-30.957763671875,-18.866254806518555,19.682573318481445
1739817647699146500,9.423146484375,-30.791778564453125,-18.75257682800293,19.828426361083984
1739817647709215700,9.4332158203125,-30.706207275390625,-18.959556579589844,19.614917755126953
1739817647719284500,9.443284423828125,-30.28924560546875,-18.8008975982666,19.680448532104492
1739817647729354500,9.4533544921875,-30.68035888671875,-18.75642967224121,19.71099853515625
1739817647739423500,9.463423583984374,-30.578125,-19.057466506958008,19.675493240356445
1739817647749492700,9.47349267578125,-30.9931640625,-18.90119171142578,19.541099548339844
1739817647759562500,9.4835625,-30.73077392578125,-19.01010513305664,19.772157669067383
1739817647769631700,9.4936318359375,-30.900634765625,-19.030624389648438,19.844173431396484
1739817647779700500,9.503700439453125,-30.776580810546875,-18.86197280883789,19.898073196411133
1739817647789770500,9.5137705078125,-30.482208251953125,-18.961502075195312,19.774181365966797
1739817647799839500,9.523839599609374,-30.663543701171875,-18.63890266418457,19.82459831237793
1739817647809908700,9.53390869140625,-30.49896240234375,-18.596284866333008,20.019695281982422
1739817647819977500,9.5439775390625,-30.613677978515625,-18.557323455810547,19.809307098388672
1739817647830047500,9.554047607421875,-30.788818359375,-18.510082244873047,19.916412353515625
1739817647840116500,9.564116455078125,-30.28131103515625,-18.821529388427734,19.807682037353516
1739817647850185700,9.574185791015625,-30.658233642578125,-18.624902725219727,19.745975494384766
1739817647860255500,9.58425537109375,-30.67376708984375,-18.560033798217773,19.95485496520996
1739817647870324700,9.59432470703125,-30.71209716796875,-18.46539878845215,19.914836883544922
1739817647880393500,9.6043935546875,-30.030364990234375,-18.399843215942383,19.998844146728516
1739817647890463500,9.61446337890625,-30.44989013671875,-18.496797561645508,20.019912719726562
1739817647900532500,9.624532470703125,-30.61669921875,-18.22126579284668,20.099342346191406
1739817647910601700,9.634601806640624,-31.0745849609375,-18.20004653930664,19.919719696044922
1739817647920670500,9.64467041015625,-30.72930908203125,-18.603586196899414,19.821144104003906
1739817647930740500,9.654740478515626,-30.803466796875,-18.604976654052734,19.86967658996582
1739817647940809500,9.6648095703125,-30.647552490234375,-18.475431442260742,19.827791213989258
1739817647950878700,9.674878662109375,-30.96148681640625,-18.420787811279297,20.020647048950195
1739817647960948500,9.684948486328125,-30.933746337890625,-18.1854305267334,19.9487247467041
1739817647971017500,9.695017578125,-31.294281005859375,-17.961429595947266,20.010114669799805
1739817647981086500,9.70508642578125,-31.462249755859375,-17.783462524414062,20.120655059814453
1739817647991155700,9.71515576171875,-31.013397216796875,-17.835803985595703,20.105777740478516
1739817648001225500,9.7252255859375,-31.015228271484375,-17.705289840698242,20.15964126586914
1739817648011294700,9.735294677734375,-31.10662841796875,-17.717363357543945,20.054195404052734
1739817648021363500,9.745363525390625,-31.147216796875,-17.71977424621582,20.194473266601562
1739817648031433500,9.75543359375,-31.028350830078125,-17.85860252380371,20.051837921142578
1739817648041502500,9.76550244140625,-30.699005126953125,-17.749208450317383,20.201824188232422
1739817648051571700,9.77557177734375,-30.69097900390625,-17.756750106811523,20.52967071533203
1739817648061641500,9.785641357421875,-30.65264892578125,-17.893970489501953,20.38937759399414
1739817648071710500,9.79571044921875,-30.689300537109375,-17.72403907775879,20.583412170410156
1739817648081779500,9.805779541015625,-30.53607177734375,-17.72129249572754,20.601390838623047
1739817648091848700,9.8158486328125,-30.730926513671875,-17.674118041992188,20.524921417236328
1739817648101918500,9.82591845703125,-30.8819580078125,-17.59657096862793,20.289234161376953
1739817648111987700,9.83598779296875,-30.92620849609375,-17.672481536865234,20.560707092285156
1739817648122056400,9.846056396484375,-31.170166015625,-17.358606338500977,20.456283569335938
1739817648132126500,9.85612646484375,-31.239044189453125,-17.28916358947754,20.333702087402344
1739817648142195500,9.866195556640625,-30.89556884765625,-17.051307678222656,20.340850830078125
1739817648152264700,9.8762646484375,-31.06182861328125,-17.279325485229492,20.75320816040039
1739817648162333400,9.88633349609375,-30.673797607421875,-17.416563034057617,20.52984619140625
1739817648172403500,9.896403564453125,-30.357330322265625,-17.567838668823242,20.65707778930664
1739817648182472400,9.906472412109375,-30.577606201171875,-17.679553985595703,21.143814086914062
1739817648192541700,9.916541748046875,-30.424468994140625,-17.798425674438477,21.010074615478516
1739817648202611500,9.926611572265625,-30.077606201171875,-17.9619083404541,21.10666275024414
1739817648212680700,9.9366806640625,-29.700653076171875,-18.360618591308594,21.28118896484375
1739817648222749400,9.94674951171875,-30.013275146484375,-18.50223731994629,21.28415298461914
1739817648232818700,9.956818603515625,-29.946258544921875,-18.2890625,21.664947509765625
1739817648242888400,9.966888427734375,-29.86627197265625,-18.425960540771484,21.645206451416016
1739817648252957700,9.976957763671875,-29.8958740234375,-18.569421768188477,21.34546661376953
1739817648263026400,9.9870263671875,-30.339569091796875,-18.44597625732422,21.429039001464844
1739817648273096400,9.997096435546876,-30.1607666015625,-18.548450469970703,21.445552825927734
1739817648283165400,10.00716552734375,-30.3248291015625,-18.314353942871094,21.436359405517578
1739817648293234700,10.017234619140625,-30.376129150390625,-18.221431732177734,21.35845184326172
1739817648303304400,10.027304443359375,-30.490478515625,-17.6859073638916,21.173480987548828
1739817648313373400,10.03737353515625,-30.66357421875,-17.58949089050293,21.27906036376953
1739817648323442400,10.0474423828125,-30.890594482421875,-17.368040084838867,21.198238372802734
1739817648333511700,10.05751171875,-31.192962646484375,-16.973722457885742,21.06890106201172
1739817648343581400,10.06758154296875,-31.314727783203125,-16.689001083374023,21.026973724365234
1739817648353650700,10.077650634765625,-31.482208251953125,-16.47803497314453,21.184391021728516
1739817648363720000,10.087719970703125,-30.99273681640625,-16.430904388427734,21.507244110107422
1739817648373790000,10.0977900390625,-31.13214111328125,-16.40546226501465,21.411869049072266
1739817648383859000,10.10785888671875,-31.248565673828125,-16.74781608581543,21.291259765625
1739817648393928000,10.117927978515626,-30.813140869140625,-16.671449661254883,21.383548736572266
1739817648403997000,10.127996826171875,-30.76800537109375,-16.75864601135254,21.59387969970703
1739817648414067000,10.13806689453125,-31.01220703125,-16.943130493164062,21.470428466796875
1739817648424136000,10.148135986328125,-30.725799560546875,-17.259912490844727,21.41822052001953
1739817648434205000,10.158204833984374,-30.36627197265625,-17.230224609375,21.3104248046875
1739817648444275200,10.168275146484374,-30.4326171875,-16.99555206298828,21.455612182617188
1739817648454344000,10.178343994140626,-30.718902587890625,-16.875831604003906,21.537803649902344
1739817648464413000,10.188412841796875,-31.15911865234375,-17.173036575317383,21.550376892089844
1739817648474482200,10.198482177734375,-31.001068115234375,-17.066692352294922,21.600547790527344
1739817648484552200,10.20855224609375,-30.893096923828125,-16.825637817382812,21.64038848876953
1739817648494621000,10.218620849609374,-31.005096435546875,-16.747379302978516,21.458393096923828
1739817648504690000,10.22868994140625,-30.86724853515625,-16.457611083984375,21.559391021728516
1739817648514760000,10.238760009765626,-30.95294189453125,-16.494714736938477,21.45684814453125
1739817648524829200,10.2488291015625,-30.9390869140625,-16.547203063964844,21.49474334716797
1739817648534898000,10.25889794921875,-31.529449462890625,-16.509733200073242,21.642208099365234
1739817648544967000,10.268966796875,-31.223541259765625,-16.586429595947266,21.627445220947266
1739817648555037000,10.279036865234374,-31.2979736328125,-16.452585220336914,21.90835952758789
1739817648565106000,10.28910595703125,-30.973388671875,-16.492509841918945,21.62377166748047
1739817648575175200,10.299175048828126,-30.805267333984375,-16.454105377197266,21.85012435913086
1739817648585245200,10.3092451171875,-30.84063720703125,-16.3476505279541,21.875247955322266
1739817648595314000,10.31931396484375,-30.93878173828125,-16.213638305664062,22.10772705078125
1739817648605383000,10.3293828125,-30.776641845703125,-16.211292266845703,22.133548736572266
1739817648615452200,10.3394521484375,-30.598663330078125,-16.162996292114258,22.381385803222656
1739817648625522200,10.349522216796874,-30.518707275390625,-16.346187591552734,22.395957946777344
1739817648635591000,10.3595908203125,-30.69830322265625,-16.12052345275879,22.23293685913086
1739817648645660000,10.369659912109375,-30.628082275390625,-16.10603141784668,21.92349624633789
1739817648655730000,10.37972998046875,-30.796051025390625,-16.004295349121094,22.22964859008789
1739817648665799200,10.389799072265625,-30.477508544921875,-15.914079666137695,22.032211303710938
1739817648675868200,10.3998681640625,-30.613555908203125,-15.688041687011719,22.24457550048828
1739817648685937000,10.40993701171875,-30.544342041015625,-15.82181167602539,22.170204162597656
1739817648696007000,10.4200068359375,-30.6458740234375,-15.752689361572266,22.090755462646484
1739817648706076200,10.430076171875,-30.929534912109375,-15.881834030151367,22.266292572021484
1739817648716145200,10.440145263671875,-31.042449951171875,-15.967689514160156,22.496410369873047
1739817648726215200,10.450215087890625,-31.254058837890625,-15.913955688476562,22.351375579833984
1739817648736284000,10.460283935546874,-30.962188720703125,-16.070228576660156,22.388771057128906
1739817648746353200,10.470353271484376,-30.864898681640625,-16.08881378173828,22.091995239257812
1739817648756422100,10.480422119140625,-30.9912109375,-15.966777801513672,22.32742691040039
1739817648766492200,10.4904921875,-30.830322265625,-16.084487915039062,22.32213592529297
1739817648776561000,10.500560791015625,-31.247711181640625,-15.832666397094727,22.307857513427734
1739817648786630000,10.5106298828125,-30.8985595703125,-16.231050491333008,22.269023895263672
1739817648796700000,10.520699951171874,-30.747802734375,-16.171905517578125,22.277915954589844
1739817648806769200,10.53076904296875,-30.98828125,-16.050312042236328,22.557453155517578
1739817648816838100,10.540838134765625,-30.75811767578125,-16.244897842407227,22.552913665771484
1739817648826907000,10.550906982421875,-30.81146240234375,-15.98792839050293,22.537933349609375
1739817648836977000,10.560976806640625,-31.052215576171875,-16.247173309326172,22.726917266845703
1739817648847046100,10.571046142578124,-30.820587158203125,-16.390274047851562,22.779762268066406
1739817648857115100,10.581115234375,-30.277008056640625,-16.121915817260742,23.106475830078125
1739817648867185200,10.59118505859375,-30.29254150390625,-16.410011291503906,23.075042724609375
1739817648877254000,10.60125390625,-30.268341064453125,-16.446847915649414,22.794559478759766
1739817648887323100,10.6113232421875,-30.031768798828125,-16.657760620117188,23.053653717041016
1739817648897392000,10.62139208984375,-29.843536376953125,-16.839555740356445,22.840435028076172
1739817648907462100,10.631462158203124,-29.93701171875,-16.96861457824707,23.169166564941406
1739817648917531100,10.64153125,-29.963836669921875,-16.684852600097656,23.26806640625
1739817648927600000,10.65160009765625,-30.021240234375,-16.77764320373535,23.23235321044922
1739817648937670000,10.661669921875,-29.646881103515625,-16.761316299438477,23.10274887084961
1739817648947739100,10.6717392578125,-29.9141845703125,-16.526987075805664,23.097801208496094
1739817648957808000,10.68180810546875,-29.883209228515625,-16.565841674804688,23.342208862304688
1739817648967877000,10.691877197265624,-30.317169189453125,-16.630769729614258,23.28003692626953
1739817648977947000,10.70194677734375,-30.35931396484375,-16.5861873626709,23.196617126464844
1739817648988016000,10.71201611328125,-30.23834228515625,-16.672256469726562,23.39400863647461
1739817648998085000,10.722085205078125,-30.216064453125,-16.730045318603516,23.231170654296875
1739817649008155100,10.732155029296875,-30.000213623046875,-16.56034278869629,23.159740447998047
1739817649018224000,10.74222412109375,-30.097625732421875,-16.477603912353516,23.265872955322266
1739817649028293000,10.752293212890624,-30.0025634765625,-16.563400268554688,23.441383361816406
1739817649038362000,10.762362060546875,-30.17388916015625,-16.5675048828125,23.392807006835938
1739817649048432000,10.77243212890625,-30.15460205078125,-16.671613693237305,23.601348876953125
1739817649058501000,10.782501220703125,-30.07525634765625,-16.70421028137207,23.583824157714844
1739817649068570000,10.792570068359375,-29.789581298828125,-16.802627563476562,23.665409088134766
1739817649078639900,10.802639892578124,-29.994049072265625,-16.76743507385254,23.82855224609375
1739817649088709000,10.812709228515626,-29.8856201171875,-16.92038345336914,23.897533416748047
1739817649098778000,10.822778076171875,-29.9189453125,-16.836044311523438,23.861431121826172
1739817649108847000,10.83284716796875,-29.776214599609375,-16.997819900512695,24.00313949584961
1739817649118916900,10.842916748046875,-29.55462646484375,-16.846479415893555,23.97454833984375
1739817649128986000,10.852986083984375,-29.8167724609375,-17.079580307006836,24.064258575439453
1739817649139055000,10.86305517578125,-29.710693359375,-17.134702682495117,24.157634735107422
1739817649149125000,10.873125,-29.582794189453125,-16.938390731811523,24.167205810546875
1739817649159194000,10.883194091796875,-30.137115478515625,-17.049118041992188,24.046566009521484
1739817649169263000,10.89326318359375,-30.06402587890625,-16.98052215576172,24.000640869140625
1739817649179332000,10.90333203125,-30.069732666015625,-16.91642951965332,24.313018798828125
1739817649189402000,10.913402099609375,-29.5140380859375,-16.741968154907227,24.150287628173828
1739817649199471000,10.92347119140625,-29.690155029296875,-16.927478790283203,24.04009246826172
1739817649209540000,10.9335400390625,-29.69549560546875,-16.60647964477539,24.06509017944336
1739817649219609000,10.943609130859375,-30.069976806640625,-16.657716751098633,24.08160400390625
1739817649229679000,10.95367919921875,-30.120025634765625,-16.692089080810547,23.789398193359375
1739817649239748000,10.963748046875,-30.114776611328125,-16.55097007751465,23.896629333496094
1739817649249817000,10.973817138671874,-30.316558837890625,-16.765836715698242,23.805065155029297
1739817649259887000,10.98388720703125,-30.213043212890625,-16.981647491455078,23.73162078857422
1739817649269956000,10.9939560546875,-30.37847900390625,-16.770605087280273,23.66055679321289
1739817649280025000,11.004025146484375,-29.964202880859375,-16.637065887451172,23.698097229003906
1739817649290094000,11.014093994140625,-29.809051513671875,-16.668527603149414,23.640666961669922
1739817649300164000,11.0241640625,-29.78765869140625,-16.682950973510742,23.686237335205078
1739817649310233000,11.034233154296874,-29.559173583984375,-16.6483154296875,23.91283416748047
1739817649320302000,11.044302001953126,-29.771942138671875,-16.84271812438965,23.76937484741211
1739817649330372000,11.0543720703125,-29.75091552734375,-16.805130004882812,23.622779846191406
1739817649340441000,11.064441162109375,-29.993316650390625,-17.01376724243164,23.513206481933594
1739817649350510000,11.074510009765625,-29.748046875,-16.90894889831543,23.688373565673828
1739817649360579800,11.084579833984375,-29.981964111328125,-16.938566207885742,23.364322662353516
1739817649370649900,11.09464990234375,-30.054351806640625,-17.08255958557129,23.147621154785156
1739817649380718600,11.104718505859376,-30.024871826171875,-17.16008949279785,23.106826782226562
1739817649390787800,11.114787841796876,-30.2432861328125,-17.203134536743164,23.24620819091797
1739817649400856800,11.12485693359375,-30.228668212890625,-17.020000457763672,23.179302215576172
1739817649410926800,11.1349267578125,-30.04180908203125,-17.03830909729004,23.190685272216797
1739817649420995800,11.144995849609375,-30.134429931640625,-16.886919021606445,23.182048797607422
1739817649431064800,11.15506494140625,-30.266815185546875,-16.91710090637207,23.12185287475586
1739817649441134800,11.165134765625,-30.2716064453125,-16.93695640563965,23.222091674804688
1739817649451203800,11.175203857421875,-30.23760986328125,-16.864896774291992,23.33661651611328
1739817649461272800,11.18527294921875,-30.306304931640625,-16.74810791015625,23.31231689453125
1739817649471341800,11.195341796875,-29.927642822265625,-17.043254852294922,23.424713134765625
1739817649481411800,11.205411865234375,-30.09417724609375,-16.77879524230957,23.227989196777344
1739817649491480800,11.215480712890624,-29.603546142578125,-16.811138153076172,23.080078125
1739817649501549800,11.2255498046875,-29.868988037109375,-16.660642623901367,23.291645050048828
1739817649511619800,11.235619873046875,-29.945953369140625,-16.758506774902344,23.397064208984375
1739817649521688800,11.245688720703125,-30.138763427734375,-16.957368850708008,23.16867446899414
1739817649531757800,11.2557578125,-30.184661865234375,-16.818767547607422,22.948917388916016
1739817649541826800,11.265826904296874,-30.03375244140625,-17.002256393432617,23.053844451904297
1739817649551896800,11.275896728515624,-30.24285888671875,-17.0269718170166,23.192157745361328
1739817649561965800,11.2859658203125,-30.1903076171875,-16.931001663208008,23.175304412841797
1739817649572034800,11.296034912109375,-29.99420166015625,-17.107534408569336,23.101356506347656
1739817649582103800,11.306103759765625,-29.602294921875,-17.252527236938477,23.116321563720703
1739817649592173800,11.316173828125,-29.729461669921875,-17.157703399658203,23.256736755371094
1739817649602242800,11.326242919921874,-29.814788818359375,-17.143110275268555,23.11211395263672
1739817649612311800,11.336311767578126,-29.984588623046875,-16.91408348083496,23.20083999633789
1739817649622381800,11.3463818359375,-29.94720458984375,-17.016395568847656,22.899070739746094
1739817649632450800,11.356450927734375,-30.07989501953125,-17.136978149414062,23.008995056152344
1739817649642519800,11.366519775390625,-30.166717529296875,-17.053142547607422,23.06643295288086
1739817649652588800,11.3765888671875,-30.363067626953125,-17.092388153076172,22.922992706298828
1739817649662658800,11.386658935546874,-30.27032470703125,-17.121755599975586,22.94277572631836
1739817649672727800,11.396727783203126,-30.213836669921875,-17.19860076904297,23.048351287841797
1739817649682796800,11.406796875,-30.2545166015625,-17.079370498657227,23.301315307617188
1739817649692865800,11.41686572265625,-29.985809326171875,-16.994426727294922,23.133441925048828
1739817649702935800,11.426935791015625,-29.828887939453125,-16.94632339477539,23.082225799560547
1739817649713004800,11.4370048828125,-30.22076416015625,-16.949878692626953,23.35601806640625
1739817649723073800,11.44707373046875,-30.39825439453125,-16.856401443481445,22.991241455078125
1739817649733143800,11.457143798828126,-30.221282958984375,-16.756824493408203,23.14522933959961
1739817649743213000,11.467213134765625,-30.2640380859375,-16.90105438232422,23.24237823486328
1739817649753281800,11.47728173828125,-29.939361572265625,-16.62122917175293,23.430831909179688
1739817649763350800,11.487350830078125,-29.680419921875,-16.507246017456055,23.30215835571289
1739817649773420800,11.4974208984375,-29.879608154296875,-16.45000457763672,23.275089263916016
1739817649783490000,11.507489990234374,-30.0096435546875,-16.4551944732666,23.186737060546875
1739817649793558800,11.517558837890626,-29.800262451171875,-16.593395233154297,23.20793914794922
1739817649803628800,11.52762890625,-30.383270263671875,-16.296953201293945,23.48719024658203
1739817649813697800,11.53769775390625,-30.31878662109375,-15.987997055053711,23.504413604736328
1739817649823766800,11.547766845703125,-30.2626953125,-15.97142219543457,23.44134521484375
1739817649833835800,11.557835693359374,-29.96826171875,-16.136198043823242,23.52798080444336
1739817649843906000,11.567906005859374,-29.80120849609375,-15.817333221435547,23.55026626586914
1739817649853974800,11.577974853515625,-30.359283447265625,-15.915983200073242,23.42522430419922
1739817649864043800,11.588043701171875,-30.532501220703125,-15.731613159179688,23.568344116210938
1739817649874112800,11.59811279296875,-30.6390380859375,-15.419797897338867,23.636432647705078
1739817649884183000,11.60818310546875,-30.541168212890625,-15.575897216796875,23.281051635742188
1739817649894251800,11.618251708984374,-30.5869140625,-15.617061614990234,23.543224334716797
1739817649904320800,11.62832080078125,-30.5687255859375,-15.455856323242188,23.63906478881836
1739817649914390800,11.638390869140625,-30.72747802734375,-15.424341201782227,23.628921508789062
1739817649924460000,11.6484599609375,-30.598236083984375,-15.15386962890625,23.612506866455078
1739817649934528800,11.65852880859375,-30.7672119140625,-15.102062225341797,23.12078857421875
1739817649944597800,11.66859765625,-30.69580078125,-14.837526321411133,23.140243530273438
1739817649954667800,11.678667724609374,-30.889678955078125,-14.624149322509766,23.235206604003906
1739817649964737000,11.688737060546876,-30.9320068359375,-14.335550308227539,23.067916870117188
1739817649974805800,11.6988056640625,-31.017333984375,-14.12969970703125,23.110092163085938
1739817649984874800,11.708874755859375,-30.940155029296875,-13.837718963623047,23.369853973388672
1739817649994944800,11.71894482421875,-30.99658203125,-13.582691192626953,23.43924331665039
1739817650005014000,11.729013916015624,-31.320404052734375,-13.185564041137695,23.49523162841797
1739817650015082800,11.739082763671876,-31.572265625,-13.11219596862793,23.544998168945312
1739817650025153000,11.749153076171876,-31.34954833984375,-13.214590072631836,23.671234130859375
1739817650035221800,11.7592216796875,-31.5985107421875,-13.001167297363281,23.54519271850586
1739817650045290800,11.769290771484375,-31.3892822265625,-13.139238357543945,23.706985473632812
1739817650055359700,11.77935986328125,-31.3287353515625,-13.208171844482422,23.916107177734375
1739817650065430000,11.789429931640624,-31.232421875,-13.340324401855469,23.926055908203125
1739817650075498800,11.799498779296876,-30.84942626953125,-13.579761505126953,23.973556518554688
1739817650085567700,11.809567626953125,-30.78619384765625,-13.715717315673828,23.907672882080078
1739817650095637800,11.8196376953125,-30.80963134765625,-13.66911506652832,23.996891021728516
1739817650105707000,11.82970703125,-30.70733642578125,-13.434747695922852,23.985824584960938
1739817650115775700,11.839775634765624,-31.029266357421875,-13.503250122070312,23.94064712524414
1739817650125844700,11.8498447265625,-31.440277099609375,-13.550178527832031,24.00368881225586
1739817650135914800,11.859914794921876,-31.322479248046875,-13.552116394042969,24.19321060180664
1739817650145984000,11.86998388671875,-31.567535400390625,-13.555253982543945,23.974239349365234
1739817650156052700,11.880052734375,-31.3690185546875,-13.621589660644531,23.833965301513672
1739817650166121700,11.890121826171875,-31.195404052734375,-13.39011001586914,23.823745727539062
1739817650176191700,11.900191650390624,-31.440521240234375,-13.286209106445312,23.604034423828125
1739817650186261000,11.910260986328124,-31.626800537109375,-12.931264877319336,23.40399169921875
1739817650196329700,11.920329833984376,-31.67413330078125,-13.06976318359375,23.470233917236328
1739817650206398700,11.930398681640625,-31.432159423828125,-12.940933227539062,23.13376235961914
1739817650216468700,11.94046875,-31.776702880859375,-12.775489807128906,23.328536987304688
1739817650226538000,11.9505380859375,-31.247467041015625,-12.624505996704102,23.721866607666016
1739817650236606700,11.960606689453124,-31.67681884765625,-12.750764846801758,23.438968658447266
1739817650246677000,11.970677001953124,-31.4349365234375,-12.905431747436523,23.14699935913086
1739817650256745700,11.980745849609375,-31.30841064453125,-12.97018051147461,23.235984802246094
1739817650266814700,11.990814697265625,-31.529205322265625,-12.862682342529297,23.439773559570312
1739817650276884000,12.000884033203125,-31.6868896484375,-12.577493667602539,23.43686294555664
1739817650286954000,12.0109541015625,-31.753326416015625,-12.660163879394531,23.473052978515625
1739817650297022700,12.021022705078124,-31.672332763671875,-12.622716903686523,23.425823211669922
1739817650307091700,12.031091796875,-31.764892578125,-12.491950988769531,23.374122619628906
1739817650317161000,12.041160888671875,-32.05902099609375,-12.308414459228516,23.44400405883789
1739817650327231000,12.05123095703125,-31.934814453125,-12.2840576171875,23.575969696044922
1739817650337299700,12.0612998046875,-31.88922119140625,-12.079349517822266,23.785289764404297
1739817650347368700,12.07136865234375,-32.059234619140625,-12.361600875854492,23.90100860595703
1739817650357438000,12.08143798828125,-31.833892822265625,-12.171794891357422,23.86467742919922
1739817650367506700,12.091506591796875,-31.79595947265625,-11.977493286132812,23.822978973388672
1739817650377576000,12.101575927734375,-32.10198974609375,-12.069787979125977,23.96941375732422
1739817650387644700,12.111644775390625,-32.038482666015625,-11.875726699829102,23.982982635498047
1739817650397715000,12.12171484375,-31.78265380859375,-11.681066513061523,24.17684555053711
1739817650407783700,12.13178369140625,-32.236358642578125,-11.797962188720703,23.890525817871094
1739817650417853000,12.14185302734375,-31.858673095703125,-11.66812515258789,24.057376861572266
1739817650427921700,12.151921630859375,-31.914825439453125,-11.545360565185547,23.842998504638672
1739817650437992000,12.161991943359375,-32.029632568359375,-11.261613845825195,23.939285278320312
1739817650448060700,12.172060791015625,-32.25091552734375,-11.414850234985352,23.847248077392578
1739817650458130000,12.1821298828125,-31.964141845703125,-11.028264999389648,23.795791625976562
1739817650468199700,12.19219970703125,-32.197052001953125,-11.196651458740234,23.890460968017578
1739817650478269000,12.20226904296875,-32.256378173828125,-11.068336486816406,24.01171875
1739817650488337700,12.212337646484375,-32.372100830078125,-11.051443099975586,23.977336883544922
1739817650498407000,12.222406982421875,-32.4461669921875,-10.98371696472168,23.774635314941406
1739817650508476700,12.2324765625,-32.3668212890625,-10.967933654785156,23.869590759277344
1739817650518546000,12.2425458984375,-32.087799072265625,-10.97561264038086,23.940773010253906
1739817650528614700,12.25261474609375,-31.8817138671875,-10.96192741394043,24.025928497314453
1739817650538685000,12.262684814453126,-31.890472412109375,-11.007568359375,23.93685531616211
1739817650548753700,12.272753662109375,-31.95306396484375,-10.917346954345703,24.27157974243164
1739817650558823000,12.282822998046875,-31.777740478515625,-10.78129768371582,24.359893798828125
1739817650568891600,12.2928916015625,-31.985595703125,-10.668905258178711,24.216571807861328
1739817650578962000,12.3029619140625,-32.274139404296875,-10.616537094116211,24.120994567871094
1739817650589030700,12.31303076171875,-32.221710205078125,-10.661550521850586,24.291622161865234
1739817650599100000,12.323099853515625,-31.9710693359375,-10.759408950805664,23.941085815429688
1739817650609168600,12.333168701171875,-32.28631591796875,-10.795795440673828,23.999645233154297
1739817650619239000,12.343239013671875,-32.392181396484375,-11.132375717163086,23.689517974853516
1739817650629307600,12.3533076171875,-32.3609619140625,-11.331108093261719,23.569107055664062
1739817650639377000,12.363376953125,-32.351593017578125,-11.50987434387207,23.45138168334961
1739817650649446000,12.37344580078125,-32.547576904296875,-11.558917999267578,23.479976654052734
1739817650659516000,12.383515869140625,-32.200592041015625,-11.689252853393555,23.495223999023438
1739817650669584600,12.393584716796875,-31.930633544921875,-11.740570068359375,23.458812713623047
1739817650679654000,12.40365380859375,-31.911102294921875,-12.225120544433594,23.412349700927734
1739817650689723000,12.413722900390624,-31.73614501953125,-12.538501739501953,23.524761199951172
1739817650699793000,12.42379296875,-31.522613525390625,-12.774862289428711,23.107765197753906
1739817650709861600,12.433861572265625,-31.581512451171875,-13.39069938659668,23.322021484375
1739817650719931000,12.443930908203125,-31.758392333984375,-13.728048324584961,23.37508773803711
1739817650730000600,12.454000732421875,-31.85418701171875,-14.03512191772461,23.006168365478516
1739817650740070000,12.46406982421875,-31.744781494140625,-14.370813369750977,22.974842071533203
1739817650750139000,12.474138916015624,-31.45989990234375,-14.53060531616211,23.18616485595703
1739817650760208000,12.484207763671876,-31.39013671875,-14.927371978759766,23.080127716064453
1739817650770277600,12.494277587890625,-31.68389892578125,-15.095443725585938,23.044445037841797
1739817650780347000,12.504346923828125,-31.370513916015625,-15.559242248535156,23.021377563476562
1739817650790416000,12.514415771484375,-31.332000732421875,-15.78036117553711,22.911861419677734
1739817650800484900,12.52448486328125,-31.1944580078125,-16.035186767578125,22.934356689453125
1739817650810554600,12.5345546875,-31.022125244140625,-16.639419555664062,22.75741195678711
1739817650820624000,12.544623779296876,-30.9423828125,-17.24211311340332,22.662593841552734
1739817650830692900,12.55469287109375,-30.81317138671875,-17.39451026916504,22.492080688476562
1739817650840763000,12.564762939453125,-30.530364990234375,-18.214895248413086,22.375797271728516
1739817650850832000,12.574831787109375,-30.36077880859375,-18.84324836730957,22.442920684814453
1739817650860900900,12.58490087890625,-30.205474853515625,-18.983495712280273,22.636756896972656
1739817650870969900,12.594969970703126,-29.819122314453125,-19.776134490966797,22.563934326171875
1739817650881040000,12.605039794921876,-29.682769775390625,-20.487401962280273,22.456775665283203
1739817650891108900,12.61510888671875,-29.696807861328125,-21.020097732543945,22.194358825683594
1739817650901177900,12.625177734375,-29.415771484375,-21.895374298095703,21.96318817138672
1739817650911246800,12.635246826171874,-29.380706787109375,-22.881511688232422,21.35165023803711
1739817650921316900,12.64531689453125,-29.083892822265625,-23.55527114868164,21.001495361328125
1739817650931385900,12.6553857421875,-28.59332275390625,-24.280406951904297,20.364540100097656
1739817650941454800,12.665454833984375,-28.5185546875,-24.866674423217773,19.697681427001953
1739817650951523800,12.67552392578125,-28.379302978515625,-25.697978973388672,19.052505493164062
1739817650961593900,12.68559375,-28.635986328125,-26.327943801879883,18.522014617919922
1739817650971662800,12.695662841796874,-28.3580322265625,-26.710264205932617,17.866167068481445
1739817650981731800,12.70573193359375,-28.12060546875,-27.726850509643555,16.912647247314453
1739817650991801900,12.7158017578125,-28.1024169921875,-28.397289276123047,16.139392852783203
