time,seconds_elapsed,z,y,x
1738005701437087000,0.0280869140625,0.002406476619839668,-0.002651537422090769,-0.1499284033998847
1738005701447156200,0.03815625,0.06182488027215004,0.0010961246736347675,-0.16668357723727822
1738005701457225000,0.048224853515625,0.2094002908051014,0.019603183679655193,-0.1697138848438859
1738005701467294200,0.058294189453125,0.27691666071712967,-0.003312850875034928,-0.12930062591284514
1738005701477362200,0.068362060546875,0.25377310101687905,-0.07064480413086711,-0.06864895413853228
1738005701487431200,0.07843115234375,0.22770985447764394,-0.09698343354538083,-0.039425563067942856
1738005701497500200,0.088500244140625,0.1686006629049778,-0.08003302939683199,0.018201719383895396
1738005701507568000,0.098568115234375,0.07430208452939986,-0.053325785865634676,0.06411437944881618
1738005701517637400,0.108637451171875,0.02064414409995079,-0.028034911938384175,0.07022855148017407
1738005701527706000,0.1187060546875,-0.047775896653532976,-0.028027020892873403,0.08205985904932021
1738005701537775000,0.128775146484375,-0.05808627826571464,-0.007513736630976199,0.0940249490659684
1738005701547843300,0.13884326171875,-0.03515899166464805,-0.005138824193179607,0.09285480930805205
1738005701557911300,0.148911376953125,-0.0012134674429893494,-0.018879910906404257,0.1180635579098016
1738005701567980300,0.158980224609375,0.06236790110766887,0.014617431156337261,0.11251344950199127
1738005701578049500,0.169049560546875,0.08270926286876201,0.03384074867293239,0.08131532429233193
1738005701588117200,0.1791171875,0.07407295194864273,0.04127469806596636,0.08116144890487194
1738005701598186500,0.1891865234375,0.04335574212372303,0.020585911106690762,0.10314159084893762
1738005701608255500,0.19925537109375,0.0319675021469593,-0.007441621242836117,0.09489610587731004
1738005701618324200,0.20932421875,0.06384264983534813,0.010630991868674755,0.08590952021479606
1738005701628392400,0.219392333984375,0.02759060223698616,0.0167489632923156,0.0967476520281285
1738005701638461400,0.22946142578125,-0.022823241704702377,0.014282865439727902,0.10500482743754982
1738005701648530400,0.239530517578125,-0.07338029350936412,0.008751534797623754,0.1288711484543979
1738005701658599400,0.249599365234375,-0.06607143180072307,0.01851721507385373,0.12724047851264475
1738005701668667400,0.25966748046875,-0.030234979265928268,0.0235552092410624,0.09705562199875711
1738005701678736400,0.269736328125,-0.011812018346786498,0.012179098093509673,0.09241123025901615
1738005701688805400,0.279805419921875,0.0044815293282270425,0.02433094285391271,0.061540145046636456
1738005701698873300,0.289873291015625,0.028463293418288228,0.003805091371387243,0.04245667439214885
1738005701708942300,0.2999423828125,0.011540215668082237,-0.010098346296697855,0.012677403004467487
1738005701719011300,0.31001123046875,0.028679566517472267,-0.01664754874445498,-0.000015270634368062018
1738005701729080300,0.320080322265625,0.03856500071585178,-0.006491480911150574,-0.03993475469909608
1738005701739148300,0.330148193359375,-0.02502981183826923,-0.022457038740813732,-0.07282740886695682
1738005701749217500,0.340217529296875,-0.05721767873764038,0.0006276303790509701,-0.07552278543077409
1738005701759286500,0.35028662109375,-0.05473696783781051,0.05571523828543722,-0.10773929390273988
1738005701769355300,0.360355224609375,-0.0517792870759964,0.0598169014506042,-0.13262085637673734
1738005701779423500,0.370423583984375,-0.05853402203321457,0.040002705368772144,-0.14794723952002822
1738005701789492500,0.380492431640625,-0.06242050807774067,0.037329613701999186,-0.11947890460044144
1738005701799561500,0.3905615234375,-0.061118193307518956,0.0208973882086575,-0.11618030144646763
1738005701809630500,0.40063037109375,-0.035305706658959386,-0.014129355378448963,-0.11357954436354338
1738005701819698400,0.410698486328125,0.00770458302795887,-0.024917875896394253,-0.08840491722710431
1738005701829767400,0.420767333984375,0.07394786426424979,-0.02823160355426371,-0.090314769436419
1738005701839836400,0.43083642578125,0.07660217816531657,0.004571691829711198,-0.07793349983431398
1738005701849905400,0.440905517578125,0.0454570983171463,0.04223199879080057,-0.04036773928888142
1738005701859973400,0.450973388671875,-0.009399696508049964,0.05156856693476438,-0.04836158758699894
1738005701870042400,0.46104248046875,-0.0719739338427782,0.013298822838440536,-0.05543401019126176
1738005701880111400,0.471111328125,-0.07490005042254924,-0.013348653329536319,-0.06314392698146402
1738005701890179300,0.481179443359375,-0.06589665975570679,-0.01820661475472152,-0.07461604584939778
1738005701900248300,0.491248291015625,-0.022282558956742287,-0.03669796473495662,-0.06338686889186501
1738005701910317300,0.5013173828125,0.018863690423965452,-0.05632664818204939,-0.03272040287349373
1738005701920386300,0.51138623046875,0.027298341292142866,-0.04372019152194261,0.019776969343982636
1738005701930454500,0.52145458984375,0.016114683976769448,-0.037137598261237144,0.03836239081583917
1738005701940523300,0.531523193359375,-0.022226444855332372,-0.021555340660735965,0.020239801082760096
1738005701950592500,0.541592529296875,-0.08256780857145786,-0.00845306330770254,0.0037647958936169743
1738005701960661500,0.55166162109375,-0.137626263448596,-0.0018304302975535392,-0.005951309619843959
1738005701970729500,0.5617294921875,-0.1906938367694616,-0.014507541041076183,-0.03672558339424431
1738005701980798500,0.571798583984375,-0.22864976567625997,-0.039473420797660946,-0.033733635036647315
1738005701990867500,0.581867431640625,-0.23414427143931388,-0.04719356672093272,-0.0294723608629778
1738005702000936400,0.5919365234375,-0.1913303811073303,-0.052262102156877516,-0.009227774007245898
1738005702011004400,0.60200439453125,-0.08596680335998534,-0.05389964023083448,0.018768632551655173
1738005702021073400,0.612073486328125,-0.042542087653279305,-0.04426745014116168,0.02229340914431959
1738005702031142400,0.622142333984375,-0.014025602743029594,-0.04794913432858884,0.029604024418629703
1738005702041211400,0.63221142578125,-0.004379822519421577,-0.0721150228139013,0.032314781214669346
1738005702051279400,0.642279296875,-0.03175941235423088,-0.06894369930140674,0.04771704260576516
1738005702061348400,0.652348388671875,-0.01816810937523842,-0.07583375107608735,0.03340093248356134
1738005702071417300,0.662417236328125,0.05400397738814353,-0.06029438276924193,-0.00031688392944633956
1738005702081485600,0.672485595703125,0.1339046125769615,-0.03566577214300632,-0.0026295082533732057
1738005702091554300,0.68255419921875,0.1729834080338478,-0.03524265136010945,0.047532443286478515
1738005702101623300,0.692623291015625,0.14424188219606876,-0.049181744863465424,0.056170142446085806
1738005702111692500,0.702692626953125,0.11552665984332561,-0.03623962650820613,0.06094181382730603
1738005702121760300,0.71276025390625,0.1048000986456871,-0.010563552655652165,0.0656287660671398
1738005702131829500,0.72282958984375,0.0674865592956543,-0.002777355758845806,0.06677307726405561
1738005702141898500,0.7328984375,0.0276104759812355,0.008899272705242036,0.05966379324812442
1738005702151967200,0.74296728515625,0.013209610185027122,-0.002460179568454623,0.000040258945152163504
1738005702162035500,0.753035400390625,0.03672843293845653,0.005860124205052853,-0.015953027141653
1738005702172104400,0.7631044921875,0.05627718301713466,-0.021597133975848556,-0.0007272182960063218
1738005702182173400,0.77317333984375,0.11262275509536265,-0.05495988987348974,-0.01898782826028764
1738005702192242400,0.783242431640625,0.21933190223276613,-0.05439823740273714,-0.07294047731999308
1738005702202310400,0.793310302734375,0.29482231976389883,-0.023549948544055222,-0.07886343762818723
1738005702212379400,0.80337939453125,0.2894254291564226,-0.004169906095787883,-0.07289451928641646
1738005702222448400,0.813448486328125,0.18917524890005588,-0.010637421609461307,-0.07638393230475485
1738005702232517400,0.823517333984375,0.039596681851148605,-0.008333163255080581,-0.07219634442180395
1738005702242585300,0.83358544921875,-0.092090254676342,-0.006842486305907368,-0.0722690077992156
1738005702252654300,0.843654296875,-0.14278700721263884,-0.008017813695594667,-0.09254146904256194
1738005702262723300,0.853723388671875,-0.09409574927985667,0.011660554112121461,-0.10078355648070574
1738005702272792300,0.863792236328125,-0.06399988622367382,0.02707929171398282,-0.11773995197862386
1738005702282860500,0.873860595703125,-0.033872458985447884,-0.01589483068101108,-0.09286949542053043
1738005702292929500,0.883929443359375,0.0368517670571804,-0.04187039893679321,-0.07783022212292999
1738005702302998300,0.893998291015625,0.08145254080593585,-0.03290916691124439,-0.09269611161500214
1738005702313067500,0.904067626953125,0.08092647110521793,-0.008083134016767144,-0.11612714648712426
1738005702323135500,0.914135498046875,0.05351823969781398,0.02430697745643556,-0.12603004327695816
1738005702333204500,0.92420458984375,-0.04603577498793602,0.0054901218488812445,-0.11146850702632218
1738005702343273500,0.9342734375,-0.09884498963356017,-0.010434081057086587,-0.089170385174267
1738005702353342200,0.94434228515625,-0.006476502537727356,-0.01468224002085626,-0.06921469826251268
1738005702363410400,0.954410400390625,0.08466916476488114,0.05254537607766688,-0.110164986679703
1738005702373479400,0.9644794921875,0.06441548128724098,0.05738529038950801,-0.05886603046655654
1738005702383548400,0.97454833984375,0.04846154083013534,0.019271686702966688,-0.038085108244419096
1738005702393617400,0.984617431640625,0.03882511295676231,-0.02740961964689195,-0.029617176161147653
1738005702403685400,0.994685302734375,0.03633446518480778,-0.06452778255529701,0.04740523671023547
1738005702413754400,1.00475439453125,0.061658876055479046,-0.06542809239588677,0.10529522521886973
1738005702423823400,1.0148232421875,0.15922084014117716,-0.035912951837107535,0.11486414081398397
1738005702433892600,1.024892578125,0.1925502782911062,-0.011164806484431028,0.09949044793024658
1738005702443960300,1.034960205078125,0.18295359790623186,-0.03287833338156342,0.11899806228093802
1738005702454029300,1.045029296875,0.1542781230419874,-0.08171674470007419,0.12152155287656932
1738005702464098600,1.0550986328125,0.13025602694153784,-0.10611286174468695,0.10396255184300243
1738005702474167300,1.065167236328125,0.13183365152180193,-0.09422361344322562,0.06089088735766709
1738005702484235300,1.0752353515625,0.1252513505220413,-0.0836327343892306,0.02769073814321309
1738005702494304500,1.085304443359375,0.0849409674435854,-0.06264437996149062,0.038092268637567754
1738005702504373200,1.095373291015625,-0.009415478599071502,-0.05539499335512518,0.05144326005466282
1738005702514442500,1.1054423828125,-0.08101414938867092,-0.0667317954055965,0.06513294537421316
1738005702524510500,1.115510498046875,-0.17712123849093914,-0.06264160348251462,0.04965250418037176
1738005702534579500,1.125579345703125,-0.22952362590134143,0.006379910295456648,0.013218889470025896
1738005702544648400,1.1356484375,-0.2673053672850132,0.06718604197911918,-0.026510040458664296
1738005702554718000,1.145718017578125,-0.27131401840448377,0.06596366057731211,-0.06133680449426174
1738005702564786000,1.155785888671875,-0.24491467177867887,0.03479183885268867,-0.08796020566690713
1738005702574855000,1.16585498046875,-0.18353753527402877,0.013666267911344766,-0.10388824449777602
1738005702584924000,1.175923828125,-0.08518120594024657,0.018183380009606478,-0.09780720755103975
1738005702594993000,1.185992919921875,-0.03578267652094364,0.009840206817165017,-0.059923576695472
1738005702605060900,1.196060791015625,0.003987608331441879,-0.020945903525501488,-0.08265497539825736
1738005702615129900,1.2061298828125,0.07621990084946155,0.0368969944383949,-0.11250957704447209
1738005702625198800,1.21619873046875,0.04123217409849167,0.01231719138994813,-0.08453377488218247
1738005702635268000,1.22626806640625,0.014683774390816688,0.007294394791871309,-0.11525880268737673
1738005702645335800,1.236335693359375,-0.0179553434073925,0.0316764833111316,-0.11864249030891805
1738005702655404800,1.24640478515625,-0.03247136001586914,0.042520825669541955,-0.08756046575959771
1738005702665474000,1.25647412109375,-0.0024859715968370438,0.05768478479273617,-0.09717449913807212
1738005702675542800,1.266542724609375,0.007146949145197868,0.053140784687548875,-0.07076269488949329
1738005702685611000,1.276611083984375,0.03425707438886166,0.029981223700568077,-0.04037665324769914
1738005702695680000,1.286679931640625,0.09860767374634742,0.021635931616276503,-0.036397739679366346
1738005702705748700,1.296748779296875,0.16590543247163295,0.02794657606780529,0.015166699069552123
1738005702715818000,1.30681787109375,0.17031272751986978,0.018229338043183087,0.045924971557222305
1738005702725886000,1.316885986328125,0.1184416705071926,0.00009228139333426951,0.03984572470877319
1738005702735955000,1.326954833984375,0.05642448253333568,0.011924027353897691,0.039108423410169776
1738005702746024000,1.33702392578125,0.011195932275056839,0.021511866845190523,0.015690467215329407
1738005702756092700,1.3470927734375,-0.07034136420488357,0.02668590848222375,-0.017285773582756517
1738005702766161000,1.357160888671875,-0.044885435909032816,0.013089198675751685,-0.031455132178030906
1738005702776230000,1.36722998046875,-0.030137948632240293,-0.00033778058700263496,-0.020655578809417784
1738005702786299000,1.377298828125,-0.025996611043810843,0.00428688353896141,0.001326974287442863
1738005702796368000,1.387367919921875,-0.05929156240224838,0.031242548873275516,0.012942301018349825
1738005702806437000,1.39743701171875,-0.10952186647057532,0.032710246805660426,0.03223492091149092
1738005702816504800,1.4075048828125,-0.1603963136613369,0.006360219214297831,0.05299344863872975
1738005702826573800,1.41757373046875,-0.18014321666061878,0.019512911580316723,0.08867156880665569
1738005702836643000,1.42764306640625,-0.14834113420844078,0.04007606286592781,0.10063022908251731
1738005702846711800,1.4377119140625,-0.11828735672831535,0.039853834949992596,0.08354202389847487
1738005702856779800,1.44777978515625,-0.09488953000605106,0.0500625462859869,0.06166077575162053
1738005702866849000,1.45784912109375,-0.07561550521552562,0.06945285439994185,0.02335442597195506
1738005702876917800,1.467917724609375,-0.05033785609602928,0.058683550039120014,0.0032317119302228093
1738005702886987000,1.477987060546875,-0.004736380872130394,0.024842837898805738,-0.02729877968356013
1738005702897055000,1.488054931640625,0.05860182657241821,0.018916991513781248,-0.025491364935413003
1738005702907123700,1.498123779296875,0.04142331275641918,0.02504815121255815,-0.0026411256259307263
1738005702917193000,1.50819287109375,0.02761106050312519,0.019436302680149672,0.015057539606653153
1738005702927262000,1.518261962890625,0.02420212884247303,0.047762233454361556,-0.009730901223793626
1738005702937331000,1.5283310546875,0.044586745223402974,0.1150304007589817,-0.026311303016170857
1738005702947399000,1.53839892578125,0.027714520877599715,0.143859349151887,-0.0126626438267529
1738005702957468000,1.548468017578125,-0.018192074772715568,0.1153179489960894,0.01240793841332197
1738005702967537000,1.558536865234375,0.020983751317858696,0.10465875394623726,-0.01021956152357161
1738005702977606000,1.56860595703125,0.07318798580765724,0.07988437817376107,-0.016372786923684178
1738005702987674000,1.578674072265625,0.1389116270840168,0.024214330736920236,0.011464483550749718
1738005702997742800,1.588742919921875,0.22147066782712935,0.015400982749462127,0.02101491364110261
1738005703007811800,1.598811767578125,0.2537941438049078,0.03394998120106756,0.028158172991871833
1738005703017880800,1.608880859375,0.21314064637720584,0.016231990213505923,0.04716686137709766
1738005703027949800,1.61894970703125,0.14001169728040694,-0.023773272438533603,0.06765212512090801
1738005703038018000,1.62901806640625,0.1004518403083086,-0.045245172599516804,0.06503149429373442
1738005703048086800,1.639086669921875,0.06789455557465553,-0.034192594317905604,0.0554632728183642
1738005703058156000,1.649156005859375,0.0472217699021101,-0.028394064106978475,0.03298815043158829
1738005703068225000,1.65922509765625,0.06774667153656483,-0.0473325002675876,0.012604593496583402
1738005703078292700,1.669292724609375,0.0674906509488821,-0.03608187866322696,0.04338310505468398
1738005703088362000,1.679362060546875,0.053799979248642917,-0.01920855833888054,0.06521923541817813
1738005703098431000,1.689430908203125,0.009015081104636192,-0.0061200903154909605,0.07767112257108091
1738005703108500000,1.6995,-0.045026890206336975,0.024518428250029683,0.08232841032501309
1738005703118569000,1.70956884765625,-0.10137246228456497,0.03554170737192035,0.0837778419483453
1738005703128637000,1.719636962890625,-0.16993512637913227,0.06271828544791787,0.05669781958200037
1738005703138706000,1.729705810546875,-0.25219138478338715,0.06773026839103549,0.013057999819889664
1738005703148775000,1.73977490234375,-0.31534780592024325,0.04728515399452299,0.000725099404156208
1738005703158844000,1.749843994140625,-0.3049778030753135,0.03818948193434626,0.0003770531514659524
1738005703168912000,1.759911865234375,-0.24213585471510884,0.03342128115184605,0.008058291836455464
1738005703178980900,1.76998095703125,-0.1811304741322994,0.02271189028471708,-0.002716200156137347
1738005703189049900,1.7800498046875,-0.09911913039982319,-0.0023250088814646005,0.011205686484090984
1738005703199118800,1.790118896484375,-0.008605331259965897,-0.02654496564157307,0.03095342973358929
1738005703209188000,1.80018798828125,0.06521335366666317,-0.06704425888825208,0.04574176047742366
1738005703219255800,1.810255859375,0.09913257440328598,-0.09349789298456161,0.03658029317203909
1738005703229324800,1.82032470703125,0.12429565723240375,-0.09822689426783472,-0.0025973595494404433
1738005703239394000,1.83039404296875,0.12426409305036067,-0.07448171541262417,0.0026475553667172787
1738005703249462800,1.840462890625,0.09582184242010117,-0.062137599483132355,0.005076572611927986
1738005703259532000,1.850531982421875,0.05516191525161266,-0.05290482050720602,0.014288199201971292
1738005703269600000,1.86060009765625,0.011529109752178192,-0.0533914715129882,0.0028767244800925254
1738005703279668700,1.870668701171875,-0.01883037267625332,-0.05914689323455095,0.005491692751459777
1738005703289738000,1.880738037109375,-0.010427870512008667,-0.06498937218505889,0.05183087113276124
1738005703299806700,1.890806640625,0.03643032677471637,-0.10894015759248286,0.049627990793623025
1738005703309876000,1.9008759765625,0.11305296320617199,-0.10810567952971904,0.05696556714009493
1738005703319944000,1.91094384765625,0.12850596840381623,-0.0822156341329217,0.0813630724241957
1738005703330012700,1.9210126953125,0.10938333478271961,-0.0867245994573459,0.1070232545878738
1738005703340082000,1.93108203125,0.07191255904436111,-0.09163337775431572,0.06843169465865939
1738005703350151000,1.94115087890625,0.06437164214551448,-0.06262158360779285,0.04026921081785113
1738005703360219000,1.951218994140625,0.04134557134509086,-0.04118303772713989,0.019635661177150904
1738005703370287900,1.961287841796875,0.015191139391064644,-0.051559214584529396,0.013702763996832071
1738005703380356900,1.97135693359375,0.04420446790754795,-0.07256678516939281,0.016848368546180426
1738005703390425900,1.98142578125,0.03429623735547065,-0.07416333364583551,0.04963164405543357
1738005703400494800,1.991494873046875,0.04085808008909225,-0.05503087275046855,0.10605152347888797
1738005703410563000,2.00156298828125,0.06332359439730643,-0.07067315344251691,0.13308182495199142
1738005703420631800,2.0116318359375,0.06402502066493033,-0.10526950625572352,0.10664769927375017
1738005703430701000,2.021701171875,0.0627326427668333,-0.11097655879091471,0.10260967592932284
1738005703440769800,2.031769775390625,0.10348960056900977,-0.10617449227143079,0.09145710787195711
1738005703450838800,2.0418388671875,0.1564490373402834,-0.13388455616962164,0.07940050364695489
1738005703460907000,2.051906982421875,0.19661796612143514,-0.16209109834786503,0.05150887263678014
1738005703470976000,2.06197607421875,0.18807810131311414,-0.1297351083399728,0.04078939876705408
1738005703481045000,2.072044921875,0.15745616855621336,-0.11005717892367392,0.03888199424315244
1738005703491114000,2.082114013671875,0.13968845667541027,-0.13366156106870622,0.052880343653075396
1738005703501182700,2.0921826171875,0.08548574184477328,-0.14343703208658842,0.0688576649857685
1738005703511251000,2.1022509765625,0.04468260681331158,-0.12161503984630107,0.07790449293553829
1738005703521320000,2.11231982421875,0.02868891886770725,-0.10059256395325064,0.06636003948375582
1738005703531389000,2.122388916015625,0.008805822268128394,-0.12341211586352437,0.06618724020011722
1738005703541458000,2.1324580078125,-0.03615618600845337,-0.13282996908277273,0.07843092796243727
1738005703551527000,2.14252685546875,-0.060131520357728,-0.16115951658617705,0.09689842214304953
1738005703561595100,2.15259521484375,-0.044292146191000935,-0.22029004320781675,0.10447667537759989
1738005703571664400,2.162664306640625,0.03236497703194618,-0.2742916825084016,0.11103782399147748
1738005703581733000,2.172733154296875,0.12820026345551014,-0.2928090802453458,0.14041812265682965
1738005703591802400,2.18280224609375,0.18894786988496778,-0.28510175727102904,0.1466299463763833
1738005703601871400,2.192871337890625,0.14797756159305572,-0.28235969202127303,0.15363167836461214
1738005703611939000,2.20293896484375,0.0534650482058525,-0.31079500145409256,0.15081022773571312
1738005703622008300,2.21300830078125,-0.0382505279392004,-0.327488471699506,0.13784604367911815
1738005703632077300,2.223077392578125,-0.08606091138422489,-0.32339718379788096,0.11798165178000926
1738005703642146300,2.233146240234375,-0.06581131955981254,-0.3474033516768366,0.11417758332192897
1738005703652215300,2.24321533203125,-0.052031800532341,-0.3594269304150715,0.12201065156776457
1738005703662283300,2.253283203125,-0.014247721061110497,-0.3586443286700174,0.12686912444960324
1738005703672352300,2.263352294921875,0.010914192724227905,-0.3594976575637236,0.13266889676954596
1738005703682421200,2.273421142578125,0.028059973314404487,-0.3434372610574588,0.11937288694269954
1738005703692490200,2.283490234375,0.0353226577937603,-0.3338961102521047,0.11571644679438323
1738005703702559200,2.293559326171875,0.032463176709413524,-0.3447072809932753,0.10199084991123526
1738005703712627200,2.303627197265625,0.05077215586006641,-0.3283118438463658,0.07976703540440648
1738005703722696200,2.3136962890625,0.0072141691625118255,-0.302731485453248,0.10749379470907151
1738005703732765200,2.32376513671875,-0.029395605832338332,-0.31670360444337126,0.13717563360426574
1738005703742834400,2.33383447265625,-0.04716331771314144,-0.33724585907142607,0.15195819219443946
1738005703752903200,2.343903076171875,-0.041995559686422344,-0.32840913020838053,0.16844510701708496
1738005703762971100,2.35397119140625,-0.0010667524486780166,-0.309269545452483,0.15482465100884438
1738005703773040400,2.364040283203125,0.05054886849820613,-0.3112609019327909,0.16164766542930156
1738005703783109000,2.374109130859375,0.0727455027371645,-0.3223646258797496,0.20454415601082146
1738005703793178400,2.384178466796875,0.13422843770384787,-0.3274350244792178,0.2073048163631931
1738005703803247000,2.3942470703125,0.18174013046324253,-0.32499274589363486,0.16791300943437962
1738005703813316400,2.40431640625,0.1704080045878887,-0.31724107232093807,0.1563749857233837
1738005703823384300,2.41438427734375,0.1335217507392168,-0.25986761849969625,0.20919099543597547
1738005703833453000,2.424453125,0.09466624264419078,-0.2691243263404816,0.22227186467479912
1738005703843522300,2.434522216796875,0.02732347573339939,-0.28707444558348505,0.18122593386340885
1738005703853591300,2.44459130859375,-0.030231472134590147,-0.24844474560096858,0.1941581884117797
1738005703863660300,2.454660400390625,-0.0006955810487270354,-0.26002182268071916,0.19955040284413844
1738005703873728300,2.464728271484375,0.1207464403182268,-0.31057087384201587,0.17831351701542733
1738005703883797200,2.47479736328125,0.2654360662817955,-0.33638021868541834,0.12532668078057468
1738005703893866200,2.4848662109375,0.41544191883206366,-0.3808068049110472,0.08511804104354231
1738005703903935200,2.494935302734375,0.5479927787125111,-0.4099601629527285,0.03272873231042176
1738005703914004200,2.505004150390625,0.6537953323990107,-0.41015206879563626,-0.008640585236437619
1738005703924072200,2.515072265625,0.6077502050608397,-0.3411235407549888,-0.04884929803870618
1738005703934141200,2.52514111328125,0.476374818700552,-0.27724088770281524,-0.10232632894329727
1738005703944210200,2.535210205078125,0.29620646759867664,-0.21637685181945562,-0.14756730029173196
1738005703954279200,2.545279052734375,0.1184855096489191,-0.16315584150254725,-0.17348591419588774
1738005703964348400,2.555348388671875,0.022059856116771696,-0.16367500653844325,-0.1399709268786013
1738005703974417200,2.565417236328125,0.023711714977025983,-0.13971764623727648,-0.11581771521177142
1738005703984485400,2.5754853515625,-0.02991290770471096,-0.06753101949188858,-0.13239117580670862
1738005703994554400,2.585554443359375,-0.17418810764849185,0.01192179886419326,-0.1431781984873116
1738005704004623000,2.595623046875,-0.37359775031507014,0.05976528086122125,-0.10599650535602122
1738005704014692400,2.6056923828125,-0.5300409424364566,0.038150245902501045,-0.14138627356924116
1738005704024761000,2.615760986328125,-0.5255342786669731,-0.10681337469685823,-0.1978133133858442
1738005704034829300,2.625829345703125,-0.35149814670979973,-0.2713154066439718,-0.2535916069701314
1738005704044898300,2.635898193359375,-0.20202654716670512,-0.3881307545909658,-0.3262708760706708
1738005704054967000,2.645967041015625,-0.004578559961915016,-0.49633507218956946,-0.3564778348185122
1738005704065036300,2.656036376953125,0.20209493622779845,-0.6549752628985792,-0.4139246461369097
1738005704075105300,2.666105224609375,0.3913362361013889,-0.8156362919107079,-0.4732264742048457
1738005704085174300,2.67617431640625,0.46845396257340904,-0.8889927661530673,-0.5068240617716685
1738005704095242200,2.6862421875,0.4216133009433746,-0.933916634376347,-0.506304714072682
1738005704105311200,2.696311279296875,0.33234920960366726,-0.8772488446064293,-0.47922228055354205
1738005704115380200,2.706380126953125,0.16133739390373228,-0.8074795812010764,-0.43347883957568556
1738005704125449200,2.71644921875,-0.08079495368003844,-0.7600712757509202,-0.38587636326029895
1738005704135518200,2.726518310546875,-0.30877602631449697,-0.7178934183001517,-0.3552244372239336
1738005704145587200,2.736587158203125,-0.4165419890284538,-0.6758936208300292,-0.34551567476671186
1738005704155655400,2.746655517578125,-0.38346915598809717,-0.7096103047318756,-0.3614999007642269
1738005704165724200,2.75672412109375,-0.24481881018877028,-0.7393266669511794,-0.366053874274157
1738005704175793200,2.766793212890625,-0.11721417453885077,-0.6920235754411668,-0.32903164602089674
1738005704185862400,2.7768623046875,-0.00844224965274334,-0.7331026048045605,-0.2927699172787368
1738005704195931100,2.78693115234375,0.07717793222665786,-0.8463412267759441,-0.2761764733416959
1738005704205999400,2.796999267578125,0.17072949162721632,-0.9162268100373446,-0.2666316327419132
1738005704216068400,2.807068359375,0.20214169797897338,-0.9215962281160056,-0.21923936511110514
1738005704226137000,2.81713720703125,0.21030279260277746,-0.9043975482948123,-0.1702649063227698
1738005704236206300,2.827206298828125,0.15766893452405928,-0.8831542692579328,-0.11378967998288571
1738005704246275000,2.837275146484375,0.07542612012326717,-0.821225490219891,-0.025664237284287808
1738005704256344300,2.84734423828125,0.019327216282486914,-0.7764185994397849,-0.028354681944660842
1738005704266412300,2.857412353515625,-0.039297406643629074,-0.7570864877864718,-0.040015637915581465
1738005704276481300,2.867481201171875,-0.0162561382740736,-0.7299317927487194,-0.058955060456879434
1738005704286550300,2.87755029296875,0.052099020549654956,-0.702648502895236,-0.12382694374211131
1738005704296619300,2.887619384765625,0.148631641587615,-0.6996776703909039,-0.17184932597000152
1738005704306688300,2.897688232421875,0.19410101486444473,-0.6796147602450102,-0.20191066570207475
1738005704316757200,2.90775732421875,0.27755086696743964,-0.7451489433638752,-0.22368206026628612
1738005704326825500,2.917825439453125,0.3901186770051718,-0.8140132207535207,-0.18565818068981169
1738005704336894200,2.927894287109375,0.5094722016602754,-0.9083218821316957,-0.15624832713641226
1738005704346963200,2.937963134765625,0.6463444318711757,-1.030543801829964,-0.15922069401070474
1738005704357032200,2.9480322265625,0.8254208960831165,-1.1706652430951594,-0.1688227081578225
1738005704367101200,2.95810107421875,0.9769827459037304,-1.2630191171437501,-0.16899181764703242
1738005704377170400,2.96817041015625,1.0800538287997246,-1.327600602647662,-0.13392536310404538
1738005704387238100,2.978238037109375,1.1655272956848144,-1.3420952842071652,-0.09426679499782621
1738005704397307100,2.98830712890625,1.1741308733791112,-1.3463286839932203,-0.041174744822829956
1738005704407376400,2.99837646484375,1.056162081080675,-1.3525243237629532,0.023947167700715363
1738005704417445000,3.008445068359375,0.9176958596765995,-1.3592305434033274,0.04967073395680636
1738005704427514400,3.018514404296875,0.7774404167681932,-1.4113421311736105,0.07028488477729261
1738005704437583000,3.0285830078125,0.6843488760948181,-1.4512673143267631,0.07511968452259898
1738005704447651300,3.0386513671875,0.6689788730055093,-1.4992558308176696,0.07191668723020703
1738005704457720300,3.04872021484375,0.7228712067127228,-1.5692507196724415,0.028419271613471207
1738005704467789000,3.0587890625,0.8070107946455478,-1.6411799375906586,-0.018401954663731155
1738005704477858300,3.0688583984375,0.9421990172922611,-1.6993641232728958,-0.0570490441724658
1738005704487927300,3.07892724609375,1.141808566445112,-1.7829311720147727,-0.10252535864673554
1738005704497996300,3.088996337890625,1.3140566459417342,-1.8508789190813897,-0.17646306684315202
1738005704508064300,3.099064208984375,1.4395324528694151,-1.8807647926487028,-0.25623138088919223
1738005704518133200,3.10913330078125,1.5232815801799295,-1.8428893816322087,-0.27602855277098715
1738005704528202200,3.1192021484375,1.5558032090783118,-1.7884778463564812,-0.28146650604121387
1738005704538271200,3.129271240234375,1.5196604670733214,-1.718711213299632,-0.27746618435867126
1738005704548340200,3.13934033203125,1.4014420839279889,-1.68424473394379,-0.23411299951821565
1738005704558409200,3.1494091796875,1.2752969994366168,-1.6898728029586374,-0.23966018531657754
1738005704568477200,3.159477294921875,1.23521224180758,-1.687439730592817,-0.2462678399533033
1738005704578546000,3.1695458984375,1.225814298865199,-1.7201101203121243,-0.27025303810946644
1738005704588615200,3.179615234375,1.2421493475943803,-1.744951862232387,-0.3020910686578601
1738005704598684200,3.18968408203125,1.2106155606895685,-1.6990478969305753,-0.29843137710653245
1738005704608753200,3.199753173828125,1.090008236581087,-1.5902045142434535,-0.3216350694961846
1738005704618822100,3.209822265625,0.8709358620673417,-1.4992163755901158,-0.37205870417952536
1738005704628890000,3.21989013671875,0.4554179553896188,-1.3978586724832653,-0.4126037727966904
1738005704638959000,3.229958984375,0.05549333916306495,-1.3102740586630999,-0.4473423470921814
1738005704649028000,3.240028076171875,-0.2907920413345098,-1.2762225898489354,-0.5944811197735369
1738005704659097000,3.25009716796875,-0.7563473598569631,-1.5795060100965201,-0.8567408941067755
1738005704669166000,3.260166015625,-1.050425583255291,-2.2197683455750346,-1.1056196472108364
1738005704679235300,3.2702353515625,-1.0816279462486504,-2.5582798772007225,-1.1742094915732741
1738005704689303000,3.280302978515625,-0.8666694367945194,-2.408912907075882,-0.6953839187197387
1738005704699372000,3.2903720703125,-0.8627548936992884,-1.6984879249602556,0.02906725066080689
1738005704709441300,3.300441162109375,-1.637881772828102,-0.6669604458551853,0.6385267438575625
1738005704719510000,3.310510009765625,-3.3482775777250526,0.27553731692163275,0.779092129497975
1738005704729579300,3.320579345703125,-5.489635526669025,0.863663167650625,0.5791791404191404
1738005704739648000,3.33064794921875,-7.109811546936631,1.424115834159404,0.23749730819426476
1738005704749716000,3.340716064453125,-8.144595908945798,1.8355464715234935,-0.2105723302591592
1738005704759785200,3.35078515625,-8.340361057630181,2.1616754914380607,-0.36732349235117434
1738005704769854000,3.36085400390625,-7.6413459428012365,2.685663271315396,-0.5569365481466054
1738005704779923200,3.370923095703125,-6.449343312644958,2.769378496356308,-0.811488889907673
1738005704789992200,3.3809921875,-5.08728865173161,2.5569758088648316,-0.9603813013233243
1738005704800061200,3.391061279296875,-3.848845757439732,2.29161719173342,-0.8995001316420733
1738005704810129200,3.401129150390625,-2.8800048169374466,1.8860472630962728,-0.669297583565861
1738005704820198100,3.4111982421875,-2.0395149465382096,1.4613124691314994,-0.44670949254874137
1738005704830267100,3.42126708984375,-1.2507155158877372,1.1281213288109748,-0.2960044056879356
1738005704840336100,3.431336181640625,-0.511280127865076,0.9326961526706814,-0.23704185604434458
1738005704850405000,3.441405029296875,0.2845616225123405,0.8507311322979628,-0.17873890282064675
1738005704860474000,3.45147412109375,1.002468484815955,0.8146743150107562,-0.06612557314075529
1738005704870542000,3.4615419921875,1.620897320279479,0.7433547534234821,0.049842035403102634
1738005704880611000,3.471611083984375,2.0667314547657964,0.7038183503922074,0.20679040056765077
1738005704890680000,3.48168017578125,2.2996137434452772,0.6970230642288923,0.3558069498196244
1738005704900749300,3.491749267578125,2.4288205535948273,0.8070909472096711,0.41983460083305835
1738005704910818000,3.501818115234375,2.412730419537425,0.9359735669061541,0.41543855783119793
1738005704920887300,3.51188720703125,2.026754249164462,1.06707247441262,0.4279901424989104
1738005704930956000,3.5219560546875,1.7777315575450658,1.4353241875246165,0.6456454167563468
1738005704941024000,3.53202392578125,1.5363830538153647,1.6597040207967162,0.9095316963128744
1738005704951093200,3.54209326171875,1.1163567298024892,1.642550787552446,1.0731181843176483
1738005704961162000,3.552161865234375,0.6383125165849923,1.6079218111112712,1.2843879222564398
1738005704971231200,3.562231201171875,0.1640039827644825,1.7036676656857133,1.5635829031690953
1738005704981300200,3.57230029296875,-0.2893126164317131,1.7566525291591881,1.6400252145975827
1738005704991369200,3.582369140625,-0.611212912735343,1.7492527742967008,1.6094466825909912
1738005705001437200,3.592437255859375,-0.8214104913979768,1.6384364841014145,1.631322560442984
1738005705011506200,3.602506103515625,-0.9597890345185994,1.4758656028799713,1.5807617092460393
1738005705021575200,3.6125751953125,-0.8927426202058791,1.335635148282349,1.459695243193209
1738005705031644200,3.62264404296875,-0.6490203730821609,1.1935511017072946,1.2915879167631268
1738005705041713200,3.632713134765625,-0.2952776623159647,1.0143583907045424,1.0818156508404762
1738005705051782100,3.6427822265625,0.15541794072687626,0.8552877726890146,0.8243775245100259
1738005705061851100,3.65285107421875,0.654559302508831,0.7442109318614005,0.552586901569739
1738005705071919000,3.662919189453125,1.1056178936451673,0.6236652748122811,0.33683541510701176
1738005705081988000,3.672988037109375,1.4124603215485811,0.5143345104670152,0.15924882412664593
1738005705092057300,3.683057373046875,1.6566946098476647,0.4404110134590417,-0.02491341891698539
1738005705102126000,3.6931259765625,1.8500030130296945,0.37368959331698715,-0.08759396617040037
1738005705112195300,3.7031953125,1.93416013661921,0.27874314549192786,-0.07672551228404044
1738005705122264000,3.71326416015625,1.9010171609520912,0.23364910833351313,-0.10914733406975864
1738005705132332000,3.72333203125,1.8823194747447967,0.18151129014343023,-0.04472242736704647
1738005705142401300,3.7334013671875,1.8516981265097856,0.15823972014933824,-0.003527662669494748
1738005705152470000,3.743469970703125,1.764759847769141,0.16306830934956668,-0.014004706085473299
1738005705162539300,3.753539306640625,1.7482786685675382,0.14141615725085138,0.028558132094889877
1738005705172608300,3.763608154296875,1.7764988008797167,0.06742496530152857,0.05314334197081625
1738005705182677000,3.773677001953125,1.79717567820549,-0.038035496949031945,0.018081600135564802
1738005705192745200,3.7837451171875,1.8099433898419142,-0.11965981412529944,0.00823109112009406
1738005705202814200,3.793814208984375,1.835876287999749,-0.1434207020062953,0.014003683172166347
1738005705212883200,3.80388330078125,1.7969921383321283,-0.0758144618537277,-0.027536972353607414
1738005705222952200,3.8139521484375,1.6750491817057132,-0.030465646216645836,-0.05800692941918969
1738005705233021200,3.824021240234375,1.5062825145840644,-0.03232705617435276,-0.021621172438561913
1738005705243090200,3.834090087890625,1.301421620774269,-0.04597724973373115,-0.01594268841072917
1738005705253159200,3.8441591796875,1.1529910547167062,-0.07776398848630488,-0.029395898093283173
1738005705263227100,3.85422705078125,1.084040268087387,-0.1321384066220373,-0.0673258888412267
1738005705273296100,3.864296142578125,1.0934253515481949,-0.21612368077598512,-0.11211378265991806
1738005705283365400,3.874365478515625,1.1230851612746715,-0.31724706367030736,-0.12979425464868544
1738005705293434000,3.88443408203125,1.159321426782012,-0.3908920725304633,-0.12047113050818442
1738005705303503000,3.894503173828125,1.1657570127874612,-0.46453101697601373,-0.10873261578902602
1738005705313572000,3.904572021484375,1.1138999843001365,-0.5349499764617532,-0.06179770000427961
1738005705323640000,3.91464013671875,1.0289876584291457,-0.5809902814943343,-0.03033639381378889
1738005705333709300,3.924709228515625,0.940453634929657,-0.6406308765299618,-0.05226823963671923
1738005705343778000,3.934778076171875,0.8644745570987462,-0.7491660700507462,-0.10501206089593469
1738005705353847300,3.944847412109375,0.8450999945431947,-0.8883516917705535,-0.17052293620444833
1738005705363916000,3.954916015625,0.9018272594153881,-1.0014636186223476,-0.2167912778392434
1738005705373985000,3.964985107421875,1.0372568896025418,-1.1358061111599207,-0.21292386182136833
1738005705384053200,3.97505322265625,1.127940784612298,-1.2841726720705628,-0.1410430861547589
1738005705394122200,3.985122314453125,1.1908563827306031,-1.3779562866613269,-0.0647100072544068
1738005705404191200,3.995191162109375,1.1908476149022578,-1.4415939154438673,0.01258979778625071
1738005705414260200,4.00526025390625,1.1725146703541278,-1.5135150961861012,0.12868490516729653
1738005705424329000,4.015328857421875,1.0914753865242004,-1.5789020528540014,0.2686108969256282
1738005705434398200,4.025398193359375,0.9623796355336904,-1.6286850515462457,0.3726300012614578
1738005705444466200,4.035466064453125,0.838057090294361,-1.7549075851880014,0.5539433576799929
1738005705454535200,4.04553515625,0.6923346141517162,-1.857849927137792,0.5792002562724053
1738005705464604200,4.055604248046875,0.6286041925191879,-1.893906159903109,0.5686025821514428
1738005705474673200,4.065673095703125,0.5937140809237956,-1.964524587483704,0.5741464069489389
1738005705484742100,4.0757421875,0.5364490559130907,-2.024756937867403,0.5500353904560208
1738005705494811100,4.08581103515625,0.4477157104492187,-2.0352757015332577,0.5377652530781925
1738005705504880000,4.095880126953125,0.3010340338855982,-1.987416656640917,0.5545698190152645
1738005705514948000,4.105947998046875,0.004647533544898033,-1.9449192849121986,0.5557436120349913
1738005705525017300,4.116017333984375,-0.437657257771492,-1.8237158946067094,0.5192122360385955
1738005705535086000,4.126086181640625,-0.9313532136291265,-1.6697998828753828,0.5002679546590895
1738005705545155000,4.136155029296875,-1.4752426486760377,-1.4636080327227712,0.4328086486965418
1738005705555224000,4.14622412109375,-1.9634534511208532,-1.4535535255677998,0.26320326572842895
1738005705565293000,4.15629296875,-2.129544177031517,-1.9370947287663816,-0.044850218465179205
1738005705575361300,4.166361328125,-1.8101403737187385,-2.381200432024896,-0.39678178815618154
1738005705585430300,4.17643017578125,-1.3893074094980955,-2.280732078973204,-0.4388320737045258
1738005705595499300,4.186499267578125,-1.139497951415181,-1.790593231075257,-0.18202983412481843
1738005705605568300,4.196568359375,-1.3754618394970892,-0.9716365625701844,-0.09651143211945891
1738005705615637200,4.20663720703125,-2.1769377963691947,-0.10872994890790431,-0.18217099616117774
1738005705625706200,4.216706298828125,-3.250868758374452,0.6091814799729734,-0.24088607384972274
1738005705635775000,4.22677490234375,-4.163587414160371,1.0914886843971907,-0.10154504237249493
1738005705645843200,4.23684326171875,-4.810238135501742,1.5782595171667635,-0.04109539597630501
1738005705655912200,4.246912109375,-5.218876804059744,2.0669392522975802,-0.11106778073832392
1738005705665981200,4.256981201171875,-5.3080707527726885,2.3992098437070846,-0.23969043432436882
1738005705676050200,4.26705029296875,-5.11537492853105,2.625379775266349,-0.3793650816701352
1738005705686119200,4.277119140625,-4.882411391308904,2.778541461499035,-0.3857422885518521
1738005705696188200,4.287188232421875,-4.748064880183339,2.8076410069942472,-0.31647914803773164
1738005705706256100,4.297256103515625,-4.5878737337052815,2.615359316511452,-0.36592348936013874
1738005705716325400,4.307325439453125,-4.150629732909798,2.26666278321892,-0.34836963942572474
1738005705726394000,4.31739404296875,-3.4073896919071673,1.9686181404076515,-0.33532844461016353
1738005705736463400,4.32746337890625,-2.547547470784187,1.7582545575283466,-0.40459304642900823
1738005705746532000,4.337531982421875,-1.6692431257754563,1.5853274097263812,-0.6584574059259146
1738005705756601000,4.34760107421875,-0.7263637250036,1.3807754357352853,-0.8870114561427385
1738005705766669300,4.35766943359375,0.146166128256917,1.1587168119523674,-1.003658571383357
1738005705776738000,4.367738037109375,0.9059680124819278,0.9758848676644265,-1.130404252116382
1738005705786807300,4.377807373046875,1.5749948162823915,0.9026009472016244,-1.2649433632045983
1738005705796876300,4.387876220703125,2.079733559679985,0.9439210187792777,-1.3829301295511425
1738005705806945000,4.397945068359375,2.3066198228150605,1.0415738760188222,-1.4453728494606912
1738005705817014300,4.40801416015625,2.247003850764036,1.179512712547928,-1.364512867720425
1738005705827083000,4.4180830078125,1.9273668232172727,1.2842831467077136,-1.1847756015121935
1738005705837151200,4.428151123046875,1.4682973595827817,1.3757163987800478,-0.9973810985490679
1738005705847220200,4.43822021484375,1.0463841989099978,1.4222650917261839,-0.7295910895522684
1738005705857289000,4.4482890625,0.7876555213123559,1.3861409082911909,-0.43225371822752057
1738005705867358200,4.458358154296875,0.6275245805889368,1.4391662499055267,-0.3063249068353325
1738005705877427200,4.46842724609375,0.626731384384632,1.5232929783567786,-0.24615714612044393
1738005705887496200,4.47849609375,0.7552057886064052,1.5423679734438658,-0.1638575965637341
1738005705897564200,4.488564208984375,0.9207482329845428,1.4657371537059545,-0.07882884123884142
1738005705907633400,4.49863330078125,1.1174380952984093,1.259343643501401,0.012625161360576748
1738005705917702100,4.5087021484375,1.3193319559961556,1.0710941311441362,0.051249271852523086
1738005705927771100,4.518771240234375,1.5497586682170628,0.9150011406999081,0.004126651475951076
1738005705937840000,4.528840087890625,1.824813042193651,0.723984136390686,-0.006720394296199083
1738005705947909000,4.5389091796875,2.033610106408596,0.5744511620491742,-0.018525690641254186
1738005705957977300,4.548977294921875,2.1565724692106247,0.42374570986218746,0.025696751314401627
1738005705968046000,4.559046142578125,2.117742095556855,0.35076910178288817,0.09390804468803107
1738005705978115000,4.569114990234375,1.924309189212322,0.32856720684692264,0.1139529807858169
1738005705988184300,4.579184326171875,1.6727251226723192,0.34658626314029095,0.09742233641929923
1738005705998253000,4.589253173828125,1.3659744647055863,0.40851562670022246,0.03502615906521678
1738005706008322300,4.599322265625,1.0530518401056528,0.4646643610320985,-0.03751300744488835
1738005706018391000,4.60939111328125,0.7965098588973283,0.47510969413556153,-0.12795995189361273
1738005706028459000,4.619458984375,0.6650602382570505,0.42154008957669137,-0.18249935133270917
1738005706038528300,4.6295283203125,0.5751058265656233,0.3456638875983655,-0.16060272295363245
1738005706048597000,4.639596923828125,0.46216801417171954,0.3163083945807069,-0.22293270320370792
1738005706058666200,4.649666259765625,0.4914654203265905,0.18305837345495818,-0.26654366219751535
1738005706068735200,4.6597353515625,0.6129594641417264,0.04296360100097954,-0.31245705291479825
1738005706078804200,4.66980419921875,0.8016209183007478,-0.10182079057395457,-0.34436917161270975
1738005706088872200,4.6798720703125,1.0177630845814942,-0.29862865324430166,-0.31634368508979677
1738005706098941200,4.689941162109375,1.1903285594642161,-0.45450339782796795,-0.29598624897673725
1738005706109010200,4.70001025390625,1.3329115685373545,-0.5642977245643734,-0.26696576006710526
1738005706119079200,4.7100791015625,1.369153094741702,-0.6404109501689672,-0.2663685978915542
1738005706129148200,4.720148193359375,1.3047668395489453,-0.7381100577030331,-0.2678415199883282
1738005706139217200,4.730217041015625,1.2344336586505174,-0.8328654399354011,-0.23684315513446927
1738005706149285000,4.74028515625,1.2273410700410603,-0.8686584186546504,-0.20929295797310768
1738005706159354000,4.75035400390625,1.157984040698409,-0.8755787194371223,-0.1972211196463555
1738005706169423000,4.760423095703125,1.0445575680047272,-0.8712275384902953,-0.17201251717507837
1738005706179492400,4.770492431640625,0.9128162709414959,-0.8807830100819468,-0.13115458321645856
1738005706189561000,4.78056103515625,0.7724941925376653,-0.8396224399149418,-0.0410419852886349
1738005706199630300,4.79063037109375,0.6083101770311594,-0.7880022158581763,0.03569404838941991
1738005706209699000,4.800698974609375,0.4563619582414627,-0.7488012553263456,0.07227576633356511
1738005706219767000,4.81076708984375,0.35547581816911694,-0.7128670415055006,0.07892031891457736
1738005706229836300,4.820836181640625,0.28697452887296676,-0.6921800811771303,0.06502068063877522
1738005706239905000,4.830905029296875,0.27306758407354353,-0.682243062921986,0.041716961940750474
1738005706249974300,4.840974365234375,0.2738572731465101,-0.7436439456284045,-0.01683751835860312
1738005706260043300,4.851043212890625,0.33718203658759593,-0.8167650767449289,-0.07657748211547732
1738005706270112300,4.8611123046875,0.4845721536815166,-0.8735806044224649,-0.10261910134479403
1738005706280180200,4.87118017578125,0.6327905382931233,-0.911950959349051,-0.1750694205276668
1738005706290249200,4.881249267578125,0.695067253986001,-0.9533979452420025,-0.22747465748228132
1738005706300318200,4.891318115234375,0.6929758346647024,-0.9546779751151799,-0.2360400220580399
1738005706310387200,4.90138720703125,0.5722346550434827,-0.941507235635817,-0.22019999030418694
1738005706320456200,4.911456298828125,0.4117132536977529,-0.9714747961372137,-0.18065555009692907
1738005706330525200,4.921525146484375,0.2577542796075344,-0.9795376180183142,-0.14713877268135547
1738005706340594200,4.93159423828125,0.10194237112700938,-0.9369520565494894,-0.11842961474321782
1738005706350662100,4.941662109375,-0.039348260048031804,-0.8520738521438092,-0.08927965423502028
1738005706360731100,4.951731201171875,-0.2775122885227203,-0.9232154268156737,-0.13311411978639662
1738005706370800400,4.96180029296875,-0.5437222617864609,-1.4412386722654102,-0.36407501194924113
1738005706380869000,4.971869140625,-0.5509510439962149,-1.858146571996808,-0.6506859682068228
1738005706390938400,4.9819384765625,-0.26670973947942256,-1.7179700395435094,-0.460819668302685
1738005706401007000,4.992007080078125,-0.16715455574989319,-1.2572064853422342,-0.0950315688252449
1738005706411075000,5.002074951171875,-0.47671033426523207,-0.41584969591535625,0.4285984836556017
1738005706421144300,5.012144287109375,-1.3708897092759609,0.5672272752102464,0.9119368577584623
1738005706431213000,5.022213134765625,-2.9544413415014743,0.9371228100065141,0.9006975247330963
1738005706441282300,5.0322822265625,-4.385219994550943,0.9704606506586074,0.6447524865046144
1738005706451351000,5.04235107421875,-5.080647314020991,1.2219833424001931,0.4088156325601041
1738005706461420300,5.052420166015625,-5.106721666476131,0.914556100346148,0.030002047292888162
1738005706471488300,5.06248828125,-4.438498580273985,1.0815623336665332,-0.15425357312262059
1738005706481557200,5.07255712890625,-3.6635073102235793,1.718229128871113,-0.047295200464501974
1738005706491626200,5.082626220703125,-3.224265413609147,2.6113652784392234,0.18962335799373686
1738005706501695200,5.0926953125,-3.3644021985739467,3.259714620392024,0.42575873018503185
1738005706511764200,5.10276416015625,-4.0912352946549655,3.4164383830204605,0.41530894010215996
1738005706521833200,5.112833251953125,-4.53543393689394,3.07726955652982,0.3247846195682883
1738005706531902000,5.12290185546875,-4.2466772007793185,2.6416099023163317,0.08509199328683316
1738005706541970200,5.13297021484375,-3.113289841198921,2.3413768095500767,-0.1343163351830095
1738005706552039200,5.1430390625,-1.5826918005257844,2.034081231051683,-0.20217172779105602
1738005706562108200,5.153108154296875,-0.12431260836720466,1.8236302621498703,-0.23291553336195647
1738005706572177200,5.16317724609375,1.2247890474706888,1.607927948591113,-0.2139310661025345
1738005706582246100,5.17324609375,2.3460803110659123,1.2634773823052643,0.0695104663386941
1738005706592315000,5.18331494140625,2.9448364778101443,1.1456084701847284,0.25555808473750946
1738005706602383000,5.193383056640625,3.11125921215415,1.214057517836988,0.4461654853325337
1738005706612452000,5.2034521484375,2.949628388261795,1.267133566725254,0.5643342571824789
1738005706622521000,5.21352099609375,2.423608956426382,1.3914368227422236,0.4819267537392676
1738005706632590000,5.223590087890625,1.7990379649460315,1.5561799334362147,0.34007425089776516
1738005706642659000,5.2336591796875,1.2545984948009252,1.6348814219683407,0.24964506130143999
1738005706652728000,5.24372802734375,0.8871914158195257,1.7128027199082076,0.25055676931887866
1738005706662796000,5.253796142578125,0.7742319761157035,1.7839007476992903,0.2806703141622245
1738005706672865300,5.263865234375,0.6551894171059132,1.9196137248724698,0.28653219193294643
1738005706682934000,5.27393408203125,0.43081426000893114,2.104692644369602,0.37673560994938016
1738005706693003300,5.284003173828125,-0.008476736444234847,2.2828499479100106,0.45605318455323574
1738005706703072000,5.294072021484375,-0.5235130019724369,2.3541268393993375,0.4795972878783941
1738005706713141000,5.30414111328125,-0.9283610460758208,2.342350769148767,0.4678980822563171
1738005706723209200,5.314209228515625,-1.2743372144937515,2.3202019195742905,0.45964390252158044
1738005706733278000,5.32427783203125,-1.4788216762065887,2.1563041736632584,0.4484792421676218
1738005706743347200,5.33434716796875,-1.4616805717915295,1.9837091804251075,0.31891309718638655
1738005706753416000,5.344416015625,-1.1396931817263365,1.9736565729662774,0.1018709133259952
1738005706763485000,5.35448486328125,-0.581279546764493,2.0623547009862957,-0.15942542280256747
1738005706773554200,5.36455419921875,0.005597381615638733,2.1067510382041332,-0.39010494074076413
1738005706783623000,5.374622802734375,0.5269710334718227,1.9170500118643043,-0.509080060537532
1738005706793691100,5.384691162109375,0.8457464757531881,1.7043217456802724,-0.6382995109729468
1738005706803760000,5.394760009765625,1.0946984402239321,1.4694240255251525,-0.6738702983088791
1738005706813829000,5.4048291015625,1.2749772659629584,1.3704820052579045,-0.7250581953629851
1738005706823898000,5.414898193359375,1.4471592944860459,1.3611176723241805,-0.6891413710683584
1738005706833966800,5.424966796875,1.5662141284555195,1.3182561434581874,-0.5594210584387183
1738005706844036000,5.4350361328125,1.5989683970659971,1.3009674472659825,-0.46266281195133924
1738005706854104000,5.44510400390625,1.5453952123105525,1.320289987373352,-0.34096535451859233
1738005706864173000,5.455173095703125,1.366877551025152,1.3460454831376671,-0.26391090254113075
1738005706874242000,5.465241943359375,1.0579700072854756,1.359921156015992,-0.18555267448872326
1738005706884311000,5.47531103515625,0.6966939784049987,1.351955583964288,-0.06072685590237379
1738005706894380000,5.485380126953125,0.41910219490528106,1.3381167359650135,0.09627133975327014
1738005706904449000,5.495448974609375,0.24448504818975925,1.3471928996071219,0.2545747727885842
1738005706914517200,5.505517333984375,0.10958616387844085,1.370911921107769,0.33085736361071466
1738005706924586000,5.5155859375,-0.07040624613463878,1.4259588316775857,0.3453079137675464
1738005706934655000,5.525655029296875,-0.25045944642424584,1.4689585999704897,0.36679479230195283
1738005706944724000,5.535723876953125,-0.39755204187631604,1.480406315049529,0.3447179850503802
1738005706954793000,5.54579296875,-0.421830743086338,1.4094339594647287,0.28807511052601037
1738005706964862200,5.5558623046875,-0.27685996209383007,1.2019446168474852,0.18641477121077477
1738005706974931000,5.565930908203125,0.12081249129176139,0.867513194142282,0.08761866222023963
1738005706984999200,5.575999267578125,0.7465589562922715,0.48416240383684633,-0.013697978223860263
1738005706995068200,5.586068115234375,1.4004875596821307,0.2597073133714497,0.015174334386736153
1738005707005137000,5.596136962890625,1.7011685423463583,0.2793842198744416,0.13495083369426428
1738005707015206100,5.6062060546875,1.488944426292181,0.42299613360390065,0.16723485444448888
1738005707025275000,5.61627490234375,0.9634194999754429,0.4578562884524464,0.1288272362474352
1738005707035343000,5.626343017578125,0.4186462678313255,0.41960853699222206,0.0828995978090912
1738005707045412000,5.636412109375,0.07549100205302238,0.32540143629238005,0.11236351963728666
1738005707055480800,5.646480712890625,-0.05018997205793857,0.19840543406009672,0.22226437548808753
1738005707065550000,5.656550048828125,-0.052257425981760024,0.20003858821988105,0.23443755529746413
1738005707075619000,5.666619140625,-0.037222353935241696,0.2654744985960424,0.19387385504506527
1738005707085688000,5.67668798828125,-0.1107429326981306,0.3315719416208565,0.14560761759132146
1738005707095757000,5.686757080078125,-0.23081249666810033,0.3098245124541223,0.12922507645860315
1738005707105825000,5.696824951171875,-0.39209786812365055,0.24332243415117263,0.10185279314741491
1738005707115894000,5.70689404296875,-0.5798381157845258,0.16564437038265167,0.03817264039739966
1738005707125963000,5.716962890625,-0.7638584661394358,0.14992679596468805,-0.004492635244131088
1738005707136032000,5.727031982421875,-0.9219617004275321,0.18329766210354864,-0.07895195616185664
1738005707146101000,5.73710107421875,-0.9721522570073604,0.2570645437777042,-0.18526742780655622
1738005707156170200,5.747170166015625,-0.9156319128841162,0.32887035451196134,-0.33973727402836085
1738005707166238000,5.757238037109375,-0.7481517784416675,0.35668972400352356,-0.5025441559627651
1738005707176307000,5.767306884765625,-0.4750210660040378,0.36967794652283187,-0.6738003018125891
1738005707186376200,5.777376220703125,-0.1926075614362955,0.39124790023081,-0.8037893483810127
1738005707196445000,5.78744482421875,0.04192483253777027,0.38681547074131667,-0.8910410769850015
1738005707206514200,5.79751416015625,0.16657587907910346,0.3284308671161532,-1.059364676514268
1738005707216583000,5.8075830078125,0.20804946071803568,0.3298098273191601,-1.2276922215662895
1738005707226651000,5.81765087890625,0.32058512205183504,0.381310297453776,-1.373325850381702
1738005707236720000,5.82772021484375,0.40151217767894265,0.39000988286845384,-1.5291738530889152
1738005707246788900,5.837788818359375,0.44816228517293927,0.3252105898953974,-1.6478462636120617
1738005707256858000,5.847858154296875,0.373642758500576,0.28605018056966364,-1.7468102034501731
1738005707266927000,5.857927001953125,0.22632862925231456,0.36437399489581584,-1.7949894202075898
1738005707276996000,5.86799609375,0.04819616789221763,0.40155652827732263,-1.8531535860151052
1738005707287064000,5.87806396484375,-0.11857143436670303,0.41896169045604764,-2.0286539453059436
1738005707297133000,5.888133056640625,-0.15829028129279613,0.5928511804841459,-2.2527140451043843
1738005707307202000,5.8982021484375,-0.29214988568425176,0.8751840940963477,-2.507163437947631
1738005707317271000,5.90827099609375,-0.4943593882024288,1.1115746100924908,-2.7984049766153096
1738005707327340000,5.918340087890625,-0.6603261954724788,1.2135285255268216,-2.9666169324636456
1738005707337409000,5.928408935546875,-0.788750330811739,1.2520011717841029,-2.97934723469913
1738005707347477000,5.93847705078125,-0.9624591305106878,1.3686919069707393,-2.9868431434124707
1738005707357546000,5.9485458984375,-0.9552946457087993,1.396784905771911,-2.9381773121818897
1738005707367615000,5.958614990234375,-0.7169646130174397,1.3971440944731235,-2.9557722978442906
1738005707377684200,5.968684326171875,-0.4320423404991626,1.5180449947007,-2.97444134247899
1738005707387753000,5.9787529296875,-0.14206921433210373,1.5913650824554264,-2.8991750890925525
1738005707397822200,5.988822265625,0.027549101182818413,1.6987155962362885,-2.763619786699116
1738005707407890200,5.99889013671875,-0.0056564183264970775,1.862463120021671,-2.547810797895491
1738005707417959000,6.008958984375,-0.23267302984297275,1.9914353907629847,-2.3130656379535792
1738005707428028200,6.019028076171875,-0.4321189128667116,2.088578106523305,-2.090180719414353
1738005707438097000,6.029096923828125,-0.7024597023248672,2.1556436639279126,-1.8863227190367877
1738005707448166100,6.039166259765625,-0.8043149796903133,2.206163598592579,-1.6723977904140948
1738005707458235100,6.049235107421875,-0.7309884621948003,2.310988101027161,-1.5084937608927487
1738005707468302800,6.059302734375,-0.5436293228060006,2.337828469418734,-1.3815876289010047
1738005707478372000,6.0693720703125,-0.34833062258958813,2.322297576679289,-1.217316008176282
1738005707488441000,6.079441162109375,-0.21275310836434363,2.3316519727408886,-1.0435380156986416
1738005707498510000,6.089510009765625,-0.24836744258105753,2.412894085666537,-0.8336218843258917
1738005707508579000,6.0995791015625,-0.32818858279287816,2.4708394941568375,-0.6284278861042112
1738005707518648000,6.10964794921875,-0.4249450757145881,2.523865566423535,-0.2911689848881215
1738005707528716000,6.119716064453125,-0.5285580104023218,2.570591661763191,-0.01883888477627188
1738005707538785000,6.129784912109375,-0.5515022481381893,2.469159870506823,0.24450557952113447
1738005707548854000,6.13985400390625,-0.4326864836215973,2.3096853478655217,0.458626578705199
1738005707558926800,6.1499267578125,-0.15640695176422595,2.1473671262308955,0.5625706815760583
1738005707568995800,6.159995849609375,0.16458792013227938,1.9921791948676109,0.6727233202308416
1738005707579064800,6.17006494140625,0.38266134673655033,1.8484844251602888,0.777377945991233
1738005707589132800,6.1801328125,0.533846764460206,1.7324411940969526,0.8866481757882982
1738005707599201800,6.190201904296875,0.6400304264187813,1.745491814327985,1.058585289639607
1738005707609270800,6.200270751953125,0.6554185496866702,1.630805843092501,1.1038179315511136
1738005707619339800,6.21033984375,0.585242605176568,1.6049787433966993,1.108696351242438
1738005707629408800,6.22040869140625,0.3518313241869211,1.7174387091457843,1.1199774775829165
1738005707639476700,6.230476806640625,0.12722820355296136,1.8927121278129517,1.101424241347611
1738005707649545700,6.240545654296875,-0.009945055431127548,1.9943322812482713,1.1140811860859394
1738005707659614700,6.25061474609375,-0.12779460526406763,1.986291013611853,1.1122067705161869
1738005707669683700,6.26068359375,-0.23073358621299264,1.9576865581572054,1.1867663369379937
1738005707679752700,6.270752685546875,-0.28246026631891724,1.9172551790475845,1.2630673401996493
1738005707689821700,6.28082177734375,-0.305353650650382,1.8025290219321846,1.2939274656265973
1738005707699889700,6.2908896484375,-0.29243980854153634,1.5642387367293238,1.287421444733441
1738005707709959000,6.300958984375,-0.26157880633175373,1.3207745560199022,1.2916099824644625
1738005707720027600,6.311027587890625,-0.2502759065508842,1.1921582591094075,1.284988518498093
1738005707730097000,6.321096923828125,-0.24538287381231783,1.1328911735612899,1.2551213496312499
1738005707740165600,6.33116552734375,-0.35636955213844773,1.135696659436077,1.2592783231802285
1738005707750235000,6.34123486328125,-0.5810562594026327,1.1595727711945771,1.2581874592036009
1738005707760302800,6.351302734375,-0.8698550810933112,1.1446525576993822,1.1964903700295835
1738005707770371600,6.36137158203125,-1.0535708955436944,1.0648451537519692,1.1270219162017105
1738005707780440800,6.37144091796875,-0.9695195704162121,0.9733112177841364,1.107073060889542
1738005707790509800,6.381509765625,-0.6256897663772106,0.7873305271416902,1.137028930953145
1738005707800578800,6.391578857421875,-0.10179916326403617,0.5302271857235581,1.174238571537286
1738005707810647800,6.401647705078125,0.4707651621252298,0.21176910229567436,1.2268611775696276
1738005707820715800,6.4117158203125,0.9658540336459874,-0.05670899856314063,1.2776473619550466
1738005707830784800,6.42178466796875,1.17239893501997,-0.1975850210553035,1.3607707585826516
1738005707840853800,6.431853759765625,1.1073416486978531,-0.2546664696600288,1.5196031839281319
1738005707850922800,6.4419228515625,0.7815525282621383,-0.24337376247961073,1.6616133615493773
1738005707860991700,6.45199169921875,0.2723030294418335,-0.14094664004296065,1.6748923837088048
1738005707871060700,6.462060791015625,-0.24257950682938098,0.07051025449838488,1.586645360457152
1738005707881128700,6.472128662109375,-0.7523521527409553,0.328806130169332,1.5323064520262182
1738005707891197700,6.48219775390625,-1.213050094360113,0.5218453610211611,1.4604013456359506
1738005707901266700,6.4922666015625,-1.5095517455130814,0.5410629063840955,1.3734598520249128
1738005707911335700,6.502335693359375,-1.5137380912870169,0.4804822540193796,1.321212947437167
1738005707921405000,6.512405029296875,-1.2399649892926214,0.37254071554280815,1.2697348352648317
1738005707931473700,6.5224736328125,-0.7582955713152885,0.1636118781743571,1.1533714323364197
1738005707941541600,6.532541748046875,-0.214544667956233,-0.08917414803393185,1.077017310648039
1738005707951611000,6.54261083984375,0.22218378453254697,-0.29834848459605123,1.032324547766894
1738005707961679600,6.5526796875,0.5584592276692391,-0.4217867943467572,1.0610469305127859
1738005707971748900,6.562748779296875,0.7410556827008724,-0.49904487913753837,1.0556088311120868
1738005707981817600,6.572817626953125,0.7365215464025735,-0.5228257503606378,1.046738784501329
1738005707991886800,6.582886962890625,0.5712462285280228,-0.48940929151438173,1.0652814262773842
1738005708001954800,6.592954833984375,0.3076145813196897,-0.43491406001057475,1.1160242099124937
1738005708012023800,6.60302392578125,0.038809330865740774,-0.37306853880919516,1.1905715013746172
1738005708022092800,6.6130927734375,-0.18671382722258567,-0.31013222669642415,1.2020287149343638
1738005708032161800,6.623161865234375,-0.2652051801353693,-0.34768238781392574,1.1763227574001998
1738005708042230800,6.633230712890625,-0.18934592929184435,-0.2825498808311298,1.1391806290943174
1738005708052299800,6.6432998046875,-0.08372750000059605,-0.26433011433389036,1.1618556944999843
1738005708062367700,6.65336767578125,-0.0023100305080413818,-0.36662294286638497,1.1730327759440988
1738005708072436700,6.663436767578125,0.12143442258238792,-0.43003794187419114,1.1881313416808843
1738005708082505700,6.673505615234375,0.2169406231820583,-0.42937016214784235,1.0888058750540017
1738005708092574700,6.68357470703125,0.2868997100710869,-0.47765999967288225,1.0906353555034844
1738005708102643700,6.693643798828125,0.3306587722986936,-0.5563152379104868,1.0423829273793845
1738005708112713000,6.703712890625,0.30192426072359085,-0.6325445276428013,0.988093703309074
1738005708122780700,6.71378076171875,0.2958487402021885,-0.6659130556941032,0.9893756328783929
1738005708132849700,6.723849609375,0.24906068554222582,-0.6460056283708662,1.0363871210306883
1738005708142919000,6.7339189453125,0.2521995680898428,-0.553440851517953,0.9949486107051372
1738005708152987600,6.743987548828125,0.22205518971681593,-0.5369716915477067,0.9369142087571323
1738005708163057000,6.754056884765625,0.1597463253200054,-0.5364109523924068,0.976222282925248
1738005708173125600,6.764125732421875,0.05745499462485313,-0.5737813730288297,1.0095718870803714
1738005708183193600,6.774193603515625,0.09548983398675918,-0.6024258317003026,1.0455981630988418
1738005708193262800,6.784262939453125,0.14661211845874786,-0.5789268461585044,1.0402136935815214
1738005708203331600,6.79433154296875,0.2114297508060932,-0.4730073150288313,0.9409957789823412
1738005708213400800,6.80440087890625,0.2198690778493881,-0.2960894170902669,0.8233139869317412
1738005708223469800,6.8144697265625,0.10058978747427463,-0.13615421813465653,0.6847687820073217
1738005708233538800,6.824538818359375,-0.08661036196053028,-0.07003920292053371,0.5509628074992448
1738005708243606800,6.834606689453125,-0.20655074659287928,-0.01794083995800465,0.4330667881760746
1738005708253675800,6.84467578125,-0.20185645129680632,0.012384630602970719,0.28113952084286137
1738005708263744800,6.854744873046875,-0.036276012995839116,0.03273117999583482,0.11294561210786923
1738005708273813800,6.864813720703125,0.2404208674907684,0.04205094313547015,-0.04064112200331874
1738005708283882800,6.8748828125,0.47867198972702024,-0.03502075223773718,-0.1833176819782704
1738005708293951700,6.88495166015625,0.6709171475917101,-0.14690364875122905,-0.2295552996812388
1738005708304021000,6.89502099609375,0.8105196795493363,-0.2082811505820602,-0.2449229281503707
1738005708314088700,6.905088623046875,0.8548486506193875,-0.2515777098644525,-0.23758622858673334
1738005708324157700,6.91515771484375,0.8445330083101987,-0.2953918632801622,-0.18976536028031257
1738005708334227000,6.92522705078125,0.7010474974393844,-0.3138252725280821,-0.16903872552867977
1738005708344295700,6.935295654296875,0.4869055650651455,-0.3405797892671078,-0.20025252323150633
1738005708354365000,6.945364990234375,0.26396833181679247,-0.3623673312485218,-0.22961651008287443
1738005708364433700,6.95543359375,0.09670271690785884,-0.4159929037783295,-0.29480461971042676
1738005708374501600,6.965501708984375,0.0013829787909984588,-0.4601005602478981,-0.3113515393583104
1738005708384571000,6.97557080078125,-0.023901684591174123,-0.4393749484095722,-0.2776810692183673
1738005708394639600,6.9856396484375,-0.0009141922354698181,-0.4461824364673346,-0.24199229979226364
1738005708404708900,6.995708984375,0.018182137900590895,-0.4944260967630893,-0.2208331371085718
1738005708414777900,7.00577783203125,0.01979015761911869,-0.5257898243306205,-0.17011643776278942
1738005708424846800,7.015846923828125,-0.02577098559439182,-0.5672413037355989,-0.1711133033130318
1738005708434914800,7.025914794921875,-0.03523088785707951,-0.5763708050001413,-0.16442412613900378
1738005708444983800,7.03598388671875,-0.0045639469146728515,-0.5983580342721194,-0.18267679025884717
1738005708455052800,7.046052734375,0.05843289974629878,-0.6684254769064486,-0.17898087661666795
1738005708465121800,7.056121826171875,0.11154723481833934,-0.7136059502393007,-0.15107315298821777
1738005708475190800,7.066190673828125,0.1176794539630413,-0.7448495220258832,-0.09009171953657641
1738005708485259800,7.076259765625,0.1266769994109869,-0.7425287509281188,-0.014472579325549304
1738005708495327700,7.08632763671875,0.17186112600564957,-0.7341269794162363,0.05445827876059338
1738005708505396700,7.096396728515625,0.1801461392700672,-0.6407223542056978,0.12878535160077734
1738005708515465700,7.1064658203125,0.11127601666152477,-0.5804007546359673,0.15465619910676032
1738005708525535000,7.116534912109375,-0.005949848315119743,-0.5566371633412316,0.14561947242589668
1738005708535603700,7.126603759765625,-0.10831424424648284,-0.49182910253982987,0.13877963473480193
1738005708545672700,7.136672607421875,-0.16790566637814044,-0.4688310522574931,0.08689475012617186
1738005708555741000,7.146740966796875,-0.15433014549016952,-0.4891873193267733,0.028440679727680978
1738005708565806600,7.156806640625,-0.08778583548069,-0.48953452532924707,0.019693053920194506
1738005708575875600,7.16687548828125,-0.005720715734362602,-0.4356389767516404,0.03290149506144226
1738005708585944300,7.1769443359375,0.15024609104692935,-0.42386235851179804,0.04066986404061317
1738005708596013600,7.187013671875,0.11443535747528076,-0.38941593556329607,0.16683215539511292
1738005708606082600,7.19708251953125,0.017801029628515243,-0.4160061285860836,0.2657223724098876
1738005708616150500,7.207150634765625,-0.1975654761046171,-0.3964129183111712,0.34316889244485643
1738005708626219500,7.217219482421875,-0.37486324020624157,-0.45656339909769594,0.33159992560632523
1738005708636288800,7.227288818359375,-0.5217249495118856,-0.358617842521891,0.4061806444140151
1738005708646357500,7.237357421875,-0.6211293265938759,-0.15547219166476278,0.4567787588814273
1738005708656426500,7.247426513671875,-0.6632979047596455,0.04008530561830848,0.5381519873734564
1738005708666495500,7.25749560546875,-0.7583148605376482,0.21247655644528565,0.5473329630969092
1738005708676563500,7.2675634765625,-0.858646873858571,0.36570896982662376,0.5401383754177018
1738005708686632700,7.2776328125,-0.8306254789888858,0.42310668130628765,0.5744121086804196
1738005708696701400,7.287701416015625,-0.6675590693354606,0.31648280129954215,0.5056941809589043
1738005708706770400,7.2977705078125,-0.2726584187507629,-0.04451411837860941,0.46407530909776684
1738005708716839400,7.30783935546875,0.44462709678411483,-0.49385848947558547,0.5053010534554719
1738005708726908400,7.317908447265625,1.2592337533861397,-0.846706772152707,0.5620681388814002
1738005708736976600,7.3279765625,1.9322405667334794,-1.0954456053294241,0.6702162327807396
1738005708747045600,7.338045654296875,2.3842174417585134,-1.297408293479681,0.7998100694864988
1738005708757114400,7.3481142578125,2.348428920018673,-1.3032353921979665,0.9898927886202931
1738005708767183600,7.35818359375,1.692347522509098,-1.0184577888473867,1.0743548134405165
1738005708777252400,7.36825244140625,0.6607160715728998,-0.7883803284555673,0.8939045035921037
1738005708787321600,7.378321533203125,-0.3875122938990593,-0.6924467692892998,0.8527606653641909
1738005708797390300,7.388390380859375,-1.232375557076931,-0.7198151801429689,0.8213528429266065
1738005708807458600,7.39845849609375,-1.7245844892472029,-0.6880811944909393,0.6476535417083651
1738005708817527600,7.408527587890625,-1.8439175556361673,-0.6322531434807926,0.5290958436060696
1738005708827596500,7.418596435546875,-1.6955583012491464,-0.6487908751752227,0.47176958992742
1738005708837665500,7.42866552734375,-1.2337567823022604,-0.7908961106687784,0.44792394637241956
1738005708847734500,7.438734619140625,-0.5952607258439063,-1.0012279832355677,0.40905353296920655
1738005708857803500,7.448803466796875,0.05451192691028118,-1.2306488794147967,0.3516706537324935
1738005708867871500,7.45887158203125,0.5706283888906241,-1.3570897319823503,0.32376075641326607
1738005708877940500,7.4689404296875,0.8783101902276277,-1.4784000897936522,0.21533954466097055
1738005708888009500,7.479009521484375,1.0846832421660422,-1.591743121987581,0.09588299802280961
1738005708898078500,7.489078369140625,1.2292121246099472,-1.6459944982655346,0.0780246852491051
1738005708908147500,7.4991474609375,1.2271095993727446,-1.6405128519840537,0.13862718411944805
1738005708918216400,7.509216552734375,1.1302777031272648,-1.540758200159669,0.14263123212903736
1738005708928284400,7.519284423828125,0.9903601138710975,-1.393161454577744,0.13726561344265936
1738005708938353700,7.529353759765625,0.7880220165371894,-1.2926184288546443,0.1939233932752162
1738005708948422400,7.53942236328125,0.5268301636964082,-1.1817655329760164,0.252919479862228
1738005708958491600,7.54949169921875,0.28481939666569234,-1.0707992398507893,0.24520342559218405
1738005708968560400,7.559560302734375,0.10501637174487113,-0.970415788603574,0.19518040759898722
1738005708978629600,7.569629638671875,0.007476619490981102,-0.917928937780112,0.18553696546293794
1738005708988697600,7.579697509765625,0.08679857800900935,-0.9599592765189706,0.21613332538716493
1738005708998766300,7.589766357421875,0.33951369440555573,-1.0645770043350755,0.21852073198035357
1738005709008835600,7.599835693359375,0.7023878061324358,-1.1928655305959284,0.18340441041365266
1738005709018904300,7.609904296875,1.0398048205196857,-1.3087924418032169,0.1549525151722133
1738005709028973600,7.6199736328125,1.2904945685684681,-1.4392305473133922,0.1444265911132097
1738005709039042600,7.63004248046875,1.4424001172602177,-1.4642755567207932,0.16200557548888025
1738005709049110500,7.640110595703125,1.4337632218182086,-1.4504966222152114,0.11360526332668959
1738005709059179500,7.650179443359375,1.3015198204517364,-1.4054855140998959,0.07176270224489271
1738005709069248500,7.66024853515625,1.1047487095952033,-1.3539908891841768,0.07772983048837631
1738005709079317500,7.6703173828125,0.9371522552967071,-1.3516275210537017,0.08182199517283588
1738005709089386500,7.680386474609375,0.8477087157368659,-1.342644150261581,0.10376648128163068
1738005709099455500,7.69045556640625,0.8422130409300327,-1.332885118921846,0.14893299915436656
1738005709109523500,7.7005234375,0.9297335034728049,-1.3779096710406242,0.2282832339188084
1738005709119592400,7.710592529296875,1.0442851808041334,-1.4682923911467194,0.3088999814877286
1738005709129661400,7.720661376953125,1.053793598383665,-1.5665385381042956,0.32230463932082054
1738005709139730400,7.73073046875,1.0035510193556547,-1.625759373357892,0.3526571074865758
1738005709149799700,7.740799560546875,0.9883294848263263,-1.6265543231278656,0.39228206558413803
1738005709159868400,7.750868408203125,0.937648514381051,-1.6557734033495186,0.4450054651098326
1738005709169937700,7.760937744140625,0.8719833252936601,-1.7123875632360577,0.4988319305066019
1738005709180005600,7.771005615234375,0.697993370565772,-1.739609478291124,0.4843971259081736
1738005709190074400,7.781074462890625,0.4143944556057453,-1.862441638842225,0.4133408914322033
1738005709200143600,7.7911435546875,0.18881869054734707,-2.150203226439655,0.2935961024371907
1738005709210212400,7.80121240234375,0.17064181334376335,-2.4487355066373944,0.25554164505936205
1738005709220281600,7.811281494140625,0.029031448695063588,-2.5302146431893107,0.27477142884936184
1738005709230350600,7.8213505859375,-0.390752298733592,-2.365831013457477,0.3017899668194353
1738005709240418600,7.83141845703125,-0.8325970713227987,-1.9965552179947494,0.4202698139125481
1738005709250487600,7.841487548828125,-1.406791043740511,-1.308816407200694,0.6922149332948029
1738005709260556500,7.851556640625,-2.191193700736761,-0.3354451297923922,0.9633944385994225
1738005709270625500,7.86162548828125,-3.4895337221086025,0.7204669951152056,1.0129481585804372
1738005709280694500,7.871694580078125,-4.946339965862036,1.5749715815372765,0.9089693131897598
1738005709290763500,7.881763427734375,-6.115416478461027,2.126357802080363,0.6973023926269263
1738005709300831500,7.89183154296875,-6.630714025273918,2.545025843352079,0.5210245461575687
1738005709310900500,7.901900390625,-6.629908554109931,2.9032091669142246,0.27364026939496394
1738005709320969500,7.911969482421875,-5.993401041120291,3.121165689140558,0.12031451517436653
1738005709331038500,7.92203857421875,-4.970915019670128,3.198509625583887,-0.10195859160944819
1738005709341107700,7.932107666015625,-3.9184611454576252,3.0637101099938153,-0.358948828041926
1738005709351176400,7.942176513671875,-2.9825854859679937,2.658561037117243,-0.5654847423918545
1738005709361244400,7.952244384765625,-2.1195447610646485,2.219382414997369,-0.7003558619134128
1738005709371313700,7.962313720703125,-1.3425479964107274,1.8643902886919677,-0.802589324941486
1738005709381382400,7.97238232421875,-0.5475087945878505,1.608749347976595,-0.8754843922171741
1738005709391451600,7.98245166015625,0.21013971099555492,1.3703184852592647,-0.9294697379700839
1738005709401520400,7.992520263671875,0.7438695710778236,1.163597058274597,-0.9666836894031613
1738005709411589600,8.002589599609376,1.0916156717777252,1.0556509897533803,-1.0391958948411046
1738005709421657600,8.01265771484375,1.23799105887115,0.9823055483616888,-1.1085356077227742
1738005709431726300,8.022726318359375,1.1620037977337836,0.9150782245241105,-1.127670150977373
1738005709441795600,8.032795654296875,0.9723960026353597,0.8723172334231436,-1.1719024567399172
1738005709451864600,8.042864501953124,0.9023217649340629,0.9301216260075569,-1.1747929905496537
1738005709461933600,8.05293359375,0.8736082961469889,0.9924309287957847,-1.1529926621519029
1738005709472002600,8.06300244140625,0.8562661162018775,0.9937086936466395,-1.1760294004768133
1738005709482071600,8.073071533203125,0.826415752339363,0.9365442794661969,-1.1015912684775888
1738005709492139500,8.083139404296874,0.7187783844411373,0.9291525617796927,-0.9002936201073228
1738005709502208500,8.09320849609375,0.8328373098194599,0.994685502789542,-0.7522494230188429
1738005709512277500,8.103277587890625,0.8527613229513168,0.9806417798679321,-0.5703719299115241
1738005709522346500,8.113346435546875,0.7992319773375988,0.9476114707950503,-0.4844553589014336
1738005709532415700,8.123415771484375,0.724765642157197,0.9078394323769956,-0.40162005850020793
1738005709542484500,8.133484375,0.6640747343510389,0.8496033703770488,-0.3963546487852931
1738005709552552400,8.143552490234375,0.6315636268466711,0.832195504784584,-0.4214992461096495
1738005709562621000,8.153620849609375,0.5997381635189056,0.8523671360019593,-0.4437837778277695
1738005709572690000,8.16368994140625,0.6096919867783784,0.8333224629878997,-0.4148765400342643
1738005709582759000,8.173759033203124,0.7243693363159894,0.7382482240647077,-0.38585524740703403
1738005709592828200,8.183828125,0.9797761760145425,0.5802931660756468,-0.3527505944563076
1738005709602897000,8.19389697265625,1.2578309008508919,0.36275793800130485,-0.4229524040600285
1738005709612964900,8.20396484375,1.584744056880474,0.11905519929565489,-0.4449786136355251
1738005709623034000,8.2140341796875,1.8595447483569383,-0.15332126070857047,-0.43899639742076396
1738005709633102800,8.224102783203126,1.9148931260913609,-0.36574250677004455,-0.46287776987627144
1738005709643172000,8.234172119140625,1.7782529510706662,-0.35045258317962286,-0.4627549472142011
1738005709653240800,8.24424072265625,1.3926257402658462,-0.09840294495448469,-0.4561083488065749
1738005709663310000,8.25431005859375,0.726714438137412,0.27113040546588596,-0.4542822658905759
1738005709673379000,8.264379150390624,-0.024072949504852295,0.5404727584712207,-0.41920218468103554
1738005709683446800,8.27444677734375,-0.6354927829891442,0.5574081842463463,-0.36394824376441537
1738005709693516000,8.28451611328125,-1.2109341251194476,0.5618802881591022,-0.3601685425626114
1738005709703585000,8.2945849609375,-1.3991408212482928,0.4579780882012099,-0.3090043186450377
1738005709713654000,8.304654052734374,-1.1360270604342222,0.21603074179552495,-0.2788847824523225
1738005709723723000,8.314722900390626,-0.38881636223495003,-0.06446187771223486,-0.32462223208080976
1738005709733791700,8.324791748046875,0.6334709217727184,-0.33567484689503907,-0.31718123189248143
1738005709743860000,8.33485986328125,1.4541215347141028,-0.5673694601599126,-0.287970663770847
1738005709753929000,8.344928955078124,1.9177455929130314,-0.7709440404862165,-0.21732169492151587
1738005709763998000,8.354998046875,2.08587863830626,-0.8993081162013113,-0.135594319229573
1738005709774067000,8.36506689453125,2.0451696112990376,-1.016745139710605,-0.08438691375739872
1738005709784136000,8.375135986328125,1.8497136746942995,-1.127458700183779,-0.05094842574242502
1738005709794205000,8.385204833984375,1.575935896524787,-1.1188761652775108,-0.030703546625748274
1738005709804273000,8.39527294921875,1.313590781995654,-1.1051250686269254,0.015906338455714285
1738005709814342100,8.405342041015626,1.0832593468427658,-1.1118106108054517,0.08660396875236183
1738005709824411000,8.415410888671875,0.9391858069509267,-1.0608659479226916,0.1351022248636931
1738005709834480000,8.425480224609375,0.8720639893144368,-1.0099289568897336,0.20867380316145717
1738005709844548900,8.435548828125,0.8551718912243843,-0.9706584382530301,0.2987820902403444
1738005709854617900,8.445617919921874,0.8091840470314026,-0.9251906724113971,0.4025756787246093
1738005709864686800,8.455686767578126,0.7027285823941231,-0.8846969686552881,0.5084290858155116
1738005709874754800,8.4657548828125,0.5895622219413519,-0.8867169301755726,0.5533670921619981
1738005709884824000,8.475823974609375,0.5962006370425224,-0.9195900028601288,0.539836542926915
1738005709894893000,8.48589306640625,0.7340507723748684,-0.9420788249786942,0.5119313948480412
1738005709904961800,8.4959619140625,0.9064069884210825,-0.9819189601968973,0.5127693435095251
1738005709915031000,8.506031005859375,1.0170365238726138,-1.0354919988218694,0.4885077395647764
1738005709925099800,8.516099853515625,1.1002496446102856,-1.1048412832494825,0.4250683733006939
1738005709935168000,8.52616796875,1.1661556567162275,-1.1578125565890223,0.38121976962611076
1738005709945237000,8.536237060546876,1.1653542772054672,-1.1676181304842232,0.3766287155088037
1738005709955306000,8.546305908203125,1.0911468852221966,-1.1679591990068554,0.4055190752327442
1738005709965375000,8.556375,1.0096978515475987,-1.1753387147989123,0.36868184815756977
1738005709975444000,8.56644384765625,0.9402069666922092,-1.1593404237434268,0.30145306301526725
1738005709985513000,8.576512939453124,0.893940305557847,-1.1550737792748957,0.24516009790711105
1738005709995581000,8.586580810546875,0.8565630533218384,-1.2177522807016967,0.17011727801300583
1738005710005650000,8.59664990234375,0.8498673550754785,-1.2468275685384869,0.08860058592967689
1738005710015719000,8.606718994140625,0.8220832760930061,-1.244272331097722,0.004420812116935849
1738005710025788000,8.616787841796874,0.7359153972029685,-1.2651277798607945,-0.058891603299230336
1738005710035857000,8.62685693359375,0.6870201411306858,-1.29293860071972,-0.13923757110275328
1738005710045926000,8.63692578125,0.6362900708466768,-1.4010301421262323,-0.25643150657117364
1738005710055995000,8.646994873046875,0.5950725097954273,-1.4373688450947404,-0.2833548770710826
1738005710066062800,8.657062744140624,0.5508300479650498,-1.4989236762538551,-0.374889032234624
1738005710076132000,8.667132080078124,0.5568780959576368,-1.5748694363370537,-0.44772586651705204
1738005710086200800,8.677200927734376,0.572027149772644,-1.6125750437445938,-0.5075292508989572
1738005710096269800,8.687269775390625,0.4873363576978445,-1.626411992047727,-0.5808987307533622
1738005710106339000,8.697339111328125,0.3448953874439001,-1.6876856681779027,-0.6888385156642646
1738005710116407800,8.70740771484375,0.13323065883815288,-1.7575825034856796,-0.7851902271773665
1738005710126476000,8.71747607421875,-0.07235504211485386,-1.7172630603179335,-0.757785941292718
1738005710136545000,8.727544921875,-0.34158231737315653,-1.6514121394000947,-0.6346402578130365
1738005710146613800,8.73761376953125,-0.8004483673900366,-1.9071764142341912,-0.681076503360644
1738005710156683000,8.74768310546875,-1.1573732153236864,-2.8481153484627604,-1.082490700557828
1738005710166751700,8.757751708984374,-1.0404407803356648,-3.6003280927330255,-1.1871101088743656
1738005710176821000,8.767821044921876,-0.8888426901578903,-3.062409256528318,-0.5635812468580901
1738005710186889000,8.777888916015625,-1.0401625479161738,-1.7045210676446556,0.058713543318584555
1738005710196958000,8.7879580078125,-1.8049597562104462,-0.5706817995782941,0.43004736728966236
1738005710207027000,8.79802685546875,-3.1874282595992085,0.1991916160017252,0.3944544411871582
1738005710217096000,8.808095947265626,-4.836013797271251,0.5646328748028725,0.05901296465657651
1738005710227165000,8.8181650390625,-6.198187700650095,1.0685958845876156,-0.22499942647516727
1738005710237234000,8.82823388671875,-6.948636650118232,1.8038577863179146,-0.45870216469205916
1738005710247303000,8.838302978515625,-6.894638517948985,2.4275407429173588,-0.6447812011424452
1738005710257371000,8.848370849609376,-6.257884921243787,2.8694644259616733,-0.922370281228423
1738005710267439900,8.85843994140625,-5.367224368008971,3.1889883485227823,-1.160769725894183
1738005710277508900,8.8685087890625,-4.350239866584539,3.2358687576413154,-1.1935999823503196
1738005710287577900,8.878577880859375,-3.3512744214534758,2.9966683718562126,-0.9501944730255752
1738005710297647000,8.888647216796874,-2.5412802270829675,2.5544977283135055,-0.623652050004527
1738005710307715800,8.8987158203125,-1.6457044292777776,2.0323272269912063,-0.3278914264772087
1738005710317783800,8.90878369140625,-0.6410410647660494,1.5656241997383533,-0.10112235998101532
1738005710327853000,8.91885302734375,0.413798243278265,1.1943908404670656,0.03014759324342012
1738005710337921800,8.928921875,1.5694237381517886,0.9469812831327319,0.13334909758605062
1738005710347991000,8.938990966796876,2.5510136855900285,0.9058274349674582,0.15546872106604276
1738005710358059800,8.949059814453125,3.2118998530328273,0.8174912721276283,0.3239364052411169
1738005710368129000,8.95912890625,3.5253497163772582,0.7530111281063407,0.49837972975969314
1738005710378197000,8.969197021484375,3.553235502168536,0.5860142471361905,0.5851816687695681
1738005710388265700,8.979265625,3.1425603593468665,0.5407513562168925,0.7120285448547452
1738005710398335000,8.9893349609375,2.799211616823077,0.7501285584073514,0.6490470418933778
1738005710408404000,8.999404052734375,2.3234049533993004,1.1765539358075707,0.5663568490512669
1738005710418473000,9.009472900390625,1.6702426582068204,1.5275404066681861,0.5945232053495944
1738005710428542000,9.0195419921875,1.083081652188301,1.7511384419128297,0.7065659685999155
1738005710438611000,9.02961083984375,0.552118334209919,1.7953791501775382,0.8843567769154905
1738005710448679000,9.039678955078125,0.02552490187883377,1.7318239389814436,1.121330645757541
1738005710458748000,9.049747802734375,-0.5551911657840013,1.7940651449695229,1.4505113813929258
1738005710468817000,9.05981689453125,-1.091237486115098,1.9071546407938003,1.6216744421318172
1738005710478886000,9.069885986328124,-1.5019295800715684,1.8025569328524171,1.7205752536058425
1738005710488955100,9.079955078125,-1.7724416344434022,1.6212115007951855,1.7238669886276126
1738005710499024000,9.09002392578125,-1.7281506572961807,1.352585260169953,1.639819462892413
1738005710509091800,9.100091796875,-1.3596142820239066,1.0074280069194734,1.4137962463274598
1738005710519161000,9.1101611328125,-0.7678115876793861,0.7688905420225113,1.0081942420516163
1738005710529229800,9.120229736328126,-0.048667877057194706,0.7253724489439278,0.6338135977305471
1738005710539299000,9.130299072265625,0.5644570067793131,0.690477295847237,0.3852037977609783
1738005710549367800,9.140367919921875,1.0353221221476792,0.4033298215601593,0.13718462062831968
1738005710559437000,9.15043701171875,1.364056063863635,0.1647851232048124,-0.1213539777573198
1738005710569509000,9.160509033203125,1.556017144089937,0.1319346276782453,-0.19936967598237096
1738005710579577900,9.170577880859375,1.605035149759054,0.12634842504374683,-0.16812920946832746
1738005710589647000,9.180647216796874,1.5496236436605453,0.1207267857696861,-0.1545257045948878
1738005710599715800,9.1907158203125,1.354065415725112,0.1516175985958427,-0.12136698336936533
1738005710609785000,9.20078515625,1.10059626609087,0.2168519950505346,-0.048851709191501134
1738005710619854000,9.21085400390625,0.8071692000776529,0.28839009475931526,0.06340356429833918
1738005710629921800,9.220921875,0.5917220303237438,0.2522857850685716,0.22733057283647357
1738005710639991000,9.230990966796876,0.5152092840075493,0.14948855067789554,0.38958259736709294
1738005710650060000,9.24106005859375,0.5957540623188018,0.043856896578893065,0.4898121732268482
1738005710660129000,9.25112890625,0.7449380770921706,-0.019264380179345605,0.5416324499003589
1738005710670198000,9.261197998046875,0.8635960206985474,-0.050691491839289664,0.6097006084762513
1738005710680267000,9.27126708984375,0.9395651616573333,-0.06951938029751181,0.5914158139187842
1738005710690335000,9.2813349609375,1.0051806663841008,-0.12859408507868647,0.6084830493800342
1738005710700404000,9.291404052734375,0.9702256728589534,-0.21287688087448475,0.5743819692704826
1738005710710473000,9.301472900390625,0.892726253592968,-0.28592151268869637,0.5550421127021312
1738005710720542000,9.3115419921875,0.8218611577749252,-0.3189680422440171,0.539132668973878
1738005710730611200,9.321611083984376,0.758309599840641,-0.3454888232924044,0.512097362532094
1738005710740680000,9.331679931640625,0.6632301002204418,-0.39866804029420017,0.4091476409934461
1738005710750748000,9.341747802734375,0.6632552346616983,-0.4379772104408592,0.31438780178166925
1738005710760817200,9.351817138671874,0.729411422136426,-0.47835050268769264,0.29565321763008834
1738005710770886000,9.361885986328126,0.7196832243263721,-0.4497008929170668,0.2543680712353438
1738005710780955100,9.371955078125,0.6324409942030906,-0.4252200932636857,0.26730324839316305
1738005710791023900,9.38202392578125,0.5752864438295364,-0.44838871433995664,0.2651318226382136
1738005710801093000,9.392093017578125,0.4815788170844316,-0.45717524738572535,0.19322689891103653
1738005710811161000,9.4021611328125,0.3931406551748514,-0.4796931494683027,0.23027448080126195
1738005710821229800,9.412229736328126,0.41645314170122144,-0.5667522781096398,0.2410350903989747
1738005710831299000,9.422299072265625,0.5552279906630516,-0.6416679644927382,0.2505652814188972
1738005710841368000,9.4323681640625,0.7715922752618789,-0.6817565945792943,0.26552564426138997
1738005710851437000,9.44243701171875,1.0402683463782072,-0.7128381807371974,0.201567989744246
1738005710861506000,9.452506103515624,1.2424825250715017,-0.7161320346508174,0.10287267424706369
1738005710871575000,9.462574951171876,1.309374041083455,-0.7200745617315173,0.059253568479418754
1738005710881643000,9.47264306640625,1.2905512671917676,-0.7838670157495886,0.06076265786811709
1738005710891712000,9.4827119140625,1.2713853789508343,-0.8880019284848123,0.03683963822796941
1738005710901781000,9.492781005859374,1.2977210126906633,-0.989204806356132,0.013225721069611607
1738005710911850000,9.50285009765625,1.303446989122033,-1.04323800983876,-0.029656412192992865
1738005710921919200,9.512919189453125,1.2627058134108782,-1.0907522598814219,-0.0969825567625463
1738005710931988000,9.522988037109375,1.1837655476868152,-1.1343858690984547,-0.12540106119103728
1738005710942056000,9.533055908203124,1.1297802749991417,-1.2290583953529595,-0.22560089949965476
1738005710952125200,9.543125244140626,1.154748127517104,-1.346535897003114,-0.3247577680939808
1738005710962194000,9.55319384765625,1.2077397129923104,-1.4456938981086014,-0.3849539877183735
1738005710972263200,9.56326318359375,1.247666649711132,-1.589357980416715,-0.3261091461703181
1738005710982332000,9.573331787109375,1.1821195340454578,-1.7127558120265602,-0.37640948326755314
1738005710992401200,9.583401123046874,1.092953057861328,-1.8585279725298285,-0.3234767883727327
1738005711002469000,9.59346923828125,1.0636287636995314,-1.913835725992918,-0.21648224842268973
1738005711012537900,9.603537841796875,0.8655524154633283,-1.8704948891773818,-0.09001483664177358
1738005711022607000,9.613607177734375,0.5623690945893526,-1.7580622498266398,-0.023496903182566163
1738005711032676000,9.623676025390624,0.24197861832678316,-1.617023401455581,-0.10799494916424154
1738005711042745000,9.6337451171875,-0.23964929859638212,-1.1971288140635936,-0.23612265884019434
1738005711052814000,9.64381396484375,-0.8400473873287438,-0.8467561642523854,-0.31155192076861854
1738005711062882000,9.653882080078125,-1.4398527708649635,-0.8208304264876991,-0.4097137504436075
1738005711072951000,9.663950927734374,-1.7537088769227265,-1.3105325634688139,-0.5750456938762217
1738005711083020000,9.67402001953125,-1.4173995315164327,-1.9851235772676765,-0.5527039886107667
1738005711093089000,9.684089111328126,-0.9468553186655044,-2.0544977038756014,-0.4076172896210104
1738005711103158000,9.694157958984375,-0.6315285555332899,-1.5452110879153012,-0.13742832972370086
1738005711113227000,9.70422705078125,-0.7106225505143403,-0.6728504537418484,0.4598286114387214
1738005711123295000,9.714294921875,-1.2862550313025711,0.2928082765277475,0.8740814666166901
1738005711133364000,9.724364013671876,-2.1809867794990536,1.1573402629021554,0.8349610970403999
1738005711143433200,9.73443310546875,-3.2841496812075373,1.860344228171557,0.6090521910374984
1738005711153502000,9.744501953125,-4.259961045244336,2.3319258212462066,0.4761367721609771
1738005711163571200,9.7545712890625,-4.931474989685416,2.5259441262632607,0.6167755883637815
1738005711173639200,9.76463916015625,-5.112609555470943,2.6477114340618253,0.7814413229726255
1738005711183708000,9.7747080078125,-5.008149064043164,2.7816780059590935,0.8278075720239431
1738005711193777200,9.784777099609375,-4.730312365871668,2.919146740758419,0.8058411663442849
1738005711203846000,9.794845947265625,-4.442735194930434,2.9454119396105405,0.7698745846237987
1738005711213915100,9.8049150390625,-4.206773060414195,2.7847864933684465,0.4986007520992309
1738005711223984000,9.814984130859376,-3.790589383304119,2.3851357256472108,0.12655205785706639
1738005711234051800,9.8250517578125,-2.916563154006004,1.897245095067471,-0.14446202775277198
1738005711244121000,9.83512109375,-1.79650406255424,1.498401698206365,-0.33697964588329193
1738005711254190000,9.845190185546874,-0.7661135515898466,1.1978730565596372,-0.5857176753424108
1738005711264259000,9.855259033203126,0.062090837731957435,1.063541596872732,-0.8545777977887541
1738005711274328000,9.865328125,0.6358779829144477,1.1516256846476345,-1.1211772818267345
1738005711284397000,9.87539697265625,0.8454547993302345,1.412896959400177,-1.4029840526729822
1738005711294465000,9.885465087890625,0.6411614762753248,1.5882761765293776,-1.5320920786231755
1738005711304534000,9.895533935546876,0.20205285065174103,1.6000202442064881,-1.5921940806254744
1738005711314603000,9.90560302734375,-0.18030162209272382,1.5601234103649855,-1.678554705608636
1738005711324672000,9.915672119140625,-0.3074345485776663,1.6034925964921711,-1.684798130042851
1738005711334741000,9.925740966796875,-0.2051858879804611,1.672801987300813,-1.605999610877037
1738005711344810000,9.93581005859375,0.11726911959648131,1.7064201792642473,-1.4718633815012871
1738005711354878000,9.9458779296875,0.5198877972126007,1.7274004234507678,-1.2330933499574661
1738005711364947200,9.955947265625,0.8327724278897046,1.781397971098125,-1.0277606739174574
1738005711375016000,9.966015869140625,0.9800590846091508,1.8356838341675699,-0.8733720762383193
1738005711385085200,9.976085205078125,0.9600298575371503,1.829640023958683,-0.7200669629469514
1738005711395154000,9.98615380859375,0.8742237976968288,1.7417378686219454,-0.6192270001038909
1738005711405223200,9.99622314453125,0.8003957604199647,1.6096759613022207,-0.5216444316215813
1738005711415291100,10.006291015625,0.808632842889428,1.5481674535028636,-0.45306653342526404
1738005711425360000,10.01635986328125,0.889275820878148,1.5443874965727329,-0.38705983742382377
1738005711435429000,10.02642919921875,0.926536753258109,1.5056977004334329,-0.2744686830431223
1738005711445498000,10.036498046875,0.9018506402909755,1.4946797550737856,-0.24566877808161078
1738005711455567000,10.046567138671875,0.9499497775495052,1.5058632662586866,-0.19882387866787612
1738005711465635000,10.056635009765625,0.9725444711953402,1.4991002018645405,-0.15388232865743337
1738005711475704000,10.0667041015625,0.9432441424310207,1.4727406027272343,-0.14117694166749714
1738005711485773000,10.07677294921875,0.8752233301281929,1.4114109586261212,-0.07930500738322735
1738005711495842000,10.086842041015625,0.7629279072910546,1.3332809863716364,0.016442381561174987
1738005711505911000,10.0969111328125,0.627343378803134,1.251592590983212,0.07629727693460882
1738005711515980000,10.10697998046875,0.5236082790404558,1.1636142286051063,0.11331453675180674
1738005711526048000,10.117048095703124,0.4691629876255989,1.130914028269425,0.1387024413127452
1738005711536117000,10.127116943359376,0.4408662829458713,1.1402158904261885,0.12887363267242907
1738005711546186000,10.13718603515625,0.4324187725961208,1.161321222297102,0.02939830924607813
1738005711556255000,10.1472548828125,0.43338148014843464,1.1685358298510313,-0.0077441113207489245
1738005711566319900,10.15731982421875,0.3971837930858135,1.1167849651519208,0.01038213167414069
1738005711576389000,10.16738916015625,0.37899464092254637,1.0266371497802436,0.04183145516589284
1738005711586457000,10.17745703125,0.3258300369679928,0.9975127621047198,0.025864436031505462
1738005711596525800,10.18752587890625,0.28592063590586186,0.937991263404116,0.06462064847052097
1738005711606595000,10.197594970703125,0.2649216870188713,0.8997308716580271,0.06535363892018795
1738005711616663800,10.207663818359375,0.23613749108314513,0.8883679853182286,0.08802263991124927
1738005711626733000,10.217733154296875,0.16968144387900827,0.8864207237079739,0.09906425840742886
1738005711636802000,10.227802001953124,0.06700958943367004,0.8595650846820324,0.09319850817918778
1738005711646870000,10.2378701171875,-0.036630817782878876,0.8296263118837028,0.10827310851849616
1738005711656939000,10.24793896484375,-0.1110433769494295,0.7961285314295441,0.10550517817512153
1738005711667008000,10.258008056640625,-0.11947335164248943,0.7381226979888975,0.04653210713751614
1738005711677077000,10.268076904296874,-0.03860533272624016,0.7028373034656047,0.0005012275204062461
1738005711687146000,10.27814599609375,0.062142275658249854,0.6878785115256905,-0.025393019127473233
1738005711697214200,10.288214111328125,0.09451777408421039,0.637301439846307,-0.11180566655881702
1738005711707283000,10.298282958984375,0.08178513376116753,0.5901109418652951,-0.22843341951183974
1738005711717352000,10.30835205078125,0.011766425639390945,0.5709013606131077,-0.3317605229955166
1738005711727421000,10.3184208984375,-0.07100947272479534,0.5540275288321077,-0.3783041013751179
1738005711737490000,10.328489990234376,-0.16723521977066994,0.5934555761180818,-0.37207287883535023
1738005711747559200,10.33855908203125,-0.2347662027299404,0.6426648665755986,-0.38253611292168493
1738005711757627100,10.348627197265625,-0.2189145536035299,0.654530514805764,-0.4337339468479156
1738005711767696100,10.358696044921874,-0.22606617892384528,0.6631976592555642,-0.4792563654862344
1738005711777765000,10.36876513671875,-0.31182898414433,0.7065091238461434,-0.47419783998765047
1738005711787833900,10.378833740234375,-0.4083376397848129,0.7417455646611749,-0.4625416697897017
1738005711797903000,10.388903076171875,-0.5492389793813228,0.7871746059276163,-0.4164871901012957
1738005711807971000,10.39897119140625,-0.6340577817499637,0.8183868327278644,-0.3678451781377196
1738005711818040000,10.4090400390625,-0.5715986952275037,0.7211477439209818,-0.3339010421555489
1738005711828109000,10.419109130859376,-0.3242430600374937,0.5095650675754994,-0.3486038865730166
1738005711838177800,10.429177734375,0.04577332465946674,0.33396935815140605,-0.33927688997499644
1738005711848247000,10.4392470703125,0.427934905180335,0.22320406749099492,-0.2962106323171407
1738005711858316000,10.44931591796875,0.7375964821577071,0.13728570638261733,-0.23736374494247137
1738005711868384000,10.459384033203126,0.8472820147573947,0.15056553225964306,-0.16205657502375542
1738005711878453000,10.469452880859375,0.7441916426390409,0.2726057387154549,-0.1106018437270075
1738005711888522000,10.47952197265625,0.45567982119619843,0.4500025792773813,-0.05895261277146637
1738005711898591000,10.489591064453125,0.20673896264135835,0.6168133630909025,-0.0026236265018582342
1738005711908660000,10.499659912109376,-0.0327694661796093,0.6642015756011009,0.004493292831256985
1738005711918729000,10.50972900390625,-0.10594693059325218,0.5472169720344245,0.06095474637411535
1738005711928797000,10.519796875,-0.030163083073496817,0.494969775185734,0.01681384522207081
1738005711938866200,10.5298662109375,0.11101707346439361,0.4870671853676438,0.0103403383590281
1738005711948935000,10.539934814453124,0.31868074973523614,0.44076274950616057,0.04248166270293295
1738005711959004000,10.55000390625,0.5225479563325643,0.3830284995485097,0.11171513873115181
1738005711969073200,10.5600732421875,0.5672650499373674,0.31959793764539063,0.25482882061488926
1738005711979141000,10.57014111328125,0.5804729065567255,0.2762066127516329,0.3306675401270389
1738005711989210000,10.580210205078124,0.5371171644330024,0.29015973478034135,0.40136487816274163
1738005711999279000,10.590279052734376,0.45631227388083934,0.2916343373775482,0.5284981699738651
1738005712009347800,10.600347900390625,0.2901730326533317,0.3047828650251031,0.465090112163499
1738005712019417000,10.6104169921875,0.14331658404469488,0.3767779147211462,0.4043619410868734
1738005712029485800,10.62048583984375,0.07583645448982715,0.3717814216081053,0.3726714292503893
1738005712039554000,10.630553955078126,0.025828853261470792,0.36152313550934195,0.2968323444120586
1738005712049623000,10.640623046875,0.0759346541672945,0.3902263020981103,0.23101021119728682
1738005712059692000,10.650692138671875,0.1774713671028614,0.3643254795789718,0.1621838546652347
1738005712069761000,10.660760986328125,0.299443549823761,0.2824909537181258,0.17934307925887405
1738005712079830000,10.670830078125,0.3608557576417923,0.2136002267129719,0.16703136776164174
1738005712089899000,10.68089892578125,0.43869653769135475,0.09540515137799084,0.18478527031280098
1738005712099967000,10.690967041015625,0.5120633871972561,0.018732172998785972,0.1514399770066142
1738005712110036200,10.7010361328125,0.5440349809974432,0.015811974703148008,0.15319288508854806
1738005712120105000,10.71110498046875,0.5805757824093103,0.06969846319146454,0.13938114429190754
1738005712130174000,10.721174072265624,0.5152472779303788,0.09918313554674386,0.14938224075920878
1738005712140243000,10.731242919921876,0.29560616361796854,0.1237579701591283,0.17346622311472892
1738005712150311000,10.741310791015625,-0.013320084822177886,0.20104696154482662,0.1821578444186598
1738005712160380200,10.751380126953125,-0.28764906713366506,0.2872866635620594,0.23267872893139718
1738005712170449000,10.761448974609374,-0.4461562060475349,0.4217455490209162,0.18648959001265464
1738005712180518000,10.771517822265626,-0.6097334878325462,0.5323458583779632,0.20239654952287672
1738005712190587100,10.781587158203125,-0.8281172955602407,0.6918319253265858,0.18112104871682821
1738005712200656000,10.79165576171875,-1.0757961713552475,0.8649512346997856,0.06524553890321404
1738005712210724000,10.80172412109375,-1.1972440379410982,0.8679837342634796,-0.0023366627866402267
1738005712220793000,10.81179296875,-1.2025105801671743,0.777837161000818,-0.04953611125908792
1738005712230862000,10.821862060546875,-0.9935860901802778,0.6476297955065965,-0.05112688758186996
1738005712240931000,10.83193115234375,-0.5123299291789531,0.4576550667919218,-0.07783782090749591
1738005712250999800,10.841999755859375,0.022802783438563345,0.25069256106037646,-0.06521518029756844
1738005712261068000,10.852068115234376,0.4180529781132936,0.07851495298407972,-0.015838606981746852
1738005712271137000,10.862136962890625,0.69247665297091,-0.09839235049523412,0.02718030440304428
1738005712281206000,10.8722060546875,0.8434218321979046,-0.233282393912971,-0.004714132507704198
1738005712291275000,10.88227490234375,0.9076093499481678,-0.2899676462743431,-0.07038699344489723
1738005712301344000,10.892343994140624,0.8074906871169805,-0.2699816007569432,-0.10989227068554609
1738005712311413000,10.9024130859375,0.731886287817359,-0.27416882331371306,-0.07014456299114973
1738005712321481000,10.91248095703125,0.6152069508075714,-0.28541769135240463,0.015268259747885166
1738005712331550200,10.92255029296875,0.41233167785704133,-0.2365309108475223,0.07105521156266331
1738005712341619000,10.932618896484374,0.18771102156639097,-0.16929964148718862,0.10825652270987629
1738005712351688000,10.94268798828125,-0.08214110759198665,-0.046005927838943896,0.15026676850877702
1738005712361757000,10.9527568359375,-0.3716255734592676,0.08117204336412251,0.17655553089957685
1738005712371825000,10.962824951171875,-0.617943682295084,0.1770414147203788,0.18556319588273762
1738005712381894100,10.97289404296875,-0.8037257816255092,0.2872479389868676,0.1534619112882763
1738005712391963000,10.982962890625,-0.9426584514975547,0.3649424789661541,0.10832279287911951
1738005712402032000,10.9930322265625,-1.0130413167566061,0.349612552158907,0.0648354967975989
1738005712412101000,11.00310107421875,-0.92914605897367,0.2986321603756398,0.017040237856470047
1738005712422169900,11.013169921875,-0.6960118413597345,0.2429785526169464,-0.05945325576998293
1738005712432238000,11.023238037109374,-0.39889410413503645,0.17221541933603585,-0.09485493361670523
1738005712442307000,11.03330712890625,-0.11267711563110351,0.10751955020483582,-0.07039609006680547
1738005712452376000,11.0433759765625,0.08914367983043193,0.06029321372546255,-0.10548924995362759
1738005712462445000,11.053445068359375,0.21310382149815557,-0.0671881608709693,-0.13011497450303286
1738005712472513800,11.063513671875,0.2909393408507108,-0.08961608311515301,-0.11190656965002417
1738005712482582000,11.07358203125,0.31680735707879065,-0.09288608122915029,-0.11042780233435331
1738005712492651000,11.083651123046875,0.30778526171147824,-0.10288926005568355,-0.10660930349212139
1738005712502720000,11.093719970703125,0.32933483021855353,-0.06600041239112615,-0.07599288716055452
1738005712512789000,11.1037890625,0.2757224824965,-0.028404658566229042,-0.06900485490411519
1738005712522858200,11.113858154296874,0.24049334820508955,-0.043247897835075856,-0.060144964361190795
1738005712532927000,11.123927001953126,0.1829828240007162,-0.08227463431116193,-0.010917188398912548
1738005712542995000,11.133994873046875,0.1555506271958351,-0.06936166898515075,-0.005723784474283456
1738005712553064200,11.144064208984375,0.10433131209015846,-0.06450294037498533,-0.028831323013082145
1738005712563133400,11.154133544921875,0.06004910277128219,-0.06583711158819497,-0.06158131730724126
1738005712573202400,11.164202392578124,0.027290742507576942,-0.06065693247132003,-0.023168328815326093
1738005712583271400,11.174271484375,-0.05416764351725578,-0.031056195988319813,0.008281542665697634
1738005712593339400,11.18433935546875,-0.13563129023909568,-0.027462226616963743,0.027816812208294867
1738005712603408400,11.194408447265625,-0.18609423401951788,-0.03311992358509451,0.011930274431593715
1738005712613477400,11.204477294921874,-0.20653321093618868,-0.022592026764713228,-0.029904359072074293
1738005712623546400,11.21454638671875,-0.22110943329930305,-0.01662427746672183,-0.033782369549199935
1738005712633615600,11.22461572265625,-0.19849545043110847,-0.03655709495954215,-0.03612984599079937
1738005712643684400,11.234684326171875,-0.11294658022224903,-0.04968863493967801,-0.010177731675840913
1738005712653752300,11.24475244140625,-0.027291911551356313,-0.027518084990046918,0.039081937262043356
1738005712663821600,11.254821533203126,-0.010483984613418578,-0.05611486859489232,0.0927140491304919
1738005712673890300,11.264890380859375,0.005610825619101524,-0.10629643815066665,0.10897205056808888
1738005712683959600,11.27495947265625,0.054387423747777934,-0.10075699726734309,0.11028737095035612
1738005712694028300,11.2850283203125,0.11357786386311054,-0.06738452369328587,0.10667502567209303
1738005712704096300,11.29509619140625,0.18034370766878127,-0.06874247764088214,0.1032048653434962
1738005712714165500,11.30516552734375,0.19572423215210435,-0.08504019003435968,0.08202887938916682
1738005712724234200,11.315234130859375,0.18181611830890176,-0.08040193577446043,0.06478877157904207
1738005712734303500,11.325303466796875,0.16373276460766792,-0.08174089276064186,0.036250367097929115
1738005712744372500,11.33537255859375,0.13892740917503832,-0.05455551032368093,0.0016095175558701158
1738005712754441500,11.34544140625,0.10148995118439197,-0.028629882156848904,-0.030405330864153802
1738005712764509400,11.355509521484375,0.053128363597393036,-0.037439796078205106,-0.05234736928753554
1738005712774578400,11.365578369140625,0.008137129226326941,0.005818769281357526,-0.08692669790070504
1738005712784647400,11.3756474609375,-0.030124504628777502,0.06390307478569447,-0.10270506259519606
1738005712794716400,11.38571630859375,-0.08118541430234909,0.06300444544553756,-0.09777195357456803
1738005712804785400,11.395785400390626,-0.11937573648691177,0.0604305763695389,-0.05093085355311632
1738005712814853400,11.405853271484375,-0.1383452253729105,0.02797697120606899,-0.01120181402657181
1738005712824922400,11.41592236328125,-0.12284370485842228,0.0009940160060301422,-0.03870532250199467
1738005712834991400,11.425991455078124,-0.10391747059226035,0.030582550594583154,-0.014556787010282277
1738005712845060400,11.436060302734376,-0.06924889279305935,0.07918952777739614,-0.05403795272298157
1738005712855129600,11.446129638671875,-0.031027006426453587,0.022065372542105614,0.01583871657960117
1738005712865197300,11.456197265625,-0.057844286203384394,-0.019788842444866894,0.06242799726445227
1738005712875266300,11.466266357421874,-0.09794248783588409,-0.031383564779162404,0.020917261952906847
1738005712885335600,11.47633544921875,-0.05781272202134132,-0.0555173045605421,-0.016458017521724103
1738005712895404300,11.486404296875,-0.05359130493402481,-0.10230393444839864,-0.0016692849190905689
1738005712905473500,11.4964736328125,-0.08020049491822719,-0.07203019407466053,-0.011780052305944264
1738005712915542300,11.506542236328125,-0.0834808317631483,-0.008460369831323623,-0.08918364651463925
1738005712925610200,11.5166103515625,-0.0663707070082426,-0.02426105595547706,-0.06891312150005251
1738005712935679500,11.526679443359376,-0.09109422937631606,-0.032049590939842165,-0.07813172582015394
1738005712945748200,11.536748291015625,-0.09284019626080989,-0.03529876546151936,-0.05897745495177805
1738005712955817500,11.5468173828125,-0.04535539150834083,-0.014212467084638773,-0.11528645787928253
1738005712965886500,11.556886474609374,-0.0038069910675287244,-0.05233096614200621,-0.040966143573448056
1738005712975954200,11.5669541015625,-0.05419628508985042,-0.0852684092996642,0.001992306328378618
1738005712986023400,11.5770234375,-0.004718845215439796,-0.045489027825370426,-0.06681837771050632
1738005712996092400,11.587092529296875,0.11878361581265925,-0.04826539720352739,-0.05961586245317012
1738005713006161400,11.597161376953125,0.13474281696677207,-0.02072488118596375,-0.0919133637394756
1738005713016230400,11.60723046875,0.1350812551409006,0.014285276592522858,-0.07232819064054638
1738005713026299400,11.61729931640625,0.08901742310225963,0.037772535163909195,-0.02407020955849439
1738005713036367400,11.627367431640625,0.044189270338416096,0.06361976433228701,-0.05442293345257639
1738005713046436400,11.637436279296875,-0.03285246828794479,0.08284125521797686,-0.08508852268811315
1738005713056505300,11.64750537109375,-0.05559212336242199,0.12700670628938823,-0.10763714870251714
1738005713066574300,11.65757421875,-0.04936228906214237,0.11036745044924318,-0.08660722015537321
1738005713076643600,11.6676435546875,-0.08244213636517524,0.11086294234860687,-0.061117389589920634
1738005713086711300,11.677711181640625,-0.07082125667631625,0.11855996312461793,-0.024831805048137902
1738005713096780300,11.6877802734375,-0.04587152433693409,0.09030446723811328,-0.018809293355606497
1738005713106849500,11.697849609375,0.03364391092658043,0.0942612785724923,-0.018047807463817296
1738005713116918300,11.707918212890625,0.048724575680494306,0.06790898595880716,-0.016277181062102318
1738005713126987500,11.717987548828125,0.05100947174727916,0.04960208916738629,-0.008888641713373363
1738005713137055500,11.728055419921875,0.07518705067038535,0.029354543169587848,-0.0005033098796382547
1738005713147124200,11.738124267578126,0.10270517219305038,-0.023886925413459537,-0.012967143198661506
1738005713157193500,11.748193359375,0.09664017306566237,0.007761062455549836,-0.0414464013710618
1738005713167262200,11.75826220703125,0.02429974399805069,0.0634981837792322,-0.0625084786221385
1738005713177331500,11.76833154296875,-0.006086626437306404,0.06582947627101093,-0.023624730813317
1738005713187400400,11.778400390625,-0.05530336954891681,0.05302161528728902,-0.014712671691738068
1738005713197468200,11.78846826171875,-0.08760171108543872,0.060543352561630306,-0.008527334120310842
1738005713207537400,11.798537353515625,-0.07598433852791786,0.05629402455408126,0.006300232655368745
1738005713217606400,11.8086064453125,-0.0308522343814373,0.05462897741869092,-0.0028904972771182655
1738005713227675400,11.81867529296875,0.011127543213963509,0.034394400500319895,-0.021514789454638958
1738005713237744400,11.828744384765624,0.10409633429050445,0.02821074342932552,-0.00943929786607623
1738005713247812600,11.8388125,0.21149813986718655,-0.0035515915343537923,0.010367555159516631
1738005713257881300,11.84888134765625,0.22338789962530134,-0.03070661536566913,0.04486395472958684
1738005713267950300,11.858950439453125,0.1396563079714775,0.026486951844021677,0.07055855061952024
1738005713278019300,11.869019287109374,0.04085223487019539,0.09153875827342271,0.06772606713995337
1738005713288088300,11.87908837890625,-0.003319499811530113,0.0856221546407789,0.061362779185734684
1738005713298156500,11.889156494140625,-0.07886310883462429,0.0791927061151713,0.05888510049320757
1738005713308225300,11.899225341796875,-0.13971476016044615,0.11908226996567099,0.052702210607193406
1738005713318294300,11.909294189453124,-0.19001111520230768,0.13079082793798297,0.032134017820283765
1738005713328363500,11.919363525390626,-0.22524784827828406,0.13454481017664074,-0.00016370266173034906
1738005713338432300,11.929432373046875,-0.2138689606517553,0.1389675950549543,0.023581914584897456
1738005713348500500,11.93950048828125,-0.1821808599680662,0.14463614221066234,0.023780907755717635
1738005713358569500,11.949569580078125,-0.13406067992150783,0.15033884736429898,0.030813509806245563
1738005713368638500,11.959638427734374,-0.12098550977110863,0.10111925470847635,0.010542692530713976
1738005713378707500,11.96970751953125,-0.11768880631327629,0.007460654736869037,0.02434606735780835
1738005713388776200,11.979776123046875,-0.08259352753460407,-0.009412446391768753,0.03338694049082696
1738005713398845400,11.989845458984375,-0.02195288861095905,-0.008156345383450388,0.021362265774048865
1738005713408913400,11.999913330078124,0.026323358780145644,-0.0034824352882802485,0.02624638455379754
1738005713418982400,12.009982421875,0.035381109982728955,0.060212147845886646,0.027287381506711242
1738005713429051400,12.020051513671875,-0.03232172241210937,0.05330214926172048,0.04579856869857758
1738005713439120400,12.030120361328125,-0.06547697303891181,0.03923690862804651,0.05871876748297363
1738005713449189400,12.040189453125,-0.020303952360153196,0.018108743870817123,0.04383497700802982
1738005713459257300,12.05025732421875,0.05640051713585853,-0.035856691605225206,0.07286635263785719
1738005713469326600,12.06032666015625,0.1429641173452139,-0.05804963604975492,0.08335095830578357
1738005713479395300,12.070395263671875,0.1970651253670454,-0.03276172126457095,0.07880425478685647
1738005713489464300,12.08046435546875,0.1720166088283062,-0.03476228396464139,0.11811726085841655
1738005713499533300,12.090533203125,0.10950199272632598,-0.009276983443833887,0.12800254892632365
1738005713509601300,12.100601318359375,0.07414134100973606,0.004539031669124961,0.12840696500875054
1738005713519670500,12.11067041015625,0.003665536770224571,0.05840473309773951,0.09660038904454558
1738005713529739300,12.1207392578125,-0.07797522008419036,0.09662230861540884,0.08429233080912381
1738005713539808500,12.13080859375,-0.1631663628965616,0.09118187112715095,0.11245981961861252
1738005713549877500,12.14087744140625,-0.21296645885407922,0.06598729718122631,0.12619184624254703
1738005713559945500,12.150945556640625,-0.18348901995718478,0.06976042251177132,0.04350640264078975
1738005713570014000,12.161013916015625,-0.10268646749258041,0.04919734429139644,0.05197152171246707
1738005713580083000,12.1710830078125,-0.09550620059967041,0.04543897813856602,0.05804360816776752
1738005713590152000,12.18115185546875,-0.10171148498058319,0.07576466789525002,0.055272243758291005
1738005713600221000,12.191220947265625,-0.0860603268623352,0.10899276456255465,0.05966868861895054
1738005713610289000,12.201288818359375,-0.08707564138472079,0.09697430039085447,0.029620975553430615
1738005713620358000,12.21135791015625,-0.10727028815150261,0.06673698303736746,0.02944905305262655
1738005713630427000,12.221427001953124,-0.09623568391799926,0.0665307198755443,0.03895410963129252
1738005713640496000,12.23149609375,-0.07934826200306415,0.07301368868667632,0.032392413028143344
1738005713650564900,12.24156494140625,-0.057442135143280025,0.06074556060284376,0.007936528620310128
1738005713660634000,12.251634033203125,-0.032570728737115855,0.04597436365690082,0.012208762579411267
1738005713670702000,12.2617021484375,0.007892214554548263,0.034494682537019254,0.0031993074979633092
1738005713680770800,12.271770751953126,0.030025135907530785,0.03119410662166774,0.011038330560550093
1738005713690840000,12.281840087890625,0.03863689690828323,-0.002723652810230851,0.014549261290952563
1738005713700908800,12.29190869140625,0.07601531818807125,-0.026346703123115,0.001072999526374042
1738005713710976800,12.301976806640624,0.12388473834395408,-0.013124233456514775,-0.0316697613094002
1738005713721046000,12.3120458984375,0.1746867048203945,-0.0019542758729308844,-0.030531514527089892
1738005713731114800,12.32211474609375,0.1447585995465517,-0.027593122987635433,-0.07257281305138022
1738005713741184000,12.33218408203125,0.10621230353116988,0.02395743336640298,-0.08602076203692705
1738005713751253000,12.3422529296875,0.10418225900828838,0.023819997657090423,-0.04614844158217311
1738005713761322000,12.352322021484374,0.03041092035472393,0.007014956795983016,-0.04580689813550561
1738005713771390000,12.362389892578125,-0.025275895553827286,0.0435628090031445,-0.03624653117302805
1738005713781459000,12.372458984375,-0.10716741229891777,0.07123729013130069,-0.03991082583423704
1738005713791528000,12.38252783203125,-0.24986615670621393,0.051944597172923386,-0.03436831621099263
1738005713801597000,12.392596923828124,-0.26846564323604105,0.0673144175991416,-0.07913567869830876
1738005713811666000,12.402666015625,-0.21462650102078915,0.0701478143941611,-0.048159123817458745
1738005713821734000,12.41273388671875,-0.07807166619598865,0.08278046494144946,-0.03396028339937329
1738005713831803000,12.422802978515625,0.019186346507072446,0.04222198885343969,0.005577434806153178
1738005713841872000,12.432871826171874,-0.009116203391551971,0.034129575551673764,-0.022028328467346727
1738005713851940900,12.44294091796875,-0.031090719312429425,0.04984459268637001,0.012952128292620182
1738005713862010000,12.453010009765626,-0.0613473258882761,0.07025792370513081,-0.008114004079066216
