time,seconds_elapsed,z,y,x
1738005701437087000,0.0280869140625,-33.604766845703125,-17.265670776367188,-15.57590103149414
1738005701447156200,0.03815625,-34.005401611328125,-17.41131591796875,-15.58273696899414
1738005701457225000,0.048224853515625,-34.259246826171875,-17.86761474609375,-15.668399810791016
1738005701467294200,0.058294189453125,-34.567413330078125,-18.58216094970703,-15.698637008666992
1738005701477362200,0.068362060546875,-34.348541259765625,-18.914535522460938,-15.710233688354492
1738005701487431200,0.07843115234375,-34.287994384765625,-18.947433471679688,-15.89909553527832
1738005701497500200,0.088500244140625,-34.489898681640625,-18.750511169433594,-15.653858184814453
1738005701507568000,0.098568115234375,-34.330291748046875,-18.632164001464844,-15.717903137207031
1738005701517637400,0.108637451171875,-34.315277099609375,-18.343727111816406,-15.6807861328125
1738005701527706000,0.1187060546875,-34.478973388671875,-18.251220703125,-15.758184432983398
1738005701537775000,0.128775146484375,-34.487945556640625,-18.005149841308594,-15.293052673339844
1738005701547843300,0.13884326171875,-34.520721435546875,-18.185195922851562,-15.42483901977539
1738005701557911300,0.148911376953125,-34.441986083984375,-18.362403869628906,-15.363121032714844
1738005701567980300,0.158980224609375,-34.631866455078125,-18.148391723632812,-15.48931884765625
1738005701578049500,0.169049560546875,-34.547698974609375,-18.1317138671875,-15.299962997436523
1738005701588117200,0.1791171875,-34.406280517578125,-18.1829833984375,-15.398796081542969
1738005701598186500,0.1891865234375,-34.351165771484375,-18.390090942382812,-15.18167495727539
1738005701608255500,0.19925537109375,-34.647430419921875,-18.02764892578125,-15.043325424194336
1738005701618324200,0.20932421875,-34.027130126953125,-18.263648986816406,-15.237771987915039
1738005701628392400,0.219392333984375,-34.203094482421875,-18.260696411132812,-15.479949951171875
1738005701638461400,0.22946142578125,-34.594146728515625,-18.224937438964844,-15.439531326293945
1738005701648530400,0.239530517578125,-34.207489013671875,-18.10772705078125,-15.503807067871094
1738005701658599400,0.249599365234375,-34.528411865234375,-18.228500366210938,-15.51646614074707
1738005701668667400,0.25966748046875,-34.280914306640625,-18.24720001220703,-15.261796951293945
1738005701678736400,0.269736328125,-34.532623291015625,-17.967872619628906,-15.227981567382812
1738005701688805400,0.279805419921875,-34.671844482421875,-17.90790557861328,-15.224807739257812
1738005701698873300,0.289873291015625,-34.400604248046875,-17.875953674316406,-15.334077835083008
1738005701708942300,0.2999423828125,-34.223236083984375,-17.949813842773438,-15.174541473388672
1738005701719011300,0.31001123046875,-34.193817138671875,-18.052001953125,-15.220930099487305
1738005701729080300,0.320080322265625,-34.503143310546875,-18.110694885253906,-15.474271774291992
1738005701739148300,0.330148193359375,-34.230194091796875,-17.96441650390625,-15.377080917358398
1738005701749217500,0.340217529296875,-34.142791748046875,-17.9808349609375,-15.208602905273438
1738005701759286500,0.35028662109375,-34.094512939453125,-18.1746826171875,-15.217077255249023
1738005701769355300,0.360355224609375,-34.256683349609375,-18.086227416992188,-15.373022079467773
1738005701779423500,0.370423583984375,-33.895111083984375,-18.07166290283203,-15.385126113891602
1738005701789492500,0.380492431640625,-33.847686767578125,-17.939712524414062,-15.488006591796875
1738005701799561500,0.3905615234375,-34.010345458984375,-18.241432189941406,-15.464649200439453
1738005701809630500,0.40063037109375,-34.503631591796875,-18.008819580078125,-15.309226989746094
1738005701819698400,0.410698486328125,-33.846466064453125,-18.01361083984375,-15.176803588867188
1738005701829767400,0.420767333984375,-33.886444091796875,-18.05731964111328,-15.376951217651367
1738005701839836400,0.43083642578125,-34.312225341796875,-18.08049774169922,-15.45612907409668
1738005701849905400,0.440905517578125,-34.281036376953125,-17.909622192382812,-15.468599319458008
1738005701859973400,0.450973388671875,-34.224334716796875,-17.967910766601562,-15.396228790283203
1738005701870042400,0.46104248046875,-33.919586181640625,-17.90753173828125,-15.309938430786133
1738005701880111400,0.471111328125,-33.726837158203125,-17.900733947753906,-15.445821762084961
1738005701890179300,0.481179443359375,-33.914703369140625,-18.06158447265625,-15.583723068237305
1738005701900248300,0.491248291015625,-34.337493896484375,-18.237396240234375,-15.477012634277344
1738005701910317300,0.5013173828125,-34.287811279296875,-18.477676391601562,-15.478658676147461
1738005701920386300,0.51138623046875,-33.949127197265625,-18.254859924316406,-15.718439102172852
1738005701930454500,0.52145458984375,-34.156951904296875,-18.2823486328125,-15.51317024230957
1738005701940523300,0.531523193359375,-34.215301513671875,-18.290122985839844,-15.825532913208008
1738005701950592500,0.541592529296875,-33.986480712890625,-18.065834045410156,-15.631536483764648
1738005701960661500,0.55166162109375,-34.161956787109375,-18.21649932861328,-15.528511047363281
1738005701970729500,0.5617294921875,-34.569183349609375,-18.019332885742188,-15.526008605957031
1738005701980798500,0.571798583984375,-34.303375244140625,-18.19316864013672,-15.783733367919922
1738005701990867500,0.581867431640625,-34.624542236328125,-18.00237274169922,-15.576488494873047
1738005702000936400,0.5919365234375,-34.711395263671875,-18.26062774658203,-15.694551467895508
1738005702011004400,0.60200439453125,-34.549407958984375,-18.425621032714844,-15.669174194335938
1738005702021073400,0.612073486328125,-34.314788818359375,-18.39508056640625,-15.546951293945312
1738005702031142400,0.622142333984375,-34.473297119140625,-18.40478515625,-15.645635604858398
1738005702041211400,0.63221142578125,-33.923797607421875,-18.127532958984375,-15.833826065063477
1738005702051279400,0.642279296875,-34.504241943359375,-18.401023864746094,-15.714729309082031
1738005702061348400,0.652348388671875,-34.418121337890625,-18.344039916992188,-15.642616271972656
1738005702071417300,0.662417236328125,-33.982635498046875,-18.425819396972656,-15.812368392944336
1738005702081485600,0.672485595703125,-34.112396240234375,-18.471595764160156,-15.618183135986328
1738005702091554300,0.68255419921875,-34.274566650390625,-18.492103576660156,-15.676692962646484
1738005702101623300,0.692623291015625,-34.415313720703125,-18.372459411621094,-15.661188125610352
1738005702111692500,0.702692626953125,-34.009918212890625,-18.40125274658203,-15.733503341674805
1738005702121760300,0.71276025390625,-34.166351318359375,-18.579917907714844,-15.876375198364258
1738005702131829500,0.72282958984375,-34.568817138671875,-18.77478790283203,-15.976051330566406
1738005702141898500,0.7328984375,-34.640777587890625,-18.37865447998047,-15.915824890136719
1738005702151967200,0.74296728515625,-34.505828857421875,-18.608657836914062,-15.965173721313477
1738005702162035500,0.753035400390625,-34.083465576171875,-18.290740966796875,-15.710227966308594
1738005702172104400,0.7631044921875,-34.278045654296875,-18.470077514648438,-15.697977066040039
1738005702182173400,0.77317333984375,-34.080352783203125,-18.451278686523438,-15.860666275024414
1738005702192242400,0.783242431640625,-33.853912353515625,-18.4537353515625,-16.136302947998047
1738005702202310400,0.793310302734375,-33.835906982421875,-18.428871154785156,-16.205482482910156
1738005702212379400,0.80337939453125,-33.753631591796875,-18.414566040039062,-16.08966064453125
1738005702222448400,0.813448486328125,-33.844268798828125,-18.288658142089844,-15.988931655883789
1738005702232517400,0.823517333984375,-34.087615966796875,-18.401527404785156,-15.91799545288086
1738005702242585300,0.83358544921875,-33.905731201171875,-18.396148681640625,-15.922748565673828
1738005702252654300,0.843654296875,-33.959686279296875,-18.52422332763672,-16.036657333374023
1738005702262723300,0.853723388671875,-34.041656494140625,-18.392898559570312,-16.0648193359375
1738005702272792300,0.863792236328125,-34.087432861328125,-18.592140197753906,-15.966480255126953
1738005702282860500,0.873860595703125,-33.807220458984375,-18.45098114013672,-16.072900772094727
1738005702292929500,0.883929443359375,-33.773223876953125,-18.319686889648438,-15.98213005065918
1738005702302998300,0.893998291015625,-33.830108642578125,-18.34027099609375,-15.990856170654297
1738005702313067500,0.904067626953125,-33.972991943359375,-18.485565185546875,-16.21763038635254
1738005702323135500,0.914135498046875,-34.185760498046875,-18.76134490966797,-16.014806747436523
1738005702333204500,0.92420458984375,-33.697845458984375,-17.87364959716797,-15.650102615356445
1738005702343273500,0.9342734375,-33.619232177734375,-17.640289306640625,-15.723722457885742
1738005702353342200,0.94434228515625,-33.767059326171875,-18.076766967773438,-15.799417495727539
1738005702363410400,0.954410400390625,-34.063201904296875,-18.4345703125,-16.00131607055664
1738005702373479400,0.9644794921875,-33.592742919921875,-17.761940002441406,-15.842073440551758
1738005702383548400,0.97454833984375,-33.742523193359375,-18.320068359375,-16.0509090423584
1738005702393617400,0.984617431640625,-33.774322509765625,-18.474639892578125,-15.957084655761719
1738005702403685400,0.994685302734375,-34.158172607421875,-18.546005249023438,-15.784358978271484
1738005702413754400,1.00475439453125,-34.426422119140625,-18.36595916748047,-15.966060638427734
1738005702423823400,1.0148232421875,-34.292877197265625,-18.50141143798828,-15.849309921264648
1738005702433892600,1.024892578125,-34.246612548828125,-18.570907592773438,-16.121694564819336
1738005702443960300,1.034960205078125,-34.275360107421875,-18.359397888183594,-15.714822769165039
1738005702454029300,1.045029296875,-33.994415283203125,-18.299560546875,-15.830856323242188
1738005702464098600,1.0550986328125,-34.134735107421875,-18.47187042236328,-15.769107818603516
1738005702474167300,1.065167236328125,-34.090362548828125,-18.346343994140625,-15.809551239013672
1738005702484235300,1.0752353515625,-34.296173095703125,-18.39826202392578,-15.618778228759766
1738005702494304500,1.085304443359375,-34.278167724609375,-18.403671264648438,-15.932405471801758
1738005702504373200,1.095373291015625,-34.012664794921875,-18.28380584716797,-15.818269729614258
1738005702514442500,1.1054423828125,-33.862091064453125,-18.15717315673828,-15.78152847290039
1738005702524510500,1.115510498046875,-33.941009521484375,-18.207786560058594,-16.09871482849121
1738005702534579500,1.125579345703125,-33.880035400390625,-18.286056518554688,-16.240196228027344
1738005702544648400,1.1356484375,-34.227935791015625,-18.165267944335938,-15.987751007080078
1738005702554718000,1.145718017578125,-34.061798095703125,-18.46356201171875,-16.12065315246582
1738005702564786000,1.155785888671875,-34.477081298828125,-18.412368774414062,-16.319063186645508
1738005702574855000,1.16585498046875,-34.279083251953125,-18.317138671875,-16.043655395507812
1738005702584924000,1.175923828125,-34.227020263671875,-18.134567260742188,-15.99200439453125
1738005702594993000,1.185992919921875,-34.155242919921875,-18.114402770996094,-15.986974716186523
1738005702605060900,1.196060791015625,-33.933563232421875,-18.228187561035156,-15.994146347045898
1738005702615129900,1.2061298828125,-34.072967529296875,-18.335487365722656,-15.915571212768555
1738005702625198800,1.21619873046875,-34.161407470703125,-18.200965881347656,-16.17852020263672
1738005702635268000,1.22626806640625,-33.747039794921875,-17.97223663330078,-15.827655792236328
1738005702645335800,1.236335693359375,-33.782684326171875,-18.173423767089844,-15.674352645874023
1738005702655404800,1.24640478515625,-33.775177001953125,-18.179702758789062,-15.563957214355469
1738005702665474000,1.25647412109375,-33.787445068359375,-18.200515747070312,-15.606756210327148
1738005702675542800,1.266542724609375,-34.088653564453125,-18.35517120361328,-15.687578201293945
1738005702685611000,1.276611083984375,-33.878082275390625,-18.36589813232422,-15.526220321655273
1738005702695680000,1.286679931640625,-33.914215087890625,-18.23467254638672,-15.453910827636719
1738005702705748700,1.296748779296875,-33.943939208984375,-18.2503662109375,-15.64712142944336
1738005702715818000,1.30681787109375,-33.788848876953125,-18.217269897460938,-15.502828598022461
1738005702725886000,1.316885986328125,-33.952117919921875,-18.286048889160156,-15.701181411743164
1738005702735955000,1.326954833984375,-33.748931884765625,-18.211997985839844,-15.725008010864258
1738005702746024000,1.33702392578125,-33.461822509765625,-18.26514434814453,-15.67945671081543
1738005702756092700,1.3470927734375,-33.946197509765625,-18.256027221679688,-15.587614059448242
1738005702766161000,1.357160888671875,-34.208587646484375,-18.390640258789062,-15.616514205932617
1738005702776230000,1.36722998046875,-34.324249267578125,-18.190444946289062,-15.403097152709961
1738005702786299000,1.377298828125,-33.830291748046875,-18.024520874023438,-15.710927963256836
1738005702796368000,1.387367919921875,-34.127410888671875,-18.358909606933594,-15.73489761352539
1738005702806437000,1.39743701171875,-34.343780517578125,-18.253707885742188,-15.8699951171875
1738005702816504800,1.4075048828125,-34.637603759765625,-18.03253173828125,-15.50844955444336
1738005702826573800,1.41757373046875,-34.694244384765625,-18.168312072753906,-15.528387069702148
1738005702836643000,1.42764306640625,-34.872589111328125,-18.287872314453125,-15.49601936340332
1738005702846711800,1.4377119140625,-34.779693603515625,-18.5802001953125,-15.733400344848633
1738005702856779800,1.44777978515625,-34.449493408203125,-18.093017578125,-15.620302200317383
1738005702866849000,1.45784912109375,-34.746307373046875,-18.23388671875,-15.680353164672852
1738005702876917800,1.467917724609375,-34.390777587890625,-18.198974609375,-15.85085678100586
1738005702886987000,1.477987060546875,-34.832977294921875,-18.377967834472656,-15.752225875854492
1738005702897055000,1.488054931640625,-34.487884521484375,-18.373199462890625,-15.575325012207031
1738005702907123700,1.498123779296875,-34.454437255859375,-18.4337158203125,-15.768808364868164
1738005702917193000,1.50819287109375,-34.306182861328125,-18.6688232421875,-15.783323287963867
1738005702927262000,1.518261962890625,-34.577789306640625,-18.547210693359375,-15.923608779907227
1738005702937331000,1.5283310546875,-35.211334228515625,-18.454055786132812,-15.915931701660156
1738005702947399000,1.53839892578125,-35.152252197265625,-18.4779052734375,-15.949102401733398
1738005702957468000,1.548468017578125,-34.837432861328125,-18.4052734375,-15.687356948852539
1738005702967537000,1.558536865234375,-34.744720458984375,-18.429214477539062,-15.670280456542969
1738005702977606000,1.56860595703125,-34.695770263671875,-17.974029541015625,-15.701082229614258
1738005702987674000,1.578674072265625,-35.099639892578125,-18.441200256347656,-15.778467178344727
1738005702997742800,1.588742919921875,-34.705108642578125,-18.374610900878906,-15.803024291992188
1738005703007811800,1.598811767578125,-34.767608642578125,-18.588111877441406,-15.792001724243164
1738005703017880800,1.608880859375,-34.576690673828125,-18.307388305664062,-15.564367294311523
1738005703027949800,1.61894970703125,-34.476287841796875,-18.21441650390625,-15.49569320678711
1738005703038018000,1.62901806640625,-34.541290283203125,-18.416824340820312,-15.463878631591797
1738005703048086800,1.639086669921875,-34.401519775390625,-18.253097534179688,-15.366983413696289
1738005703058156000,1.649156005859375,-34.257537841796875,-18.3642578125,-15.416658401489258
1738005703068225000,1.65922509765625,-34.094818115234375,-18.203933715820312,-15.241327285766602
1738005703078292700,1.669292724609375,-34.111907958984375,-18.26032257080078,-15.354927062988281
1738005703088362000,1.679362060546875,-34.338958740234375,-18.27374267578125,-15.465362548828125
1738005703098431000,1.689430908203125,-34.262298583984375,-18.22826385498047,-15.440040588378906
1738005703108500000,1.6995,-34.166473388671875,-18.13915252685547,-15.55438232421875
1738005703118569000,1.70956884765625,-34.022186279296875,-18.05657958984375,-15.296102523803711
1738005703128637000,1.719636962890625,-33.851287841796875,-17.917648315429688,-15.077301025390625
1738005703138706000,1.729705810546875,-33.807952880859375,-18.054214477539062,-15.140901565551758
1738005703148775000,1.73977490234375,-34.057952880859375,-18.04864501953125,-15.362934112548828
1738005703158844000,1.749843994140625,-34.166046142578125,-18.071014404296875,-15.372627258300781
1738005703168912000,1.759911865234375,-34.210296630859375,-17.85535430908203,-15.58538818359375
1738005703178980900,1.76998095703125,-33.668243408203125,-17.939239501953125,-15.252857208251953
1738005703189049900,1.7800498046875,-34.057403564453125,-17.943618774414062,-15.607179641723633
1738005703199118800,1.790118896484375,-34.553009033203125,-17.88262939453125,-15.642450332641602
1738005703209188000,1.80018798828125,-34.091827392578125,-17.746749877929688,-15.33017349243164
1738005703219255800,1.810255859375,-34.213592529296875,-17.84272003173828,-15.501598358154297
1738005703229324800,1.82032470703125,-34.052886962890625,-17.620391845703125,-15.579315185546875
1738005703239394000,1.83039404296875,-33.725738525390625,-17.953697204589844,-15.477188110351562
1738005703249462800,1.840462890625,-34.124847412109375,-17.92900848388672,-15.43470573425293
1738005703259532000,1.850531982421875,-34.095001220703125,-17.97222137451172,-15.287343978881836
1738005703269600000,1.86060009765625,-34.163787841796875,-18.045143127441406,-15.455591201782227
1738005703279668700,1.870668701171875,-34.164215087890625,-17.933578491210938,-15.410318374633789
1738005703289738000,1.880738037109375,-34.006195068359375,-18.159286499023438,-15.721933364868164
1738005703299806700,1.890806640625,-34.439361572265625,-18.26911163330078,-15.788167953491211
1738005703309876000,1.9008759765625,-33.998931884765625,-18.020362854003906,-15.867887496948242
1738005703319944000,1.91094384765625,-34.657623291015625,-18.24439239501953,-15.877470016479492
1738005703330012700,1.9210126953125,-34.782623291015625,-18.249237060546875,-15.814325332641602
1738005703340082000,1.93108203125,-34.321014404296875,-18.28192901611328,-15.841163635253906
1738005703350151000,1.94115087890625,-34.467010498046875,-18.318153381347656,-15.915281295776367
1738005703360219000,1.951218994140625,-34.259246826171875,-18.298797607421875,-15.714126586914062
1738005703370287900,1.961287841796875,-34.143829345703125,-18.363418579101562,-15.946760177612305
1738005703380356900,1.97135693359375,-34.326690673828125,-18.186767578125,-15.628477096557617
1738005703390425900,1.98142578125,-34.423309326171875,-18.14942169189453,-15.708047866821289
1738005703400494800,1.991494873046875,-34.148529052734375,-18.0953369140625,-15.438735961914062
1738005703410563000,2.00156298828125,-34.197418212890625,-18.17267608642578,-15.657756805419922
1738005703420631800,2.0116318359375,-34.219146728515625,-18.118331909179688,-15.658231735229492
1738005703430701000,2.021701171875,-34.242706298828125,-18.206878662109375,-15.737115859985352
1738005703440769800,2.031769775390625,-34.474822998046875,-18.199020385742188,-15.92384147644043
1738005703450838800,2.0418388671875,-34.394989013671875,-18.374000549316406,-15.765520095825195
1738005703460907000,2.051906982421875,-34.321258544921875,-18.449874877929688,-15.762443542480469
1738005703470976000,2.06197607421875,-34.386749267578125,-18.359542846679688,-15.699674606323242
1738005703481045000,2.072044921875,-34.201629638671875,-18.326034545898438,-15.822887420654297
1738005703491114000,2.082114013671875,-34.463897705078125,-18.111488342285156,-15.68588638305664
1738005703501182700,2.0921826171875,-34.729095458984375,-18.027198791503906,-15.798320770263672
1738005703511251000,2.1022509765625,-34.541229248046875,-17.915328979492188,-15.557235717773438
1738005703521320000,2.11231982421875,-34.254119873046875,-18.018165588378906,-15.650701522827148
1738005703531389000,2.122388916015625,-34.669525146484375,-18.00261688232422,-15.509502410888672
1738005703541458000,2.1324580078125,-34.626495361328125,-17.917098999023438,-15.588386535644531
1738005703551527000,2.14252685546875,-34.825897216796875,-18.26433563232422,-15.958337783813477
1738005703561595100,2.15259521484375,-34.340118408203125,-18.27826690673828,-15.981464385986328
1738005703571664400,2.162664306640625,-34.049774169921875,-17.941123962402344,-15.973386764526367
1738005703581733000,2.172733154296875,-34.098785400390625,-17.977821350097656,-15.915416717529297
1738005703591802400,2.18280224609375,-34.299713134765625,-18.280906677246094,-15.829601287841797
1738005703601871400,2.192871337890625,-34.112945556640625,-18.19550323486328,-15.727750778198242
1738005703611939000,2.20293896484375,-34.270355224609375,-17.9949951171875,-15.542051315307617
1738005703622008300,2.21300830078125,-33.937530517578125,-17.80274200439453,-15.523029327392578
1738005703632077300,2.223077392578125,-34.081207275390625,-18.187339782714844,-15.561235427856445
1738005703642146300,2.233146240234375,-33.848052978515625,-17.89112091064453,-15.822402954101562
1738005703652215300,2.24321533203125,-34.193450927734375,-17.844818115234375,-15.660608291625977
1738005703662283300,2.253283203125,-33.808624267578125,-17.993362426757812,-15.387212753295898
1738005703672352300,2.263352294921875,-33.940704345703125,-17.94341278076172,-15.801048278808594
1738005703682421200,2.273421142578125,-34.185943603515625,-18.230453491210938,-15.604928970336914
1738005703692490200,2.283490234375,-34.414337158203125,-18.203872680664062,-15.549406051635742
1738005703702559200,2.293559326171875,-34.160736083984375,-18.125099182128906,-15.557106018066406
1738005703712627200,2.303627197265625,-34.243499755859375,-18.104049682617188,-15.633056640625
1738005703722696200,2.3136962890625,-34.094451904296875,-18.019180297851562,-15.591764450073242
1738005703732765200,2.32376513671875,-34.241363525390625,-18.220077514648438,-15.821889877319336
1738005703742834400,2.33383447265625,-34.409149169921875,-18.193572998046875,-15.885932922363281
1738005703752903200,2.343903076171875,-33.837493896484375,-17.96381378173828,-15.916942596435547
1738005703762971100,2.35397119140625,-33.601898193359375,-18.03766632080078,-15.728593826293945
1738005703773040400,2.364040283203125,-33.704010009765625,-18.175750732421875,-15.504402160644531
1738005703783109000,2.374109130859375,-34.030120849609375,-18.201858520507812,-15.720930099487305
1738005703793178400,2.384178466796875,-33.751983642578125,-18.2552490234375,-15.709112167358398
1738005703803247000,2.3942470703125,-33.955902099609375,-18.123428344726562,-15.949590682983398
1738005703813316400,2.40431640625,-34.137847900390625,-18.071929931640625,-16.050704956054688
1738005703823384300,2.41438427734375,-33.881744384765625,-18.186691284179688,-15.96226692199707
1738005703833453000,2.424453125,-33.710540771484375,-18.220626831054688,-15.851022720336914
1738005703843522300,2.434522216796875,-33.811920166015625,-18.19129180908203,-15.968059539794922
1738005703853591300,2.44459130859375,-33.990631103515625,-18.237136840820312,-16.0721435546875
1738005703863660300,2.454660400390625,-33.518585205078125,-18.124534606933594,-16.099163055419922
1738005703873728300,2.464728271484375,-33.527008056640625,-18.35425567626953,-15.871297836303711
1738005703883797200,2.47479736328125,-33.935821533203125,-18.56719970703125,-16.152633666992188
1738005703893866200,2.4848662109375,-33.588470458984375,-18.547813415527344,-15.962011337280273
1738005703903935200,2.494935302734375,-33.290863037109375,-18.277374267578125,-15.928094863891602
1738005703914004200,2.505004150390625,-33.993927001953125,-18.546485900878906,-16.14801597595215
1738005703924072200,2.515072265625,-33.850006103515625,-18.5152587890625,-16.02443504333496
1738005703934141200,2.52514111328125,-34.028045654296875,-18.301979064941406,-15.906366348266602
1738005703944210200,2.535210205078125,-33.701446533203125,-18.21056365966797,-15.918304443359375
1738005703954279200,2.545279052734375,-33.934234619140625,-18.349945068359375,-15.771444320678711
1738005703964348400,2.555348388671875,-34.001190185546875,-18.38420867919922,-15.729471206665039
1738005703974417200,2.565417236328125,-34.123260498046875,-18.36151885986328,-15.694765090942383
1738005703984485400,2.5754853515625,-34.099090576171875,-18.17688751220703,-15.447792053222656
1738005703994554400,2.585554443359375,-33.981903076171875,-18.49213409423828,-15.892387390136719
1738005704004623000,2.595623046875,-33.835601806640625,-18.17156982421875,-15.797056198120117
1738005704014692400,2.6056923828125,-34.096343994140625,-18.17986297607422,-15.986082077026367
1738005704024761000,2.615760986328125,-34.191802978515625,-18.153846740722656,-15.937652587890625
1738005704034829300,2.625829345703125,-33.865875244140625,-18.347625732421875,-15.717741012573242
1738005704044898300,2.635898193359375,-33.781646728515625,-18.254974365234375,-15.759454727172852
1738005704054967000,2.645967041015625,-33.971160888671875,-18.333938598632812,-15.700286865234375
1738005704065036300,2.656036376953125,-34.263641357421875,-18.323272705078125,-15.795259475708008
1738005704075105300,2.666105224609375,-34.052398681640625,-18.359100341796875,-15.911592483520508
1738005704085174300,2.67617431640625,-34.292266845703125,-18.36200714111328,-16.040817260742188
1738005704095242200,2.6862421875,-34.615142822265625,-18.342933654785156,-15.812992095947266
1738005704105311200,2.696311279296875,-34.082794189453125,-18.49578857421875,-15.852529525756836
1738005704115380200,2.706380126953125,-34.127044677734375,-18.389022827148438,-16.02864646911621
1738005704125449200,2.71644921875,-34.434112548828125,-18.35504150390625,-15.899749755859375
1738005704135518200,2.726518310546875,-34.734405517578125,-18.264404296875,-16.002614974975586
1738005704145587200,2.736587158203125,-34.245269775390625,-18.205459594726562,-16.049541473388672
1738005704155655400,2.746655517578125,-33.884918212890625,-18.19683837890625,-15.91865348815918
1738005704165724200,2.75672412109375,-34.353912353515625,-18.315475463867188,-15.976448059082031
1738005704175793200,2.766793212890625,-34.684967041015625,-18.321929931640625,-16.041635513305664
1738005704185862400,2.7768623046875,-34.566314697265625,-18.15386962890625,-15.918008804321289
1738005704195931100,2.78693115234375,-34.644317626953125,-18.062881469726562,-15.790876388549805
1738005704205999400,2.796999267578125,-34.292449951171875,-18.25092315673828,-15.714010238647461
1738005704216068400,2.807068359375,-34.646148681640625,-18.2940673828125,-15.733003616333008
1738005704226137000,2.81713720703125,-34.437713623046875,-18.31542205810547,-15.868963241577148
1738005704236206300,2.827206298828125,-34.276947021484375,-18.288955688476562,-15.834970474243164
1738005704246275000,2.837275146484375,-34.292022705078125,-18.537185668945312,-15.660518646240234
1738005704256344300,2.84734423828125,-34.537567138671875,-18.462486267089844,-15.847635269165039
1738005704266412300,2.857412353515625,-34.827362060546875,-18.347259521484375,-15.532476425170898
1738005704276481300,2.867481201171875,-34.893890380859375,-18.062530517578125,-15.840536117553711
1738005704286550300,2.87755029296875,-34.491058349609375,-18.487777709960938,-15.683464050292969
1738005704296619300,2.887619384765625,-34.503509521484375,-18.69806671142578,-15.896444320678711
1738005704306688300,2.897688232421875,-34.441558837890625,-18.711936950683594,-16.07643699645996
1738005704316757200,2.90775732421875,-34.160430908203125,-18.569610595703125,-15.65301513671875
1738005704326825500,2.917825439453125,-34.365692138671875,-18.794296264648438,-15.796945571899414
1738005704336894200,2.927894287109375,-34.428863525390625,-18.793960571289062,-15.715715408325195
1738005704346963200,2.937963134765625,-34.088958740234375,-18.93170928955078,-15.540155410766602
1738005704357032200,2.9480322265625,-34.167633056640625,-18.76080322265625,-15.579536437988281
1738005704367101200,2.95810107421875,-34.042755126953125,-18.684860229492188,-15.630392074584961
1738005704377170400,2.96817041015625,-34.490203857421875,-18.772186279296875,-15.673137664794922
1738005704387238100,2.978238037109375,-34.410064697265625,-18.547088623046875,-15.486797332763672
1738005704397307100,2.98830712890625,-34.890899658203125,-18.723243713378906,-15.629161834716797
1738005704407376400,2.99837646484375,-34.623626708984375,-18.886390686035156,-15.695220947265625
1738005704417445000,3.008445068359375,-34.813507080078125,-18.816268920898438,-15.313764572143555
1738005704427514400,3.018514404296875,-35.193572998046875,-18.647689819335938,-15.396675109863281
1738005704437583000,3.0285830078125,-34.914459228515625,-18.77826690673828,-15.691884994506836
1738005704447651300,3.0386513671875,-35.190643310546875,-18.60332489013672,-15.957426071166992
1738005704457720300,3.04872021484375,-35.446624755859375,-18.3021240234375,-15.79144287109375
1738005704467789000,3.0587890625,-35.082427978515625,-18.339622497558594,-15.7110595703125
1738005704477858300,3.0688583984375,-34.665618896484375,-18.317237854003906,-15.538808822631836
1738005704487927300,3.07892724609375,-35.021636962890625,-18.210723876953125,-15.578388214111328
1738005704497996300,3.088996337890625,-34.914031982421875,-18.461318969726562,-15.598682403564453
1738005704508064300,3.099064208984375,-35.097015380859375,-18.26258087158203,-15.822635650634766
1738005704518133200,3.10913330078125,-35.020782470703125,-18.104591369628906,-15.629270553588867
1738005704528202200,3.1192021484375,-35.174346923828125,-18.141708374023438,-15.616765975952148
1738005704538271200,3.129271240234375,-34.872161865234375,-18.054054260253906,-15.68923568725586
1738005704548340200,3.13934033203125,-35.349029541015625,-17.998641967773438,-15.764932632446289
1738005704558409200,3.1494091796875,-35.711151123046875,-17.596656799316406,-15.619680404663086
1738005704568477200,3.159477294921875,-35.354339599609375,-17.60088348388672,-15.761882781982422
1738005704578546000,3.1695458984375,-35.745452880859375,-17.49535369873047,-15.802103042602539
1738005704588615200,3.179615234375,-35.484954833984375,-17.18267822265625,-15.51724624633789
1738005704598684200,3.18968408203125,-35.829132080078125,-17.35279083251953,-15.687307357788086
1738005704608753200,3.199753173828125,-35.739959716796875,-17.209434509277344,-15.57699966430664
1738005704618822100,3.209822265625,-36.012481689453125,-17.092788696289062,-15.587970733642578
1738005704628890000,3.21989013671875,-36.102020263671875,-16.87012481689453,-15.761905670166016
1738005704638959000,3.229958984375,-36.112396240234375,-16.60131072998047,-15.772932052612305
1738005704649028000,3.240028076171875,-36.408843994140625,-16.511878967285156,-15.587583541870117
1738005704659097000,3.25009716796875,-36.340423583984375,-16.76336669921875,-15.51699447631836
1738005704669166000,3.260166015625,-36.322113037109375,-16.58257293701172,-15.511695861816406
1738005704679235300,3.2702353515625,-36.468231201171875,-16.511276245117188,-15.55471420288086
1738005704689303000,3.280302978515625,-36.164031982421875,-16.71564483642578,-15.46263313293457
1738005704699372000,3.2903720703125,-36.174041748046875,-16.622459411621094,-15.459577560424805
1738005704709441300,3.300441162109375,-36.194732666015625,-16.071762084960938,-15.408254623413086
1738005704719510000,3.310510009765625,-35.889984130859375,-15.42718505859375,-15.579568862915039
1738005704729579300,3.320579345703125,-36.614715576171875,-14.774528503417969,-15.494802474975586
1738005704739648000,3.33064794921875,-36.956451416015625,-14.325187683105469,-15.962638854980469
1738005704749716000,3.340716064453125,-36.512359619140625,-13.494407653808594,-16.369409561157227
1738005704759785200,3.35078515625,-36.392059326171875,-13.015083312988281,-16.930160522460938
1738005704769854000,3.36085400390625,-36.260284423828125,-12.536392211914062,-17.086076736450195
1738005704779923200,3.370923095703125,-36.623809814453125,-12.294502258300781,-17.425304412841797
1738005704789992200,3.3809921875,-36.668670654296875,-12.160797119140625,-17.558998107910156
1738005704800061200,3.391061279296875,-36.588226318359375,-12.334686279296875,-17.80496597290039
1738005704810129200,3.401129150390625,-36.624725341796875,-12.425025939941406,-17.714506149291992
1738005704820198100,3.4111982421875,-36.354461669921875,-12.656852722167969,-17.423194885253906
1738005704830267100,3.42126708984375,-36.428802490234375,-12.722343444824219,-17.41788673400879
1738005704840336100,3.431336181640625,-36.554901123046875,-13.360549926757812,-17.361818313598633
1738005704850405000,3.441405029296875,-36.675994873046875,-13.535881042480469,-16.996854782104492
1738005704860474000,3.45147412109375,-36.799102783203125,-14.014442443847656,-16.7449951171875
1738005704870542000,3.4615419921875,-36.714752197265625,-14.389022827148438,-16.7635440826416
1738005704880611000,3.471611083984375,-36.412200927734375,-14.951263427734375,-16.558353424072266
1738005704890680000,3.48168017578125,-36.566497802734375,-14.982963562011719,-16.289634704589844
1738005704900749300,3.491749267578125,-36.634124755859375,-15.239753723144531,-16.080808639526367
1738005704910818000,3.501818115234375,-36.403472900390625,-15.333702087402344,-16.233592987060547
1738005704920887300,3.51188720703125,-35.919891357421875,-15.079421997070312,-16.033302307128906
1738005704930956000,3.5219560546875,-36.181549072265625,-15.383377075195312,-15.785528182983398
1738005704941024000,3.53202392578125,-36.537567138671875,-15.6461181640625,-15.886943817138672
1738005704951093200,3.54209326171875,-36.598541259765625,-15.415245056152344,-15.682865142822266
1738005704961162000,3.552161865234375,-36.949005126953125,-15.430130004882812,-15.447418212890625
1738005704971231200,3.562231201171875,-36.897125244140625,-15.55682373046875,-15.341602325439453
1738005704981300200,3.57230029296875,-37.040740966796875,-15.540252685546875,-15.184684753417969
1738005704991369200,3.582369140625,-37.008819580078125,-15.276329040527344,-15.176942825317383
1738005705001437200,3.592437255859375,-37.303924560546875,-15.366401672363281,-15.137985229492188
1738005705011506200,3.602506103515625,-37.045196533203125,-15.33709716796875,-15.01174545288086
1738005705021575200,3.6125751953125,-37.000091552734375,-15.294609069824219,-15.005834579467773
1738005705031644200,3.62264404296875,-36.943511962890625,-15.22607421875,-15.217964172363281
1738005705041713200,3.632713134765625,-37.177703857421875,-15.551055908203125,-15.423553466796875
1738005705051782100,3.6427822265625,-36.891815185546875,-15.576148986816406,-15.399389266967773
1738005705061851100,3.65285107421875,-36.737823486328125,-15.759468078613281,-15.691980361938477
1738005705071919000,3.662919189453125,-36.406280517578125,-15.843109130859375,-15.593307495117188
1738005705081988000,3.672988037109375,-36.423553466796875,-15.948753356933594,-15.656700134277344
1738005705092057300,3.683057373046875,-36.507965087890625,-15.959007263183594,-15.692251205444336
1738005705102126000,3.6931259765625,-36.502532958984375,-16.186630249023438,-15.380826950073242
1738005705112195300,3.7031953125,-36.564117431640625,-16.47997283935547,-15.454011917114258
1738005705122264000,3.71326416015625,-36.403045654296875,-16.474884033203125,-15.220947265625
1738005705132332000,3.72333203125,-36.213165283203125,-16.464874267578125,-15.162866592407227
1738005705142401300,3.7334013671875,-36.308258056640625,-16.64189910888672,-15.153976440429688
1738005705152470000,3.743469970703125,-36.435699462890625,-16.598533630371094,-15.171106338500977
1738005705162539300,3.753539306640625,-36.478118896484375,-16.58202362060547,-15.167631149291992
1738005705172608300,3.763608154296875,-36.231353759765625,-16.495445251464844,-15.191104888916016
1738005705182677000,3.773677001953125,-36.186492919921875,-16.73003387451172,-15.12138557434082
1738005705192745200,3.7837451171875,-35.865814208984375,-16.74536895751953,-15.29840087890625
1738005705202814200,3.793814208984375,-35.956634521484375,-16.939437866210938,-15.413654327392578
1738005705212883200,3.80388330078125,-35.900054931640625,-16.87029266357422,-15.499061584472656
1738005705222952200,3.8139521484375,-35.968963623046875,-16.93065643310547,-15.438671112060547
1738005705233021200,3.824021240234375,-35.970550537109375,-16.427040100097656,-15.331634521484375
1738005705243090200,3.834090087890625,-36.033782958984375,-16.476295471191406,-15.547708511352539
1738005705253159200,3.8441591796875,-36.113800048828125,-16.39124298095703,-15.420053482055664
1738005705263227100,3.85422705078125,-35.971954345703125,-16.138938903808594,-15.441608428955078
1738005705273296100,3.864296142578125,-35.690338134765625,-16.221641540527344,-15.721321105957031
1738005705283365400,3.874365478515625,-35.805633544921875,-15.995170593261719,-15.771280288696289
1738005705293434000,3.88443408203125,-35.805206298828125,-16.041107177734375,-15.589231491088867
1738005705303503000,3.894503173828125,-35.649078369140625,-16.036880493164062,-15.665494918823242
1738005705313572000,3.904572021484375,-35.904998779296875,-15.872505187988281,-15.898643493652344
1738005705323640000,3.91464013671875,-36.541534423828125,-15.789810180664062,-16.08439826965332
1738005705333709300,3.924709228515625,-36.587432861328125,-15.755653381347656,-16.08709716796875
1738005705343778000,3.934778076171875,-36.288970947265625,-15.583908081054688,-16.06795310974121
1738005705353847300,3.944847412109375,-36.717376708984375,-15.550933837890625,-16.370140075683594
1738005705363916000,3.954916015625,-36.607147216796875,-15.325508117675781,-16.0930233001709
1738005705373985000,3.964985107421875,-36.283233642578125,-15.655189514160156,-16.199825286865234
1738005705384053200,3.97505322265625,-36.481842041015625,-15.634353637695312,-16.119718551635742
1738005705394122200,3.985122314453125,-36.127532958984375,-15.849876403808594,-16.364545822143555
1738005705404191200,3.995191162109375,-36.513641357421875,-15.790611267089844,-16.37373161315918
1738005705414260200,4.00526025390625,-36.658233642578125,-15.757118225097656,-16.257709503173828
1738005705424329000,4.015328857421875,-36.428985595703125,-15.703109741210938,-15.866338729858398
1738005705434398200,4.025398193359375,-36.407318115234375,-15.367866516113281,-16.092723846435547
1738005705444466200,4.035466064453125,-36.283599853515625,-15.387619018554688,-15.919776916503906
1738005705454535200,4.04553515625,-36.236541748046875,-15.304527282714844,-15.777986526489258
1738005705464604200,4.055604248046875,-36.276336669921875,-15.348686218261719,-15.92938232421875
1738005705474673200,4.065673095703125,-36.482879638671875,-15.22796630859375,-15.565900802612305
1738005705484742100,4.0757421875,-36.416778564453125,-15.244331359863281,-15.706371307373047
1738005705494811100,4.08581103515625,-36.588348388671875,-15.245841979980469,-15.684818267822266
1738005705504880000,4.095880126953125,-36.417144775390625,-15.37750244140625,-15.622138977050781
1738005705514948000,4.105947998046875,-36.429229736328125,-15.347557067871094,-15.722782135009766
1738005705525017300,4.116017333984375,-36.364837646484375,-15.271354675292969,-15.703100204467773
1738005705535086000,4.126086181640625,-36.289886474609375,-15.120643615722656,-15.83746337890625
1738005705545155000,4.136155029296875,-36.285491943359375,-14.880279541015625,-15.800363540649414
1738005705555224000,4.14622412109375,-36.217071533203125,-15.166313171386719,-15.898265838623047
1738005705565293000,4.15629296875,-36.066314697265625,-14.999992370605469,-15.876123428344727
1738005705575361300,4.166361328125,-35.936065673828125,-15.100570678710938,-16.090116500854492
1738005705585430300,4.17643017578125,-35.826019287109375,-15.313148498535156,-16.44304656982422
1738005705595499300,4.186499267578125,-35.643402099609375,-15.759567260742188,-16.363618850708008
1738005705605568300,4.196568359375,-36.020660400390625,-15.608184814453125,-16.38201332092285
1738005705615637200,4.20663720703125,-35.885955810546875,-15.553268432617188,-16.2835693359375
1738005705625706200,4.216706298828125,-35.790924072265625,-15.522377014160156,-16.29460906982422
1738005705635775000,4.22677490234375,-36.074615478515625,-15.492561340332031,-16.39327621459961
1738005705645843200,4.23684326171875,-35.931976318359375,-14.916259765625,-16.655166625976562
1738005705655912200,4.246912109375,-35.913360595703125,-14.531036376953125,-16.661304473876953
1738005705665981200,4.256981201171875,-36.118316650390625,-14.249046325683594,-16.702829360961914
1738005705676050200,4.26705029296875,-35.878265380859375,-14.192047119140625,-16.742767333984375
1738005705686119200,4.277119140625,-36.167327880859375,-14.0169677734375,-16.452667236328125
1738005705696188200,4.287188232421875,-36.458892822265625,-13.798973083496094,-16.242908477783203
1738005705706256100,4.297256103515625,-36.452606201171875,-13.655815124511719,-16.25303840637207
1738005705716325400,4.307325439453125,-36.600738525390625,-13.939796447753906,-16.438928604125977
1738005705726394000,4.31739404296875,-36.482635498046875,-13.941207885742188,-16.40235710144043
1738005705736463400,4.32746337890625,-36.539215087890625,-14.356788635253906,-16.49789810180664
1738005705746532000,4.337531982421875,-36.639678955078125,-14.789527893066406,-16.58975601196289
1738005705756601000,4.34760107421875,-35.959197998046875,-14.8310546875,-16.634719848632812
1738005705766669300,4.35766943359375,-36.119232177734375,-15.396316528320312,-16.844375610351562
1738005705776738000,4.367738037109375,-36.153289794921875,-15.637657165527344,-16.945646286010742
1738005705786807300,4.377807373046875,-35.536834716796875,-16.029701232910156,-17.166284561157227
1738005705796876300,4.387876220703125,-35.349273681640625,-16.081588745117188,-16.74247932434082
1738005705806945000,4.397945068359375,-35.167266845703125,-16.63213348388672,-16.80727767944336
1738005705817014300,4.40801416015625,-35.126678466796875,-17.00774383544922,-16.70905113220215
1738005705827083000,4.4180830078125,-35.082916259765625,-17.0955810546875,-16.62036895751953
1738005705837151200,4.428151123046875,-35.089263916015625,-17.438034057617188,-16.310821533203125
1738005705847220200,4.43822021484375,-35.056671142578125,-17.663665771484375,-16.08551788330078
1738005705857289000,4.4482890625,-35.433807373046875,-17.77770233154297,-15.974946975708008
1738005705867358200,4.458358154296875,-35.500946044921875,-17.691680908203125,-15.695085525512695
1738005705877427200,4.46842724609375,-35.409759521484375,-17.598251342773438,-15.547338485717773
1738005705887496200,4.47849609375,-35.520538330078125,-17.640037536621094,-15.40157699584961
1738005705897564200,4.488564208984375,-35.261199951171875,-18.077438354492188,-15.391845703125
1738005705907633400,4.49863330078125,-35.160186767578125,-18.119300842285156,-15.324628829956055
1738005705917702100,4.5087021484375,-35.211883544921875,-18.243148803710938,-15.083684921264648
1738005705927771100,4.518771240234375,-35.451568603515625,-18.107177734375,-14.644556045532227
1738005705937840000,4.528840087890625,-35.253875732421875,-18.4771728515625,-14.703399658203125
1738005705947909000,4.5389091796875,-35.013946533203125,-18.746055603027344,-14.541725158691406
1738005705957977300,4.548977294921875,-34.967010498046875,-18.856781005859375,-14.754192352294922
1738005705968046000,4.559046142578125,-34.785430908203125,-19.02397918701172,-14.460000991821289
1738005705978115000,4.569114990234375,-34.924041748046875,-19.25409698486328,-14.539640426635742
1738005705988184300,4.579184326171875,-34.564361572265625,-19.42237091064453,-14.452447891235352
1738005705998253000,4.589253173828125,-34.701080322265625,-19.223487854003906,-14.468130111694336
1738005706008322300,4.599322265625,-34.318328857421875,-19.358360290527344,-14.563011169433594
1738005706018391000,4.60939111328125,-34.499420166015625,-19.3673095703125,-14.691177368164062
1738005706028459000,4.619458984375,-34.705169677734375,-19.565628051757812,-14.620946884155273
1738005706038528300,4.6295283203125,-34.618011474609375,-19.445457458496094,-14.722955703735352
1738005706048597000,4.639596923828125,-34.451995849609375,-19.64160919189453,-14.852907180786133
1738005706058666200,4.649666259765625,-34.366180419921875,-19.40704345703125,-14.764686584472656
1738005706068735200,4.6597353515625,-34.468109130859375,-19.58441925048828,-14.594406127929688
1738005706078804200,4.66980419921875,-34.769989013671875,-19.465553283691406,-14.355873107910156
1738005706088872200,4.6798720703125,-34.612518310546875,-19.444564819335938,-14.417055130004883
1738005706098941200,4.689941162109375,-34.583709716796875,-19.425262451171875,-14.38922119140625
1738005706109010200,4.70001025390625,-35.150238037109375,-19.69249725341797,-14.267980575561523
1738005706119079200,4.7100791015625,-34.793914794921875,-19.65258026123047,-14.394189834594727
1738005706129148200,4.720148193359375,-34.611846923828125,-19.54882049560547,-14.169317245483398
1738005706139217200,4.730217041015625,-34.311920166015625,-19.63037872314453,-14.053268432617188
1738005706149285000,4.74028515625,-34.214935302734375,-19.572891235351562,-13.894116401672363
1738005706159354000,4.75035400390625,-34.300445556640625,-19.66082763671875,-14.213218688964844
1738005706169423000,4.760423095703125,-34.509307861328125,-19.258407592773438,-13.981382369995117
1738005706179492400,4.770492431640625,-34.680511474609375,-19.311119079589844,-14.096124649047852
1738005706189561000,4.78056103515625,-34.392242431640625,-19.14556121826172,-13.963338851928711
1738005706199630300,4.79063037109375,-34.392303466796875,-19.273109436035156,-13.841886520385742
1738005706209699000,4.800698974609375,-34.776702880859375,-19.52428436279297,-13.754792213439941
1738005706219767000,4.81076708984375,-34.541656494140625,-19.285079956054688,-13.818500518798828
1738005706229836300,4.820836181640625,-34.407989501953125,-19.194488525390625,-13.745843887329102
1738005706239905000,4.830905029296875,-34.806182861328125,-19.234397888183594,-13.8748779296875
1738005706249974300,4.840974365234375,-35.003509521484375,-19.284934997558594,-13.885284423828125
1738005706260043300,4.851043212890625,-34.930694580078125,-19.41387939453125,-14.031320571899414
1738005706270112300,4.8611123046875,-34.722686767578125,-19.362533569335938,-14.00141716003418
1738005706280180200,4.87118017578125,-34.751678466796875,-19.387283325195312,-14.141931533813477
1738005706290249200,4.881249267578125,-34.677459716796875,-19.220932006835938,-14.206365585327148
1738005706300318200,4.891318115234375,-34.678253173828125,-19.113929748535156,-13.970972061157227
1738005706310387200,4.90138720703125,-34.421356201171875,-19.280853271484375,-13.588024139404297
1738005706320456200,4.911456298828125,-34.217071533203125,-19.277053833007812,-13.599480628967285
1738005706330525200,4.921525146484375,-34.561798095703125,-19.363258361816406,-13.720590591430664
1738005706340594200,4.93159423828125,-34.969818115234375,-19.448875427246094,-13.748204231262207
1738005706350662100,4.941662109375,-34.872772216796875,-19.690399169921875,-13.763497352600098
1738005706360731100,4.951731201171875,-34.934234619140625,-19.5638427734375,-13.85727310180664
1738005706370800400,4.96180029296875,-34.613067626953125,-19.833740234375,-13.572443008422852
1738005706380869000,4.971869140625,-34.813812255859375,-19.91315460205078,-13.65453815460205
1738005706390938400,4.9819384765625,-34.357696533203125,-20.15667724609375,-13.5152006149292
1738005706401007000,4.992007080078125,-34.247650146484375,-20.069503784179688,-13.382255554199219
1738005706411075000,5.002074951171875,-34.313507080078125,-20.32396697998047,-13.185907363891602
1738005706421144300,5.012144287109375,-34.801177978515625,-20.132736206054688,-13.237546920776367
1738005706431213000,5.022213134765625,-34.913238525390625,-19.75732421875,-13.157842636108398
1738005706441282300,5.0322822265625,-34.808685302734375,-19.240257263183594,-13.059511184692383
1738005706451351000,5.04235107421875,-35.268341064453125,-19.173782348632812,-13.28608512878418
1738005706461420300,5.052420166015625,-35.181427001953125,-18.601043701171875,-13.463506698608398
1738005706471488300,5.06248828125,-35.095977783203125,-18.109298706054688,-13.461366653442383
1738005706481557200,5.07255712890625,-35.085113525390625,-18.122047424316406,-13.650345802307129
1738005706491626200,5.082626220703125,-35.001312255859375,-18.16944122314453,-13.96632194519043
1738005706501695200,5.0926953125,-34.844146728515625,-17.877365112304688,-13.957036972045898
1738005706511764200,5.10276416015625,-34.665008544921875,-17.500694274902344,-14.373743057250977
1738005706521833200,5.112833251953125,-35.131439208984375,-17.125267028808594,-14.513704299926758
1738005706531902000,5.12290185546875,-35.125213623046875,-16.911033630371094,-14.679988861083984
1738005706541970200,5.13297021484375,-35.121246337890625,-16.891830444335938,-14.795454025268555
1738005706552039200,5.1430390625,-34.465240478515625,-17.295936584472656,-14.58125114440918
1738005706562108200,5.153108154296875,-34.016937255859375,-17.550796508789062,-14.729986190795898
1738005706572177200,5.16317724609375,-34.113250732421875,-18.146461486816406,-14.67790412902832
1738005706582246100,5.17324609375,-34.186187744140625,-18.429428100585938,-14.595882415771484
1738005706592315000,5.18331494140625,-34.302886962890625,-18.683639526367188,-14.442541122436523
1738005706602383000,5.193383056640625,-33.992523193359375,-19.013694763183594,-14.076330184936523
1738005706612452000,5.2034521484375,-34.081146240234375,-18.87310028076172,-14.032840728759766
1738005706622521000,5.21352099609375,-33.898712158203125,-18.810264587402344,-13.895910263061523
1738005706632590000,5.223590087890625,-34.125762939453125,-18.602066040039062,-13.831777572631836
1738005706642659000,5.2336591796875,-34.058929443359375,-18.37354278564453,-13.795917510986328
1738005706652728000,5.24372802734375,-34.261871337890625,-18.65167999267578,-13.939332962036133
1738005706662796000,5.253796142578125,-34.217742919921875,-18.518409729003906,-13.690679550170898
1738005706672865300,5.263865234375,-34.232147216796875,-18.215538024902344,-14.02566909790039
1738005706682934000,5.27393408203125,-34.487701416015625,-18.297836303710938,-13.748796463012695
1738005706693003300,5.284003173828125,-34.569183349609375,-18.16350555419922,-13.755380630493164
1738005706703072000,5.294072021484375,-34.378875732421875,-18.09954071044922,-13.764120101928711
1738005706713141000,5.30414111328125,-34.007415771484375,-18.202606201171875,-13.707944869995117
1738005706723209200,5.314209228515625,-34.224822998046875,-18.17736053466797,-13.678945541381836
1738005706733278000,5.32427783203125,-34.104888916015625,-18.258811950683594,-13.937828063964844
1738005706743347200,5.33434716796875,-34.053436279296875,-18.243728637695312,-14.226913452148438
1738005706753416000,5.344416015625,-34.209686279296875,-18.25115966796875,-14.045318603515625
1738005706763485000,5.35448486328125,-34.313262939453125,-18.272720336914062,-14.123130798339844
1738005706773554200,5.36455419921875,-34.136871337890625,-18.449111938476562,-14.106622695922852
1738005706783623000,5.374622802734375,-34.153839111328125,-18.81018829345703,-14.26661491394043
1738005706793691100,5.384691162109375,-33.715728759765625,-19.08667755126953,-14.378223419189453
1738005706803760000,5.394760009765625,-33.241729736328125,-19.39215850830078,-14.370222091674805
1738005706813829000,5.4048291015625,-33.526947021484375,-19.490516662597656,-14.20158576965332
1738005706823898000,5.414898193359375,-32.961395263671875,-19.694473266601562,-14.052703857421875
1738005706833966800,5.424966796875,-32.789642333984375,-19.942955017089844,-13.806943893432617
1738005706844036000,5.4350361328125,-33.368560791015625,-20.06391143798828,-13.897790908813477
1738005706854104000,5.44510400390625,-32.740447998046875,-20.158370971679688,-13.750836372375488
1738005706864173000,5.455173095703125,-32.876129150390625,-20.0303955078125,-13.783523559570312
1738005706874242000,5.465241943359375,-32.882537841796875,-20.195205688476562,-13.618139266967773
1738005706884311000,5.47531103515625,-32.817474365234375,-20.274948120117188,-13.438329696655273
1738005706894380000,5.485380126953125,-32.494293212890625,-20.217674255371094,-13.5535249710083
1738005706904449000,5.495448974609375,-32.944793701171875,-20.2568359375,-13.77495002746582
1738005706914517200,5.505517333984375,-33.172698974609375,-20.170913696289062,-13.802984237670898
1738005706924586000,5.5155859375,-33.008331298828125,-20.36963653564453,-13.654853820800781
1738005706934655000,5.525655029296875,-32.839019775390625,-20.392784118652344,-13.581583023071289
1738005706944724000,5.535723876953125,-32.894073486328125,-20.357505798339844,-13.704940795898438
1738005706954793000,5.54579296875,-32.316375732421875,-20.43487548828125,-13.62353229522705
1738005706964862200,5.5558623046875,-32.421295166015625,-20.64134979248047,-13.621191024780273
1738005706974931000,5.565930908203125,-32.261566162109375,-20.96857452392578,-13.620240211486816
1738005706984999200,5.575999267578125,-32.590118408203125,-21.060287475585938,-13.507534980773926
1738005706995068200,5.586068115234375,-32.483062744140625,-21.04216766357422,-13.580808639526367
1738005707005137000,5.596136962890625,-32.660491943359375,-21.256561279296875,-13.554439544677734
1738005707015206100,5.6062060546875,-32.465240478515625,-21.552207946777344,-13.62215805053711
1738005707025275000,5.61627490234375,-32.166961669921875,-21.49016571044922,-13.500799179077148
1738005707035343000,5.626343017578125,-32.288238525390625,-21.489768981933594,-13.399006843566895
1738005707045412000,5.636412109375,-32.287078857421875,-21.583892822265625,-13.240636825561523
1738005707055480800,5.646480712890625,-32.169281005859375,-21.67865753173828,-13.122699737548828
1738005707065550000,5.656550048828125,-32.117401123046875,-21.399215698242188,-13.047117233276367
1738005707075619000,5.666619140625,-32.205230712890625,-21.52722930908203,-13.170287132263184
1738005707085688000,5.67668798828125,-32.230682373046875,-21.603416442871094,-13.028251647949219
1738005707095757000,5.686757080078125,-32.561737060546875,-21.626487731933594,-12.849050521850586
1738005707105825000,5.696824951171875,-32.822662353515625,-21.35698699951172,-12.864604949951172
1738005707115894000,5.70689404296875,-32.492156982421875,-21.733596801757812,-12.798666954040527
1738005707125963000,5.716962890625,-32.652984619140625,-21.377716064453125,-12.755176544189453
1738005707136032000,5.727031982421875,-32.516815185546875,-21.465232849121094,-12.671243667602539
1738005707146101000,5.73710107421875,-32.337127685546875,-21.445953369140625,-12.209646224975586
1738005707156170200,5.747170166015625,-32.220977783203125,-21.212799072265625,-12.088488578796387
1738005707166238000,5.757238037109375,-32.118194580078125,-21.25782012939453,-11.884404182434082
1738005707176307000,5.767306884765625,-32.178680419921875,-21.31127166748047,-11.880648612976074
1738005707186376200,5.777376220703125,-32.180145263671875,-21.442672729492188,-11.94162654876709
1738005707196445000,5.78744482421875,-32.038848876953125,-21.304367065429688,-11.943534851074219
1738005707206514200,5.79751416015625,-32.420013427734375,-21.432098388671875,-11.654138565063477
1738005707216583000,5.8075830078125,-32.460113525390625,-21.658836364746094,-11.495677947998047
1738005707226651000,5.81765087890625,-32.431610107421875,-21.862579345703125,-11.40571403503418
1738005707236720000,5.82772021484375,-32.357696533203125,-21.902786254882812,-11.473419189453125
1738005707246788900,5.837788818359375,-32.731658935546875,-22.20392608642578,-11.360780715942383
1738005707256858000,5.847858154296875,-32.539886474609375,-22.392181396484375,-11.466907501220703
1738005707266927000,5.857927001953125,-32.573944091796875,-22.356735229492188,-11.12856674194336
1738005707276996000,5.86799609375,-32.407073974609375,-22.573081970214844,-10.836722373962402
1738005707287064000,5.87806396484375,-32.250946044921875,-22.693336486816406,-10.902009010314941
1738005707297133000,5.888133056640625,-32.355987548828125,-22.75855255126953,-10.464902877807617
1738005707307202000,5.8982021484375,-32.336700439453125,-22.849822998046875,-10.553140640258789
1738005707317271000,5.90827099609375,-32.199493408203125,-23.017501831054688,-10.424327850341797
1738005707327340000,5.918340087890625,-31.851104736328125,-23.15996551513672,-10.339003562927246
1738005707337409000,5.928408935546875,-32.038909912109375,-23.533233642578125,-10.40655517578125
1738005707347477000,5.93847705078125,-32.366851806640625,-23.652488708496094,-10.233299255371094
1738005707357546000,5.9485458984375,-32.348114013671875,-23.97718048095703,-9.899551391601562
1738005707367615000,5.958614990234375,-32.231597900390625,-24.050315856933594,-9.685295104980469
1738005707377684200,5.968684326171875,-32.121185302734375,-24.024131774902344,-9.212640762329102
1738005707387753000,5.9787529296875,-31.863983154296875,-24.388893127441406,-8.686955451965332
1738005707397822200,5.988822265625,-32.041412353515625,-24.588943481445312,-8.489899635314941
1738005707407890200,5.99889013671875,-31.708099365234375,-24.756732940673828,-8.205671310424805
1738005707417959000,6.008958984375,-31.770599365234375,-24.67636489868164,-7.591705799102783
1738005707428028200,6.019028076171875,-31.435028076171875,-24.975330352783203,-7.125901222229004
1738005707438097000,6.029096923828125,-31.640106201171875,-25.214027404785156,-6.670586585998535
1738005707448166100,6.039166259765625,-31.605682373046875,-25.499942779541016,-6.2293701171875
1738005707458235100,6.049235107421875,-31.910003662109375,-25.47012710571289,-5.728176116943359
1738005707468302800,6.059302734375,-31.883148193359375,-25.547714233398438,-5.178103446960449
1738005707478372000,6.0693720703125,-31.727020263671875,-25.67275619506836,-4.315249919891357
1738005707488441000,6.079441162109375,-31.822174072265625,-25.897125244140625,-3.845524549484253
1738005707498510000,6.089510009765625,-31.699676513671875,-26.311321258544922,-3.3777413368225098
1738005707508579000,6.0995791015625,-31.700836181640625,-26.49798583984375,-2.8031303882598877
1738005707518648000,6.10964794921875,-31.749237060546875,-26.343555450439453,-1.9768478870391846
1738005707528716000,6.119716064453125,-31.756134033203125,-26.231979370117188,-1.1106266975402832
1738005707538785000,6.129784912109375,-31.682403564453125,-26.21099853515625,-0.48060178756713867
1738005707548854000,6.13985400390625,-31.648284912109375,-26.036800384521484,0.019147872924804688
1738005707558926800,6.1499267578125,-31.500762939453125,-26.219482421875,1.034912109375
1738005707568995800,6.159995849609375,-31.599395751953125,-26.370113372802734,1.5535821914672852
1738005707579064800,6.17006494140625,-31.683990478515625,-26.573196411132812,2.5404438972473145
1738005707589132800,6.1801328125,-31.926849365234375,-26.51266860961914,3.306148052215576
1738005707599201800,6.190201904296875,-31.780731201171875,-26.70557403564453,4.039823055267334
1738005707609270800,6.200270751953125,-31.745452880859375,-26.644153594970703,4.909618854522705
1738005707619339800,6.21033984375,-31.517547607421875,-26.32701873779297,5.455090045928955
1738005707629408800,6.22040869140625,-31.590423583984375,-26.138080596923828,6.579225063323975
1738005707639476700,6.230476806640625,-31.533905029296875,-25.913776397705078,7.060397624969482
1738005707649545700,6.240545654296875,-31.550567626953125,-25.659244537353516,7.455965518951416
1738005707659614700,6.25061474609375,-31.763641357421875,-25.695514678955078,7.599691867828369
1738005707669683700,6.26068359375,-31.682952880859375,-25.77047348022461,8.136390686035156
1738005707679752700,6.270752685546875,-31.789031982421875,-25.449501037597656,8.580194473266602
1738005707689821700,6.28082177734375,-31.668365478515625,-24.895671844482422,9.278392791748047
1738005707699889700,6.2908896484375,-31.656585693359375,-24.796875,9.749526977539062
1738005707709959000,6.300958984375,-31.782623291015625,-24.72394561767578,10.099796295166016
1738005707720027600,6.311027587890625,-31.854644775390625,-24.688648223876953,10.530776977539062
1738005707730097000,6.321096923828125,-31.771270751953125,-24.46112060546875,10.729860305786133
1738005707740165600,6.33116552734375,-32.085540771484375,-24.187522888183594,11.350048065185547
1738005707750235000,6.34123486328125,-32.027923583984375,-23.807510375976562,11.51496696472168
1738005707760302800,6.351302734375,-32.115325927734375,-23.497116088867188,12.011850357055664
1738005707770371600,6.36137158203125,-31.938629150390625,-22.98583221435547,12.53091812133789
1738005707780440800,6.37144091796875,-32.023834228515625,-22.662933349609375,12.582130432128906
1738005707790509800,6.381509765625,-32.132781982421875,-22.546852111816406,12.890390396118164
1738005707800578800,6.391578857421875,-32.408294677734375,-22.504241943359375,13.384187698364258
1738005707810647800,6.401647705078125,-32.219573974609375,-22.14794158935547,13.49288558959961
1738005707820715800,6.4117158203125,-32.277313232421875,-22.109405517578125,14.038030624389648
1738005707830784800,6.42178466796875,-32.548614501953125,-21.84758758544922,14.381702423095703
1738005707840853800,6.431853759765625,-32.230804443359375,-21.661293029785156,14.523811340332031
1738005707850922800,6.4419228515625,-32.253875732421875,-21.256072998046875,15.000778198242188
1738005707860991700,6.45199169921875,-32.123138427734375,-21.207015991210938,15.099063873291016
1738005707871060700,6.462060791015625,-32.453887939453125,-20.840240478515625,15.193809509277344
1738005707881128700,6.472128662109375,-32.664703369140625,-20.44671630859375,15.424478530883789
1738005707891197700,6.48219775390625,-32.845184326171875,-20.20684051513672,15.89395523071289
1738005707901266700,6.4922666015625,-32.574615478515625,-19.734786987304688,15.706850051879883
1738005707911335700,6.502335693359375,-32.555023193359375,-19.792823791503906,15.845752716064453
1738005707921405000,6.512405029296875,-32.769927978515625,-19.519317626953125,15.925924301147461
1738005707931473700,6.5224736328125,-32.531890869140625,-19.39678192138672,16.01050567626953
1738005707941541600,6.532541748046875,-32.502471923828125,-19.30510711669922,15.913192749023438
1738005707951611000,6.54261083984375,-32.326873779296875,-19.246963500976562,16.09246253967285
1738005707961679600,6.5526796875,-32.497161865234375,-19.39081573486328,16.511245727539062
1738005707971748900,6.562748779296875,-32.450775146484375,-19.26390838623047,16.51493263244629
1738005707981817600,6.572817626953125,-32.648284912109375,-19.157119750976562,16.699785232543945
1738005707991886800,6.582886962890625,-32.729522705078125,-18.461814880371094,16.87552833557129
1738005708001954800,6.592954833984375,-32.492401123046875,-18.720985412597656,16.887056350708008
1738005708012023800,6.60302392578125,-33.042327880859375,-18.42145538330078,17.168466567993164
1738005708022092800,6.6130927734375,-32.692779541015625,-18.400108337402344,17.479694366455078
1738005708032161800,6.623161865234375,-32.981414794921875,-18.19091033935547,17.57113265991211
1738005708042230800,6.633230712890625,-32.836761474609375,-18.246490478515625,17.560565948486328
1738005708052299800,6.6432998046875,-32.769805908203125,-18.097320556640625,17.564327239990234
1738005708062367700,6.65336767578125,-32.756500244140625,-17.839889526367188,17.906564712524414
1738005708072436700,6.663436767578125,-32.863616943359375,-18.035560607910156,18.049030303955078
1738005708082505700,6.673505615234375,-32.873870849609375,-17.9454345703125,18.346168518066406
1738005708092574700,6.68357470703125,-33.005828857421875,-17.906051635742188,18.29542350769043
1738005708102643700,6.693643798828125,-33.010162353515625,-18.036651611328125,18.399658203125
1738005708112713000,6.703712890625,-32.857147216796875,-17.660194396972656,18.47046661376953
1738005708122780700,6.71378076171875,-32.939300537109375,-17.340538024902344,18.534589767456055
1738005708132849700,6.723849609375,-32.989898681640625,-17.588851928710938,18.26833724975586
1738005708142919000,6.7339189453125,-33.106475830078125,-17.589797973632812,18.39537811279297
1738005708152987600,6.743987548828125,-32.839935302734375,-17.540283203125,18.733732223510742
1738005708163057000,6.754056884765625,-33.068206787109375,-17.72107696533203,18.522058486938477
1738005708173125600,6.764125732421875,-33.033538818359375,-17.47582244873047,18.861156463623047
1738005708183193600,6.774193603515625,-33.046722412109375,-17.558799743652344,18.881994247436523
1738005708193262800,6.784262939453125,-32.864044189453125,-17.722427368164062,19.04429817199707
1738005708203331600,6.79433154296875,-32.640289306640625,-17.7293701171875,19.079988479614258
1738005708213400800,6.80440087890625,-32.719024658203125,-17.604087829589844,19.069549560546875
1738005708223469800,6.8144697265625,-32.717437744140625,-17.34014129638672,18.934701919555664
1738005708233538800,6.824538818359375,-32.988739013671875,-17.39159393310547,19.07403564453125
1738005708243606800,6.834606689453125,-32.733551025390625,-17.466835021972656,18.84906578063965
1738005708253675800,6.84467578125,-33.243560791015625,-17.512832641601562,18.749591827392578
1738005708263744800,6.854744873046875,-32.950103759765625,-17.61981201171875,18.797080993652344
1738005708273813800,6.864813720703125,-32.787994384765625,-17.572830200195312,18.55164909362793
1738005708283882800,6.8748828125,-32.666046142578125,-17.97644805908203,18.47381591796875
1738005708293951700,6.88495166015625,-32.650482177734375,-18.15008544921875,18.57844352722168
1738005708304021000,6.89502099609375,-32.784149169921875,-17.905838012695312,18.652681350708008
1738005708314088700,6.905088623046875,-32.771209716796875,-18.03125,18.532995223999023
1738005708324157700,6.91515771484375,-32.801910400390625,-17.97064208984375,18.64580535888672
1738005708334227000,6.92522705078125,-33.002349853515625,-17.896629333496094,18.682344436645508
1738005708344295700,6.935295654296875,-32.942291259765625,-18.06084442138672,18.44547462463379
1738005708354365000,6.945364990234375,-32.532928466796875,-17.991355895996094,18.32503890991211
1738005708364433700,6.95543359375,-32.779388427734375,-17.68177032470703,18.60517692565918
1738005708374501600,6.965501708984375,-32.627349853515625,-17.880958557128906,18.668346405029297
1738005708384571000,6.97557080078125,-33.036102294921875,-17.745201110839844,18.54440689086914
1738005708394639600,6.9856396484375,-32.822479248046875,-17.947738647460938,18.723085403442383
1738005708404708900,6.995708984375,-32.689178466796875,-18.253334045410156,18.613069534301758
1738005708414777900,7.00577783203125,-32.445648193359375,-17.99761199951172,18.652515411376953
1738005708424846800,7.015846923828125,-32.587493896484375,-17.70037841796875,18.960187911987305
1738005708434914800,7.025914794921875,-32.409759521484375,-17.517784118652344,19.010116577148438
1738005708444983800,7.03598388671875,-32.327239990234375,-17.644454956054688,19.003541946411133
1738005708455052800,7.046052734375,-32.286895751953125,-17.935897827148438,18.775251388549805
1738005708465121800,7.056121826171875,-32.194183349609375,-17.77118682861328,19.031240463256836
1738005708475190800,7.066190673828125,-32.380645751953125,-17.99707794189453,19.058631896972656
1738005708485259800,7.076259765625,-32.278472900390625,-18.079727172851562,19.041027069091797
1738005708495327700,7.08632763671875,-32.382537841796875,-17.930419921875,19.11609649658203
1738005708505396700,7.096396728515625,-32.264312744140625,-18.084487915039062,19.03062629699707
1738005708515465700,7.1064658203125,-32.274200439453125,-18.319473266601562,18.91411590576172
1738005708525535000,7.116534912109375,-32.438690185546875,-18.26116943359375,19.00575828552246
1738005708535603700,7.126603759765625,-32.782684326171875,-18.246856689453125,18.89118766784668
1738005708545672700,7.136672607421875,-32.435577392578125,-18.195877075195312,18.892953872680664
1738005708555741000,7.146740966796875,-32.545867919921875,-18.20476531982422,18.958276748657227
1738005708565806600,7.156806640625,-32.826385498046875,-18.292205810546875,18.804231643676758
1738005708575875600,7.16687548828125,-32.426361083984375,-18.236351013183594,18.972944259643555
1738005708585944300,7.1769443359375,-32.246307373046875,-18.52782440185547,18.94851303100586
1738005708596013600,7.187013671875,-32.196075439453125,-18.50530242919922,18.99604034423828
1738005708606082600,7.19708251953125,-32.233612060546875,-18.437255859375,19.012636184692383
1738005708616150500,7.207150634765625,-32.417022705078125,-18.629562377929688,19.074068069458008
1738005708626219500,7.217219482421875,-31.887664794921875,-18.58740234375,19.191781997680664
1738005708636288800,7.227288818359375,-32.287261962890625,-18.320999145507812,19.10702133178711
1738005708646357500,7.237357421875,-32.143890380859375,-18.553497314453125,18.91838264465332
1738005708656426500,7.247426513671875,-31.797821044921875,-18.547874450683594,19.109375
1738005708666495500,7.25749560546875,-32.024017333984375,-18.45903778076172,18.997669219970703
1738005708676563500,7.2675634765625,-32.454559326171875,-18.588165283203125,19.13284683227539
1738005708686632700,7.2776328125,-32.416412353515625,-18.61865234375,19.011728286743164
1738005708696701400,7.287701416015625,-32.536895751953125,-18.544219970703125,19.144336700439453
1738005708706770400,7.2977705078125,-31.887237548828125,-18.62640380859375,18.83499526977539
1738005708716839400,7.30783935546875,-32.286224365234375,-19.115028381347656,19.03123664855957
1738005708726908400,7.317908447265625,-32.152191162109375,-19.11254119873047,19.022871017456055
1738005708736976600,7.3279765625,-31.916656494140625,-19.2669677734375,19.024463653564453
1738005708747045600,7.338045654296875,-32.076202392578125,-19.152786254882812,19.018247604370117
1738005708757114400,7.3481142578125,-31.272979736328125,-19.285667419433594,18.960424423217773
1738005708767183600,7.35818359375,-31.525848388671875,-19.2740478515625,18.88839340209961
1738005708777252400,7.36825244140625,-31.414276123046875,-19.325645446777344,18.8880558013916
1738005708787321600,7.378321533203125,-31.582733154296875,-19.259719848632812,18.909889221191406
1738005708797390300,7.388390380859375,-31.352386474609375,-19.18603515625,18.839908599853516
1738005708807458600,7.39845849609375,-31.593658447265625,-19.28240966796875,18.586849212646484
1738005708817527600,7.408527587890625,-32.007354736328125,-19.380348205566406,18.31623077392578
1738005708827596500,7.418596435546875,-31.877105712890625,-19.41705322265625,18.390079498291016
1738005708837665500,7.42866552734375,-31.423309326171875,-19.532608032226562,18.215024948120117
1738005708847734500,7.438734619140625,-31.682037353515625,-19.903457641601562,18.168838500976562
1738005708857803500,7.448803466796875,-31.804168701171875,-19.7789306640625,18.05328941345215
1738005708867871500,7.45887158203125,-31.768524169921875,-19.921676635742188,18.236452102661133
1738005708877940500,7.4689404296875,-31.909271240234375,-19.9765625,18.088165283203125
1738005708888009500,7.479009521484375,-31.227569580078125,-20.074020385742188,18.058002471923828
1738005708898078500,7.489078369140625,-31.339019775390625,-20.209945678710938,18.204696655273438
1738005708908147500,7.4991474609375,-31.077606201171875,-20.264076232910156,18.32645034790039
1738005708918216400,7.509216552734375,-31.452178955078125,-20.453628540039062,18.118974685668945
1738005708928284400,7.519284423828125,-31.388458251953125,-20.40558624267578,18.163616180419922
1738005708938353700,7.529353759765625,-30.847869873046875,-20.393203735351562,18.381160736083984
1738005708948422400,7.53942236328125,-30.827484130859375,-20.42858123779297,18.152591705322266
1738005708958491600,7.54949169921875,-31.224395751953125,-20.579612731933594,18.056262969970703
1738005708968560400,7.559560302734375,-31.133209228515625,-20.482009887695312,17.966276168823242
1738005708978629600,7.569629638671875,-31.559417724609375,-20.512313842773438,18.055721282958984
1738005708988697600,7.579697509765625,-31.361358642578125,-20.426284790039062,17.88974380493164
1738005708998766300,7.589766357421875,-31.067962646484375,-20.51373291015625,18.01795768737793
1738005709008835600,7.599835693359375,-30.975982666015625,-20.871788024902344,17.940452575683594
1738005709018904300,7.609904296875,-30.853607177734375,-21.102325439453125,17.806209564208984
1738005709028973600,7.6199736328125,-31.678741455078125,-20.950637817382812,17.81519317626953
1738005709039042600,7.63004248046875,-31.320404052734375,-21.048194885253906,17.83098030090332
1738005709049110500,7.640110595703125,-31.215972900390625,-21.348052978515625,17.7744197845459
1738005709059179500,7.650179443359375,-31.212432861328125,-21.111785888671875,17.464879989624023
1738005709069248500,7.66024853515625,-30.971588134765625,-21.05144500732422,17.61028480529785
1738005709079317500,7.6703173828125,-30.982391357421875,-20.81432342529297,17.761003494262695
1738005709089386500,7.680386474609375,-31.106842041015625,-20.806785583496094,17.53411102294922
1738005709099455500,7.69045556640625,-31.368927001953125,-20.98212432861328,17.363889694213867
1738005709109523500,7.7005234375,-31.284942626953125,-21.23816680908203,17.466859817504883
1738005709119592400,7.710592529296875,-31.101226806640625,-21.107711791992188,17.36322021484375
1738005709129661400,7.720661376953125,-30.907318115234375,-21.042404174804688,17.4619083404541
1738005709139730400,7.73073046875,-31.253448486328125,-20.90941619873047,17.553539276123047
1738005709149799700,7.740799560546875,-30.903289794921875,-20.98907470703125,17.758453369140625
1738005709159868400,7.750868408203125,-31.225067138671875,-21.14056396484375,17.596294403076172
1738005709169937700,7.760937744140625,-30.950042724609375,-21.27215576171875,17.773210525512695
1738005709180005600,7.771005615234375,-31.546478271484375,-21.061050415039062,17.716432571411133
1738005709190074400,7.781074462890625,-31.008453369140625,-21.056915283203125,17.7880916595459
1738005709200143600,7.7911435546875,-31.160125732421875,-21.56505584716797,17.809064865112305
1738005709210212400,7.80121240234375,-30.752410888671875,-21.427749633789062,17.816486358642578
1738005709220281600,7.811281494140625,-31.129608154296875,-21.436676025390625,17.845048904418945
1738005709230350600,7.8213505859375,-31.205841064453125,-21.46031951904297,17.84445571899414
1738005709240418600,7.83141845703125,-30.930633544921875,-21.47081756591797,17.96430778503418
1738005709250487600,7.841487548828125,-30.722137451171875,-21.536773681640625,17.773038864135742
1738005709260556500,7.851556640625,-31.093353271484375,-21.642005920410156,17.630878448486328
1738005709270625500,7.86162548828125,-30.772003173828125,-21.46636962890625,17.555421829223633
1738005709280694500,7.871694580078125,-31.197052001953125,-20.95543670654297,17.795766830444336
1738005709290763500,7.881763427734375,-31.291473388671875,-20.23095703125,18.02999496459961
1738005709300831500,7.89183154296875,-31.761016845703125,-20.081329345703125,17.55051040649414
1738005709310900500,7.901900390625,-31.921539306640625,-20.049827575683594,17.242019653320312
1738005709320969500,7.911969482421875,-32.473419189453125,-19.721969604492188,17.272144317626953
1738005709331038500,7.92203857421875,-32.497650146484375,-19.413330078125,17.270566940307617
1738005709341107700,7.932107666015625,-32.787567138671875,-19.336532592773438,16.942529678344727
1738005709351176400,7.942176513671875,-32.386199951171875,-18.930816650390625,16.88956642150879
1738005709361244400,7.952244384765625,-32.510711669921875,-19.15033721923828,16.648008346557617
1738005709371313700,7.962313720703125,-32.830535888671875,-19.26575469970703,16.581058502197266
1738005709381382400,7.97238232421875,-33.108306884765625,-19.152565002441406,16.487863540649414
1738005709391451600,7.98245166015625,-32.664703369140625,-19.30449676513672,16.259502410888672
1738005709401520400,7.992520263671875,-32.510833740234375,-19.29668426513672,16.508037567138672
1738005709411589600,8.002589599609376,-32.604034423828125,-19.309974670410156,16.66077423095703
1738005709421657600,8.01265771484375,-32.933807373046875,-19.32122039794922,16.67253303527832
1738005709431726300,8.022726318359375,-32.842559814453125,-19.52002716064453,16.697711944580078
1738005709441795600,8.032795654296875,-33.004608154296875,-19.719314575195312,16.61600112915039
1738005709451864600,8.042864501953124,-32.564239501953125,-19.6739501953125,16.607994079589844
1738005709461933600,8.05293359375,-32.591888427734375,-19.732131958007812,16.90909194946289
1738005709472002600,8.06300244140625,-32.662811279296875,-19.523338317871094,17.02036476135254
1738005709482071600,8.073071533203125,-32.193023681640625,-19.661705017089844,17.18979263305664
1738005709492139500,8.083139404296874,-32.203826904296875,-19.817184448242188,17.233428955078125
1738005709502208500,8.09320849609375,-32.275299072265625,-19.76805877685547,17.134395599365234
1738005709512277500,8.103277587890625,-32.149505615234375,-19.786880493164062,17.253042221069336
1738005709522346500,8.113346435546875,-32.062164306640625,-19.97784423828125,17.48030662536621
1738005709532415700,8.123415771484375,-31.885040283203125,-19.976219177246094,17.604337692260742
1738005709542484500,8.133484375,-32.064300537109375,-20.064346313476562,17.980993270874023
1738005709552552400,8.143552490234375,-31.714385986328125,-20.084617614746094,18.028034210205078
1738005709562621000,8.153620849609375,-31.415374755859375,-20.34172821044922,18.15786361694336
1738005709572690000,8.16368994140625,-31.423919677734375,-20.51537322998047,18.298112869262695
1738005709582759000,8.173759033203124,-31.306610107421875,-20.91326904296875,18.353147506713867
1738005709592828200,8.183828125,-31.236846923828125,-20.954849243164062,18.425912857055664
1738005709602897000,8.19389697265625,-31.406585693359375,-21.034500122070312,18.40183448791504
1738005709612964900,8.20396484375,-30.990936279296875,-21.172836303710938,18.585006713867188
1738005709623034000,8.2140341796875,-30.538543701171875,-21.297157287597656,18.44622802734375
1738005709633102800,8.224102783203126,-30.760711669921875,-21.116928100585938,18.712902069091797
1738005709643172000,8.234172119140625,-30.539276123046875,-21.27667236328125,18.469858169555664
1738005709653240800,8.24424072265625,-30.311370849609375,-20.937698364257812,18.606691360473633
1738005709663310000,8.25431005859375,-30.254974365234375,-20.762191772460938,18.687641143798828
1738005709673379000,8.264379150390624,-30.527618408203125,-20.718345642089844,18.530576705932617
1738005709683446800,8.27444677734375,-30.640411376953125,-20.63892364501953,18.663619995117188
1738005709693516000,8.28451611328125,-30.973236083984375,-20.50768280029297,18.493087768554688
1738005709703585000,8.2945849609375,-30.811492919921875,-20.45384979248047,18.638671875
1738005709713654000,8.304654052734374,-30.941009521484375,-20.484237670898438,18.498048782348633
1738005709723723000,8.314722900390626,-30.900604248046875,-20.324020385742188,18.651403427124023
1738005709733791700,8.324791748046875,-30.858062744140625,-20.240394592285156,18.9327449798584
1738005709743860000,8.33485986328125,-30.974884033203125,-20.286148071289062,18.625102996826172
1738005709753929000,8.344928955078124,-30.730133056640625,-20.326889038085938,18.758333206176758
1738005709763998000,8.354998046875,-30.882293701171875,-20.616241455078125,18.69701385498047
1738005709774067000,8.36506689453125,-30.362945556640625,-20.51617431640625,18.849863052368164
1738005709784136000,8.375135986328125,-30.608062744140625,-20.7381591796875,19.153459548950195
1738005709794205000,8.385204833984375,-30.404815673828125,-20.632179260253906,19.304359436035156
1738005709804273000,8.39527294921875,-30.344451904296875,-20.416549682617188,19.30203628540039
1738005709814342100,8.405342041015626,-30.870330810546875,-20.149879455566406,19.3492431640625
1738005709824411000,8.415410888671875,-30.345489501953125,-20.356063842773438,19.31316375732422
1738005709834480000,8.425480224609375,-30.259368896484375,-20.42865753173828,19.62188148498535
1738005709844548900,8.435548828125,-30.703277587890625,-20.276939392089844,19.676889419555664
1738005709854617900,8.445617919921874,-30.482025146484375,-20.301475524902344,19.66602897644043
1738005709864686800,8.455686767578126,-30.542816162109375,-20.01142120361328,19.49639320373535
1738005709874754800,8.4657548828125,-30.669281005859375,-19.920761108398438,19.573593139648438
1738005709884824000,8.475823974609375,-30.724578857421875,-19.98859405517578,19.730497360229492
1738005709894893000,8.48589306640625,-30.740081787109375,-20.10846710205078,19.357648849487305
1738005709904961800,8.4959619140625,-30.292755126953125,-20.422576904296875,19.369491577148438
1738005709915031000,8.506031005859375,-30.580780029296875,-20.424232482910156,19.48671531677246
1738005709925099800,8.516099853515625,-30.556793212890625,-20.372962951660156,19.291181564331055
1738005709935168000,8.52616796875,-30.492889404296875,-20.204849243164062,19.466415405273438
1738005709945237000,8.536237060546876,-30.294158935546875,-20.134536743164062,19.533863067626953
1738005709955306000,8.546305908203125,-30.410552978515625,-20.215225219726562,19.635725021362305
1738005709965375000,8.556375,-30.296112060546875,-20.43834686279297,19.287220001220703
1738005709975444000,8.56644384765625,-30.402313232421875,-20.367080688476562,19.227821350097656
1738005709985513000,8.576512939453124,-30.823394775390625,-20.265625,19.067096710205078
1738005709995581000,8.586580810546875,-31.110321044921875,-20.462417602539062,19.126911163330078
1738005710005650000,8.59664990234375,-31.027984619140625,-20.36328125,18.873294830322266
1738005710015719000,8.606718994140625,-30.965911865234375,-20.354774475097656,19.14834976196289
1738005710025788000,8.616787841796874,-30.927398681640625,-20.22588348388672,19.085216522216797
1738005710035857000,8.62685693359375,-30.633270263671875,-20.18395233154297,19.115825653076172
1738005710045926000,8.63692578125,-30.899566650390625,-20.303611755371094,18.956289291381836
1738005710055995000,8.646994873046875,-30.666595458984375,-20.36975860595703,19.152584075927734
1738005710066062800,8.657062744140624,-31.050140380859375,-20.44196319580078,19.011920928955078
1738005710076132000,8.667132080078124,-31.060272216796875,-20.268600463867188,18.923015594482422
1738005710086200800,8.677200927734376,-30.713104248046875,-20.52281951904297,18.909414291381836
1738005710096269800,8.687269775390625,-31.215423583984375,-20.481712341308594,18.85786247253418
1738005710106339000,8.697339111328125,-31.168853759765625,-20.57799530029297,18.717634201049805
1738005710116407800,8.70740771484375,-30.991790771484375,-20.62645721435547,18.572635650634766
1738005710126476000,8.71747607421875,-30.879669189453125,-20.481117248535156,18.722267150878906
1738005710136545000,8.727544921875,-30.748138427734375,-20.61132049560547,18.619342803955078
1738005710146613800,8.73761376953125,-30.804473876953125,-20.779464721679688,18.70252799987793
1738005710156683000,8.74768310546875,-30.860565185546875,-20.73314666748047,18.689308166503906
1738005710166751700,8.757751708984374,-30.509613037109375,-20.720176696777344,18.980735778808594
1738005710176821000,8.767821044921876,-30.420379638671875,-20.762603759765625,18.652538299560547
1738005710186889000,8.777888916015625,-30.443511962890625,-20.592063903808594,18.839344024658203
1738005710196958000,8.7879580078125,-30.944122314453125,-20.521560668945312,18.843584060668945
1738005710207027000,8.79802685546875,-30.949676513671875,-20.67742156982422,18.818265914916992
1738005710217096000,8.808095947265626,-31.156707763671875,-20.190704345703125,18.533052444458008
1738005710227165000,8.8181650390625,-31.536468505859375,-19.902610778808594,18.425886154174805
1738005710237234000,8.82823388671875,-31.894866943359375,-19.397186279296875,18.138641357421875
1738005710247303000,8.838302978515625,-32.211151123046875,-18.880294799804688,18.07200813293457
1738005710257371000,8.848370849609376,-32.570404052734375,-18.68834686279297,17.63340950012207
1738005710267439900,8.85843994140625,-32.663787841796875,-18.686302185058594,17.058536529541016
1738005710277508900,8.8685087890625,-32.765655517578125,-18.47350311279297,16.924701690673828
1738005710287577900,8.878577880859375,-32.737518310546875,-18.363433837890625,16.852487564086914
1738005710297647000,8.888647216796874,-32.690521240234375,-18.21228790283203,17.03515625
1738005710307715800,8.8987158203125,-32.652923583984375,-18.476882934570312,17.250995635986328
1738005710317783800,8.90878369140625,-32.502288818359375,-18.83466339111328,17.551998138427734
1738005710327853000,8.91885302734375,-32.078460693359375,-18.938247680664062,17.589069366455078
1738005710337921800,8.928921875,-31.534393310546875,-18.95124053955078,17.734832763671875
1738005710347991000,8.938990966796876,-31.708282470703125,-19.464569091796875,18.011507034301758
1738005710358059800,8.949059814453125,-31.636077880859375,-19.59925079345703,18.37900161743164
1738005710368129000,8.95912890625,-31.016448974609375,-19.536529541015625,18.51683235168457
1738005710378197000,8.969197021484375,-31.382293701171875,-19.41552734375,18.729307174682617
1738005710388265700,8.979265625,-31.146087646484375,-19.333839416503906,18.990875244140625
1738005710398335000,8.9893349609375,-31.318206787109375,-19.15351104736328,18.988100051879883
1738005710408404000,8.999404052734375,-31.021087646484375,-19.0496826171875,19.187990188598633
1738005710418473000,9.009472900390625,-31.101409912109375,-18.961624145507812,19.0672550201416
1738005710428542000,9.0195419921875,-31.196868896484375,-19.109451293945312,19.093585968017578
1738005710438611000,9.02961083984375,-31.157623291015625,-19.124046325683594,19.08536148071289
1738005710448679000,9.039678955078125,-31.158782958984375,-19.23443603515625,18.976436614990234
1738005710458748000,9.049747802734375,-31.715667724609375,-18.816810607910156,18.776935577392578
1738005710468817000,9.05981689453125,-31.679595947265625,-18.718223571777344,18.84839630126953
1738005710478886000,9.069885986328124,-31.654144287109375,-18.890945434570312,18.90031623840332
1738005710488955100,9.079955078125,-31.407196044921875,-19.145004272460938,18.789766311645508
1738005710499024000,9.09002392578125,-31.335784912109375,-18.95684814453125,18.602596282958984
1738005710509091800,9.100091796875,-31.531829833984375,-19.158180236816406,18.244300842285156
1738005710519161000,9.1101611328125,-31.916046142578125,-19.097877502441406,18.318096160888672
1738005710529229800,9.120229736328126,-32.032379150390625,-19.242843627929688,17.715227127075195
1738005710539299000,9.130299072265625,-32.190032958984375,-19.201431274414062,17.65781593322754
1738005710549367800,9.140367919921875,-32.158355712890625,-19.135726928710938,17.64621353149414
1738005710559437000,9.15043701171875,-32.509857177734375,-19.26824951171875,17.51221466064453
1738005710569509000,9.160509033203125,-32.366973876953125,-19.0078125,17.58954620361328
1738005710579577900,9.170577880859375,-32.767242431640625,-19.219833374023438,17.65360450744629
1738005710589647000,9.180647216796874,-32.277923583984375,-18.97894287109375,17.651826858520508
1738005710599715800,9.1907158203125,-32.521881103515625,-19.182273864746094,17.661375045776367
1738005710609785000,9.20078515625,-32.246917724609375,-19.182594299316406,17.880664825439453
1738005710619854000,9.21085400390625,-32.106536865234375,-19.155113220214844,17.634830474853516
1738005710629921800,9.220921875,-32.486175537109375,-19.221778869628906,17.832578659057617
1738005710639991000,9.230990966796876,-32.417633056640625,-19.21373748779297,17.85694122314453
1738005710650060000,9.24106005859375,-32.170379638671875,-19.2642822265625,17.58965492248535
1738005710660129000,9.25112890625,-31.647125244140625,-19.63365936279297,17.964969635009766
1738005710670198000,9.261197998046875,-31.793426513671875,-19.62500762939453,17.60885238647461
1738005710680267000,9.27126708984375,-31.920562744140625,-19.69158935546875,17.526185989379883
1738005710690335000,9.2813349609375,-31.854644775390625,-19.62664794921875,17.487342834472656
1738005710700404000,9.291404052734375,-31.654022216796875,-19.694854736328125,17.606428146362305
1738005710710473000,9.301472900390625,-31.919525146484375,-19.747909545898438,17.610105514526367
1738005710720542000,9.3115419921875,-31.883453369140625,-19.84490966796875,17.625080108642578
1738005710730611200,9.321611083984376,-31.789581298828125,-20.036178588867188,17.496505737304688
1738005710740680000,9.331679931640625,-31.864959716796875,-19.79747772216797,17.476285934448242
1738005710750748000,9.341747802734375,-32.536773681640625,-19.58306121826172,17.417633056640625
1738005710760817200,9.351817138671874,-32.280242919921875,-19.897293090820312,17.30580711364746
1738005710770886000,9.361885986328126,-32.129730224609375,-19.76897430419922,17.126985549926758
1738005710780955100,9.371955078125,-31.999664306640625,-19.791786193847656,16.97243309020996
1738005710791023900,9.38202392578125,-32.432952880859375,-19.523574829101562,16.995994567871094
1738005710801093000,9.392093017578125,-32.723297119140625,-19.388458251953125,17.050140380859375
1738005710811161000,9.4021611328125,-32.401702880859375,-19.53697967529297,16.8928165435791
1738005710821229800,9.412229736328126,-32.574676513671875,-19.617591857910156,16.807510375976562
1738005710831299000,9.422299072265625,-32.762298583984375,-19.578750610351562,16.77092742919922
1738005710841368000,9.4323681640625,-32.603424072265625,-19.53301239013672,16.926166534423828
1738005710851437000,9.44243701171875,-32.953033447265625,-19.582847595214844,16.787614822387695
1738005710861506000,9.452506103515624,-32.631622314453125,-19.814796447753906,16.926342010498047
1738005710871575000,9.462574951171876,-32.785369873046875,-19.674888610839844,16.697824478149414
1738005710881643000,9.47264306640625,-32.545806884765625,-19.44586944580078,16.87495994567871
1738005710891712000,9.4827119140625,-32.958892822265625,-19.56219482421875,16.806074142456055
1738005710901781000,9.492781005859374,-32.684356689453125,-19.512229919433594,16.70298194885254
1738005710911850000,9.50285009765625,-32.564483642578125,-19.39190673828125,16.7368221282959
1738005710921919200,9.512919189453125,-32.823089599609375,-19.34821319580078,16.794189453125
1738005710931988000,9.522988037109375,-32.478302001953125,-19.424911499023438,16.80085563659668
1738005710942056000,9.533055908203124,-32.322967529296875,-19.353790283203125,16.669174194335938
1738005710952125200,9.543125244140626,-32.157379150390625,-19.500259399414062,16.647666931152344
1738005710962194000,9.55319384765625,-32.635467529296875,-19.40087127685547,16.93814468383789
1738005710972263200,9.56326318359375,-32.674224853515625,-19.423416137695312,17.091236114501953
1738005710982332000,9.573331787109375,-32.392486572265625,-19.534706115722656,16.858665466308594
1738005710992401200,9.583401123046874,-32.493377685546875,-19.531455993652344,17.223251342773438
1738005711002469000,9.59346923828125,-32.269927978515625,-19.486167907714844,17.070762634277344
1738005711012537900,9.603537841796875,-32.392242431640625,-19.603759765625,17.1618709564209
1738005711022607000,9.613607177734375,-32.535919189453125,-19.415618896484375,17.30405616760254
1738005711032676000,9.623676025390624,-32.705108642578125,-19.31755828857422,17.36765480041504
1738005711042745000,9.6337451171875,-33.066802978515625,-19.424484252929688,17.30813217163086
1738005711052814000,9.64381396484375,-32.860809326171875,-19.33240509033203,17.560422897338867
1738005711062882000,9.653882080078125,-32.761566162109375,-19.213111877441406,17.528427124023438
1738005711072951000,9.663950927734374,-32.591339111328125,-19.31646728515625,17.501909255981445
1738005711083020000,9.67402001953125,-32.845611572265625,-19.264923095703125,17.424095153808594
1738005711093089000,9.684089111328126,-32.479583740234375,-19.422531127929688,17.441389083862305
1738005711103158000,9.694157958984375,-32.638946533203125,-19.046768188476562,17.32223892211914
1738005711113227000,9.70422705078125,-32.722991943359375,-18.85009765625,17.408710479736328
1738005711123295000,9.714294921875,-32.859710693359375,-18.949462890625,17.3336238861084
1738005711133364000,9.724364013671876,-33.176300048828125,-18.888397216796875,17.320703506469727
1738005711143433200,9.73443310546875,-32.816741943359375,-18.648963928222656,17.47332191467285
1738005711153502000,9.744501953125,-33.148529052734375,-18.096267700195312,17.62053680419922
1738005711163571200,9.7545712890625,-33.427642822265625,-17.446495056152344,17.884967803955078
1738005711173639200,9.76463916015625,-33.369293212890625,-17.308197021484375,18.1590633392334
1738005711183708000,9.7747080078125,-33.151947021484375,-16.780548095703125,18.197895050048828
1738005711193777200,9.784777099609375,-33.576995849609375,-16.41009521484375,18.168819427490234
1738005711203846000,9.794845947265625,-33.732147216796875,-15.904190063476562,18.297998428344727
1738005711213915100,9.8049150390625,-33.750640869140625,-15.665023803710938,18.2166748046875
1738005711223984000,9.814984130859376,-33.620635986328125,-15.650581359863281,18.235950469970703
1738005711234051800,9.8250517578125,-34.002044677734375,-15.562187194824219,18.333599090576172
1738005711244121000,9.83512109375,-34.283172607421875,-15.682937622070312,18.293909072875977
1738005711254190000,9.845190185546874,-34.178375244140625,-16.007064819335938,18.272274017333984
1738005711264259000,9.855259033203126,-33.891448974609375,-16.09056854248047,18.26904296875
1738005711274328000,9.865328125,-33.593292236328125,-16.289596557617188,18.236499786376953
1738005711284397000,9.87539697265625,-33.856475830078125,-15.994056701660156,18.135761260986328
1738005711294465000,9.885465087890625,-33.618011474609375,-16.191856384277344,18.12028694152832
1738005711304534000,9.895533935546876,-33.473052978515625,-15.791343688964844,18.26827049255371
1738005711314603000,9.90560302734375,-33.525543212890625,-15.768669128417969,17.96816062927246
1738005711324672000,9.915672119140625,-34.014373779296875,-15.737342834472656,17.791488647460938
1738005711334741000,9.925740966796875,-34.344573974609375,-15.542991638183594,17.869863510131836
1738005711344810000,9.93581005859375,-34.135528564453125,-15.423316955566406,17.788127899169922
1738005711354878000,9.9458779296875,-33.824249267578125,-15.428123474121094,17.819129943847656
1738005711364947200,9.955947265625,-33.990020751953125,-15.204643249511719,18.438583374023438
1738005711375016000,9.966015869140625,-33.726226806640625,-15.176376342773438,18.434955596923828
1738005711385085200,9.976085205078125,-33.737518310546875,-15.274398803710938,18.389123916625977
1738005711395154000,9.98615380859375,-33.571014404296875,-15.204299926757812,18.573015213012695
1738005711405223200,9.99622314453125,-33.606964111328125,-15.453620910644531,18.585281372070312
1738005711415291100,10.006291015625,-33.871734619140625,-15.90460205078125,18.60890007019043
1738005711425360000,10.01635986328125,-33.675567626953125,-15.68731689453125,18.69918441772461
1738005711435429000,10.02642919921875,-33.396148681640625,-15.804306030273438,18.5778751373291
1738005711445498000,10.036498046875,-33.591522216796875,-15.817108154296875,18.754192352294922
1738005711455567000,10.046567138671875,-33.404998779296875,-15.975364685058594,19.03757095336914
1738005711465635000,10.056635009765625,-33.631256103515625,-16.074737548828125,18.915895462036133
1738005711475704000,10.0667041015625,-33.720977783203125,-16.149436950683594,18.98707389831543
1738005711485773000,10.07677294921875,-33.143951416015625,-16.045806884765625,18.8037052154541
1738005711495842000,10.086842041015625,-33.553802490234375,-16.022308349609375,18.76146125793457
1738005711505911000,10.0969111328125,-32.894317626953125,-16.154830932617188,18.92620086669922
1738005711515980000,10.10697998046875,-33.326568603515625,-16.090576171875,18.982650756835938
1738005711526048000,10.117048095703124,-32.985443115234375,-16.2589111328125,19.07695198059082
1738005711536117000,10.127116943359376,-33.355865478515625,-16.36009979248047,18.789770126342773
1738005711546186000,10.13718603515625,-33.391265869140625,-16.5543212890625,18.746295928955078
1738005711556255000,10.1472548828125,-33.279266357421875,-16.536048889160156,18.723312377929688
1738005711566319900,10.15731982421875,-33.407867431640625,-16.631866455078125,18.662071228027344
1738005711576389000,10.16738916015625,-33.247344970703125,-16.439353942871094,18.86429214477539
1738005711586457000,10.17745703125,-33.189178466796875,-16.284835815429688,19.061309814453125
1738005711596525800,10.18752587890625,-33.237579345703125,-16.194351196289062,19.186525344848633
1738005711606595000,10.197594970703125,-33.345062255859375,-16.7371826171875,19.009321212768555
1738005711616663800,10.207663818359375,-32.872161865234375,-16.578353881835938,19.076126098632812
1738005711626733000,10.217733154296875,-33.295806884765625,-16.58232879638672,18.904796600341797
1738005711636802000,10.227802001953124,-33.171844482421875,-16.869056701660156,18.96575164794922
1738005711646870000,10.2378701171875,-33.231109619140625,-16.874855041503906,19.030126571655273
1738005711656939000,10.24793896484375,-32.930633544921875,-17.061187744140625,19.072998046875
1738005711667008000,10.258008056640625,-33.356719970703125,-17.4730224609375,18.875274658203125
1738005711677077000,10.268076904296874,-32.952606201171875,-17.567481994628906,19.088603973388672
1738005711687146000,10.27814599609375,-33.534698486328125,-17.51831817626953,18.884321212768555
1738005711697214200,10.288214111328125,-33.381805419921875,-17.595321655273438,18.78491973876953
1738005711707283000,10.298282958984375,-33.151519775390625,-17.609840393066406,18.969642639160156
1738005711717352000,10.30835205078125,-32.497528076171875,-17.64599609375,18.964733123779297
1738005711727421000,10.3184208984375,-32.298797607421875,-17.82953643798828,18.958599090576172
1738005711737490000,10.328489990234376,-33.213226318359375,-17.833778381347656,18.808961868286133
1738005711747559200,10.33855908203125,-32.732940673828125,-18.155303955078125,18.730112075805664
1738005711757627100,10.348627197265625,-32.702239990234375,-18.3289794921875,18.688457489013672
1738005711767696100,10.358696044921874,-32.530487060546875,-18.31798553466797,18.709863662719727
1738005711777765000,10.36876513671875,-32.981842041015625,-18.168563842773438,18.47798728942871
1738005711787833900,10.378833740234375,-32.873016357421875,-18.28520965576172,18.521339416503906
1738005711797903000,10.388903076171875,-33.166290283203125,-18.454933166503906,18.439483642578125
1738005711807971000,10.39897119140625,-32.827362060546875,-18.42529296875,18.195758819580078
1738005711818040000,10.4090400390625,-32.660003662109375,-18.365493774414062,18.26583480834961
1738005711828109000,10.419109130859376,-32.860626220703125,-18.723907470703125,18.16164207458496
1738005711838177800,10.429177734375,-32.669219970703125,-18.834487915039062,18.463539123535156
1738005711848247000,10.4392470703125,-32.707122802734375,-19.178733825683594,18.405654907226562
1738005711858316000,10.44931591796875,-33.032440185546875,-18.954788208007812,18.353069305419922
1738005711868384000,10.459384033203126,-32.666107177734375,-19.16303253173828,18.230220794677734
1738005711878453000,10.469452880859375,-32.959259033203125,-19.230369567871094,18.045848846435547
1738005711888522000,10.47952197265625,-32.630279541015625,-19.345985412597656,17.721982955932617
1738005711898591000,10.489591064453125,-32.585540771484375,-19.094039916992188,17.884794235229492
1738005711908660000,10.499659912109376,-32.546478271484375,-19.301956176757812,17.800947189331055
1738005711918729000,10.50972900390625,-32.842498779296875,-19.359779357910156,17.705768585205078
1738005711928797000,10.519796875,-32.849884033203125,-19.358909606933594,17.343591690063477
1738005711938866200,10.5298662109375,-32.970977783203125,-19.329910278320312,17.220352172851562
1738005711948935000,10.539934814453124,-32.995941162109375,-19.45458984375,17.061412811279297
1738005711959004000,10.55000390625,-33.016571044921875,-19.615066528320312,16.809659957885742
1738005711969073200,10.5600732421875,-33.058258056640625,-19.484649658203125,17.02422332763672
1738005711979141000,10.57014111328125,-33.045806884765625,-19.621315002441406,16.97171974182129
1738005711989210000,10.580210205078124,-32.696563720703125,-19.67053985595703,16.97010612487793
1738005711999279000,10.590279052734376,-32.946868896484375,-19.557411193847656,17.034170150756836
1738005712009347800,10.600347900390625,-33.417205810546875,-19.4190673828125,16.915943145751953
1738005712019417000,10.6104169921875,-33.112518310546875,-19.46001434326172,16.778614044189453
1738005712029485800,10.62048583984375,-33.053253173828125,-19.78148651123047,16.680124282836914
1738005712039554000,10.630553955078126,-33.038299560546875,-19.536361694335938,16.89602279663086
1738005712049623000,10.640623046875,-32.884735107421875,-19.457473754882812,16.949129104614258
1738005712059692000,10.650692138671875,-32.951019287109375,-19.44561004638672,16.627408981323242
1738005712069761000,10.660760986328125,-32.826202392578125,-19.370773315429688,16.4697265625
1738005712079830000,10.670830078125,-32.711944580078125,-19.376296997070312,16.389774322509766
1738005712089899000,10.68089892578125,-32.712066650390625,-19.39936065673828,16.881118774414062
1738005712099967000,10.690967041015625,-32.670867919921875,-19.57331085205078,16.816570281982422
1738005712110036200,10.7010361328125,-33.084381103515625,-19.771652221679688,16.730300903320312
1738005712120105000,10.71110498046875,-33.192169189453125,-19.737998962402344,16.691633224487305
1738005712130174000,10.721174072265624,-33.160552978515625,-19.55730438232422,16.669395446777344
1738005712140243000,10.731242919921876,-33.303436279296875,-19.4405517578125,16.8700008392334
1738005712150311000,10.741310791015625,-33.274810791015625,-19.26636505126953,16.854787826538086
1738005712160380200,10.751380126953125,-33.158538818359375,-19.38086700439453,16.50212860107422
1738005712170449000,10.761448974609374,-33.137847900390625,-19.13050079345703,16.624652862548828
1738005712180518000,10.771517822265626,-33.047332763671875,-19.203895568847656,16.4541072845459
1738005712190587100,10.781587158203125,-33.463165283203125,-18.980941772460938,16.075511932373047
1738005712200656000,10.79165576171875,-33.406463623046875,-18.737213134765625,16.408111572265625
1738005712210724000,10.80172412109375,-33.745391845703125,-18.6513671875,16.299068450927734
1738005712220793000,10.81179296875,-33.972198486328125,-18.556442260742188,16.238954544067383
1738005712230862000,10.821862060546875,-34.077667236328125,-18.643890380859375,16.15524673461914
1738005712240931000,10.83193115234375,-34.082061767578125,-18.672203063964844,15.925285339355469
1738005712250999800,10.841999755859375,-33.981414794921875,-18.582305908203125,16.036346435546875
1738005712261068000,10.852068115234376,-33.741546630859375,-18.555572509765625,16.009599685668945
1738005712271137000,10.862136962890625,-33.649261474609375,-18.757080078125,15.819374084472656
1738005712281206000,10.8722060546875,-34.167388916015625,-18.85101318359375,16.162029266357422
1738005712291275000,10.88227490234375,-33.888092041015625,-18.82311248779297,16.086795806884766
1738005712301344000,10.892343994140624,-34.238555908203125,-18.917770385742188,15.844072341918945
1738005712311413000,10.9024130859375,-34.167510986328125,-19.06139373779297,16.13944435119629
1738005712321481000,10.91248095703125,-34.018829345703125,-19.188766479492188,16.070695877075195
1738005712331550200,10.92255029296875,-34.219024658203125,-18.92809295654297,16.17812728881836
1738005712341619000,10.932618896484374,-34.137420654296875,-18.924331665039062,15.98689079284668
1738005712351688000,10.94268798828125,-34.032867431640625,-18.81476593017578,15.946598052978516
1738005712361757000,10.9527568359375,-33.943634033203125,-18.689682006835938,16.311677932739258
1738005712371825000,10.962824951171875,-33.908905029296875,-18.80181121826172,16.406566619873047
1738005712381894100,10.97289404296875,-33.741119384765625,-18.637840270996094,16.447282791137695
1738005712391963000,10.982962890625,-34.106781005859375,-18.64234161376953,16.091472625732422
1738005712402032000,10.9930322265625,-34.014251708984375,-18.659286499023438,16.31937599182129
1738005712412101000,11.00310107421875,-34.540435791015625,-18.514083862304688,16.40253448486328
1738005712422169900,11.013169921875,-34.118927001953125,-18.470603942871094,16.23116683959961
1738005712432238000,11.023238037109374,-34.284515380859375,-18.508163452148438,16.12969207763672
1738005712442307000,11.03330712890625,-34.262481689453125,-18.478103637695312,15.960289001464844
1738005712452376000,11.0433759765625,-34.269744873046875,-18.48382568359375,15.987886428833008
1738005712462445000,11.053445068359375,-34.437957763671875,-18.426971435546875,15.968757629394531
1738005712472513800,11.063513671875,-34.128875732421875,-18.321632385253906,16.146549224853516
1738005712482582000,11.07358203125,-34.130828857421875,-18.24846649169922,16.13446044921875
1738005712492651000,11.083651123046875,-34.243743896484375,-18.321083068847656,16.284706115722656
1738005712502720000,11.093719970703125,-34.522491455078125,-18.419754028320312,16.422130584716797
1738005712512789000,11.1037890625,-34.163238525390625,-18.516380310058594,16.327882766723633
1738005712522858200,11.113858154296874,-34.188446044921875,-18.55866241455078,16.170469284057617
1738005712532927000,11.123927001953126,-33.920440673828125,-18.44062042236328,16.17635154724121
1738005712542995000,11.133994873046875,-33.671112060546875,-18.49957275390625,16.19365692138672
1738005712553064200,11.144064208984375,-34.023040771484375,-18.41468048095703,16.284337997436523
1738005712563133400,11.154133544921875,-34.178314208984375,-18.481964111328125,16.22743797302246
1738005712573202400,11.164202392578124,-33.960662841796875,-18.424789428710938,16.20151710510254
1738005712583271400,11.174271484375,-34.003265380859375,-18.22480010986328,16.099573135375977
1738005712593339400,11.18433935546875,-34.336212158203125,-18.200164794921875,16.315961837768555
1738005712603408400,11.194408447265625,-33.993560791015625,-18.287025451660156,16.30453109741211
1738005712613477400,11.204477294921874,-34.293060302734375,-18.22393798828125,16.197500228881836
1738005712623546400,11.21454638671875,-34.164520263671875,-18.33312225341797,16.305736541748047
1738005712633615600,11.22461572265625,-33.838897705078125,-18.409103393554688,16.455078125
1738005712643684400,11.234684326171875,-33.918731689453125,-18.25006866455078,16.34293556213379
1738005712653752300,11.24475244140625,-34.104217529296875,-18.161460876464844,16.64759063720703
1738005712663821600,11.254821533203126,-33.979949951171875,-17.996177673339844,16.660659790039062
1738005712673890300,11.264890380859375,-33.546051025390625,-18.03264617919922,16.6511173248291
1738005712683959600,11.27495947265625,-33.502777099609375,-18.077491760253906,16.442415237426758
1738005712694028300,11.2850283203125,-33.519317626953125,-18.31902313232422,16.400558471679688
1738005712704096300,11.29509619140625,-33.843536376953125,-18.33563995361328,16.464391708374023
1738005712714165500,11.30516552734375,-33.954071044921875,-18.479537963867188,16.692060470581055
1738005712724234200,11.315234130859375,-33.947174072265625,-18.34814453125,16.85467529296875
1738005712734303500,11.325303466796875,-33.859649658203125,-18.40625762939453,16.81272315979004
1738005712744372500,11.33537255859375,-34.198516845703125,-18.460037231445312,16.572900772094727
1738005712754441500,11.34544140625,-34.042083740234375,-18.19237518310547,16.40215492248535
1738005712764509400,11.355509521484375,-34.120697021484375,-18.4561767578125,16.426172256469727
1738005712774578400,11.365578369140625,-34.375579833984375,-18.34221649169922,16.443191528320312
1738005712784647400,11.3756474609375,-34.912811279296875,-18.186187744140625,16.401151657104492
1738005712794716400,11.38571630859375,-34.171661376953125,-18.090065002441406,16.457706451416016
1738005712804785400,11.395785400390626,-33.962554931640625,-18.016036987304688,16.443313598632812
1738005712814853400,11.405853271484375,-34.200653076171875,-18.09131622314453,16.091760635375977
1738005712824922400,11.41592236328125,-34.446746826171875,-18.169967651367188,16.33578872680664
1738005712834991400,11.425991455078124,-34.046783447265625,-18.033592224121094,16.328590393066406
1738005712845060400,11.436060302734376,-34.122772216796875,-18.115585327148438,16.69845962524414
1738005712855129600,11.446129638671875,-33.861114501953125,-18.09174346923828,16.594316482543945
1738005712865197300,11.456197265625,-34.091766357421875,-17.848648071289062,16.481670379638672
1738005712875266300,11.466266357421874,-33.840606689453125,-18.017532348632812,16.437776565551758
1738005712885335600,11.47633544921875,-33.916046142578125,-18.16455078125,16.647315979003906
1738005712895404300,11.486404296875,-34.369293212890625,-18.169342041015625,16.58437728881836
1738005712905473500,11.4964736328125,-34.313385009765625,-18.18122100830078,16.531532287597656
1738005712915542300,11.506542236328125,-34.686676025390625,-18.183486938476562,16.47586441040039
1738005712925610200,11.5166103515625,-34.372344970703125,-18.26915740966797,16.56638526916504
1738005712935679500,11.526679443359376,-34.239166259765625,-18.15245819091797,16.21802520751953
1738005712945748200,11.536748291015625,-34.228973388671875,-18.045486450195312,16.51400375366211
1738005712955817500,11.5468173828125,-34.021392822265625,-18.318756103515625,16.593734741210938
1738005712965886500,11.556886474609374,-34.002777099609375,-18.202186584472656,16.503772735595703
1738005712975954200,11.5669541015625,-33.904083251953125,-18.214202880859375,16.296865463256836
1738005712986023400,11.5770234375,-33.879852294921875,-18.171279907226562,16.447052001953125
1738005712996092400,11.587092529296875,-34.207489013671875,-18.21215057373047,16.39202117919922
1738005713006161400,11.597161376953125,-34.240875244140625,-18.06230926513672,16.28809356689453
1738005713016230400,11.60723046875,-33.725982666015625,-18.24628448486328,16.56233787536621
1738005713026299400,11.61729931640625,-33.904327392578125,-18.232894897460938,16.433795928955078
1738005713036367400,11.627367431640625,-34.134246826171875,-18.194137573242188,16.314537048339844
1738005713046436400,11.637436279296875,-34.232635498046875,-18.14368438720703,16.338762283325195
1738005713056505300,11.64750537109375,-34.446075439453125,-18.234207153320312,16.281755447387695
1738005713066574300,11.65757421875,-34.462554931640625,-18.071212768554688,16.196443557739258
1738005713076643600,11.6676435546875,-34.202606201171875,-18.29065704345703,16.01445960998535
1738005713086711300,11.677711181640625,-34.270721435546875,-18.233810424804688,16.011011123657227
1738005713096780300,11.6877802734375,-33.913726806640625,-18.13367462158203,16.193090438842773
1738005713106849500,11.697849609375,-34.076629638671875,-18.437156677246094,16.48297882080078
1738005713116918300,11.707918212890625,-34.088897705078125,-18.350631713867188,16.24081039428711
1738005713126987500,11.717987548828125,-34.413116455078125,-18.256423950195312,16.549427032470703
1738005713137055500,11.728055419921875,-34.246917724609375,-18.211898803710938,16.472158432006836
1738005713147124200,11.738124267578126,-34.206024169921875,-18.299240112304688,16.593624114990234
1738005713157193500,11.748193359375,-33.887847900390625,-18.176361083984375,16.50718116760254
1738005713167262200,11.75826220703125,-34.050506591796875,-18.046905517578125,16.351455688476562
1738005713177331500,11.76833154296875,-33.842254638671875,-18.0706787109375,16.29954719543457
1738005713187400400,11.778400390625,-33.968719482421875,-18.00951385498047,15.955766677856445
1738005713197468200,11.78846826171875,-34.115264892578125,-18.12176513671875,16.16741180419922
1738005713207537400,11.798537353515625,-34.181671142578125,-18.16815948486328,16.43732261657715
1738005713217606400,11.8086064453125,-34.197662353515625,-18.08350372314453,16.316049575805664
1738005713227675400,11.81867529296875,-34.115753173828125,-18.0413818359375,16.361133575439453
1738005713237744400,11.828744384765624,-34.637725830078125,-18.14971923828125,16.473726272583008
1738005713247812600,11.8388125,-34.310760498046875,-18.298240661621094,16.234214782714844
1738005713257881300,11.84888134765625,-34.279449462890625,-18.3974609375,16.341489791870117
1738005713267950300,11.858950439453125,-34.075042724609375,-18.21222686767578,16.45760154724121
1738005713278019300,11.869019287109374,-34.173675537109375,-18.08464813232422,16.194093704223633
1738005713288088300,11.87908837890625,-34.156280517578125,-18.133941650390625,16.324634552001953
1738005713298156500,11.889156494140625,-34.346160888671875,-18.137535095214844,16.36410140991211
1738005713308225300,11.899225341796875,-34.446075439453125,-18.181861877441406,16.28119468688965
1738005713318294300,11.909294189453124,-34.619903564453125,-18.20928955078125,16.18485450744629
1738005713328363500,11.919363525390626,-34.270538330078125,-18.011924743652344,16.104961395263672
1738005713338432300,11.929432373046875,-34.305572509765625,-17.951751708984375,16.24489402770996
1738005713348500500,11.93950048828125,-34.288787841796875,-17.826019287109375,16.27631378173828
1738005713358569500,11.949569580078125,-34.288116455078125,-18.060867309570312,16.431814193725586
1738005713368638500,11.959638427734374,-34.210723876953125,-18.006561279296875,16.284114837646484
1738005713378707500,11.96970751953125,-34.500457763671875,-17.758956909179688,16.363222122192383
1738005713388776200,11.979776123046875,-34.148773193359375,-17.914588928222656,16.524534225463867
1738005713398845400,11.989845458984375,-33.909332275390625,-17.84259033203125,16.680435180664062
1738005713408913400,11.999913330078124,-34.374542236328125,-18.0054931640625,16.54323959350586
1738005713418982400,12.009982421875,-34.081146240234375,-17.958999633789062,16.710615158081055
1738005713429051400,12.020051513671875,-33.978668212890625,-18.17011260986328,16.75815200805664
1738005713439120400,12.030120361328125,-34.059600830078125,-18.25348663330078,16.664018630981445
1738005713449189400,12.040189453125,-34.340972900390625,-18.473594665527344,16.34998321533203
1738005713459257300,12.05025732421875,-34.205657958984375,-18.53832244873047,16.3523006439209
1738005713469326600,12.06032666015625,-34.165679931640625,-18.4696044921875,16.54593276977539
1738005713479395300,12.070395263671875,-34.413848876953125,-18.19841766357422,16.6448917388916
1738005713489464300,12.08046435546875,-34.477752685546875,-18.047584533691406,16.47866439819336
1738005713499533300,12.090533203125,-34.004669189453125,-17.961158752441406,16.519872665405273
1738005713509601300,12.100601318359375,-34.347930908203125,-17.926681518554688,16.639232635498047
1738005713519670500,12.11067041015625,-34.305023193359375,-18.162208557128906,16.736494064331055
1738005713529739300,12.1207392578125,-34.180938720703125,-18.110366821289062,16.501197814941406
1738005713539808500,12.13080859375,-33.915496826171875,-17.97728729248047,16.574119567871094
1738005713549877500,12.14087744140625,-34.154571533203125,-17.994903564453125,16.807899475097656
1738005713559945500,12.150945556640625,-34.304534912109375,-18.033294677734375,16.71271514892578
1738005713570014000,12.161013916015625,-34.313507080078125,-18.066978454589844,16.62906837463379
1738005713580083000,12.1710830078125,-34.167327880859375,-18.083641052246094,16.74774932861328
1738005713590152000,12.18115185546875,-33.956024169921875,-18.30010223388672,16.60995864868164
1738005713600221000,12.191220947265625,-33.839019775390625,-18.159942626953125,16.6857967376709
1738005713610289000,12.201288818359375,-33.531951904296875,-17.883094787597656,16.475744247436523
1738005713620358000,12.21135791015625,-33.581878662109375,-17.74895477294922,16.66606903076172
1738005713630427000,12.221427001953124,-33.887603759765625,-17.862411499023438,16.66728401184082
1738005713640496000,12.23149609375,-33.766387939453125,-17.941123962402344,16.623910903930664
1738005713650564900,12.24156494140625,-33.993011474609375,-18.039627075195312,16.578720092773438
1738005713660634000,12.251634033203125,-34.095184326171875,-18.03693389892578,16.7305908203125
1738005713670702000,12.2617021484375,-34.159027099609375,-18.1380615234375,16.539186477661133
1738005713680770800,12.271770751953126,-33.866668701171875,-18.004188537597656,16.718324661254883
1738005713690840000,12.281840087890625,-33.832550048828125,-18.003662109375,16.773239135742188
1738005713700908800,12.29190869140625,-33.492340087890625,-18.21509552001953,16.5737361907959
1738005713710976800,12.301976806640624,-33.607696533203125,-18.365684509277344,16.3194637298584
1738005713721046000,12.3120458984375,-33.459808349609375,-18.431991577148438,16.244016647338867
1738005713731114800,12.32211474609375,-33.534759521484375,-18.412635803222656,16.23596954345703
1738005713741184000,12.33218408203125,-33.867156982421875,-18.295852661132812,16.404525756835938
1738005713751253000,12.3422529296875,-33.695709228515625,-18.270767211914062,16.520811080932617
1738005713761322000,12.352322021484374,-33.671234130859375,-18.13646697998047,16.591337203979492
1738005713771390000,12.362389892578125,-33.726104736328125,-18.246841430664062,16.14320182800293
1738005713781459000,12.372458984375,-33.606536865234375,-18.30492401123047,16.53179931640625
1738005713791528000,12.38252783203125,-34.168121337890625,-18.38465118408203,16.426250457763672
1738005713801597000,12.392596923828124,-34.013092041015625,-18.47736358642578,16.330909729003906
1738005713811666000,12.402666015625,-33.876312255859375,-18.594192504882812,16.24761199951172
1738005713821734000,12.41273388671875,-34.031280517578125,-18.3790283203125,16.161880493164062
1738005713831803000,12.422802978515625,-34.086212158203125,-18.16046905517578,16.419200897216797
1738005713841872000,12.432871826171874,-34.105926513671875,-18.24737548828125,16.366291046142578
1738005713851940900,12.44294091796875,-34.119964599609375,-18.45769500732422,16.604942321777344
1738005713862010000,12.453010009765626,-34.042083740234375,-18.525543212890625,16.62837028503418
1738005713872077800,12.463077880859375,-33.872589111328125,-18.586082458496094,16.4974308013916
1738005713882146800,12.473146728515625,-33.911346435546875,-18.703857421875,16.452425003051758
1738005713892216000,12.483216064453124,-34.294586181640625,-18.502174377441406,16.319202423095703
1738005713902284800,12.493284912109376,-34.447906494140625,-18.68950653076172,16.18084716796875
1738005713912354000,12.50335400390625,-34.075469970703125,-18.578857421875,16.280757904052734
1738005713922422000,12.513422119140625,-34.096405029296875,-18.746055603027344,16.3526611328125
1738005713932490800,12.52349072265625,-33.980743408203125,-18.6927490234375,16.094343185424805
1738005713942560000,12.53356005859375,-33.697357177734375,-18.856521606445312,16.05702018737793
1738005713952628700,12.543628662109375,-33.944732666015625,-18.83068084716797,16.199800491333008
1738005713962698000,12.553697998046875,-34.007415771484375,-18.71465301513672,16.34003448486328
1738005713972766000,12.563765869140624,-34.007354736328125,-18.763877868652344,16.274202346801758
1738005713982835000,12.5738349609375,-33.811370849609375,-18.745086669921875,16.264745712280273
1738005713992904000,12.583904052734376,-34.050140380859375,-18.960044860839844,16.28935432434082
1738005714002973000,12.593972900390625,-33.798126220703125,-18.76270294189453,16.05240821838379
1738005714013042000,12.6040419921875,-33.887908935546875,-18.751876831054688,16.265357971191406
1738005714023110000,12.61410986328125,-34.121368408203125,-18.621597290039062,16.2784481048584
1738005714033179100,12.62417919921875,-33.919830322265625,-18.789466857910156,16.33858871459961
