time,seconds_elapsed,z,y,x
1739550869259868700,0.02786865234375,0.20044366188943386,-0.026455168466269968,-0.10570691129229962
1739550869269938700,0.037938720703125,0.13213818742632866,-0.053649903253465886,-0.07166903261207044
1739550869280007700,0.048007568359375,0.06466741022169589,0.009365794238448142,-0.011834668570011853
1739550869290076400,0.058076416015625,-0.028935002583265302,0.02542304893955588,0.0018889555517584084
1739550869300145700,0.068145751953125,-0.06675999858677387,0.026026056334003806,-0.014945128740742802
1739550869310215700,0.078215576171875,-0.06729366707205772,0.04204648615606129,0.0292374195959419
1739550869320284700,0.08828466796875,-0.08267828320860862,0.06409523635692894,0.061528016217425464
1739550869330353400,0.098353515625,-0.07282616675794124,0.06224493231512606,0.01633088401071727
1739550869340423700,0.108423583984375,-0.00018120178580284117,0.13162965338230131,-0.06272840498313308
1739550869350492700,0.11849267578125,-0.019703063857555388,0.1610322004120797,-0.04326594494841993
1739550869360561700,0.128561767578125,-0.14727613532543182,0.10289346130676567,0.020032222746685147
1739550869370631700,0.138631591796875,-0.18314122943282127,0.08071889276914299,0.012784443575516342
1739550869380700700,0.14870068359375,-0.10993453892469406,0.04691350767053663,-0.004730389522761106
1739550869390769700,0.158769775390625,-0.03461597082912922,0.0068626523111015554,-0.013731807428225874
1739550869400839700,0.168839599609375,0.0770499219328165,-0.01975282128341496,-0.02268514840826392
1739550869410908700,0.17890869140625,0.12975976785719395,-0.03866013165339827,-0.022904124921187756
1739550869420977700,0.188977783203125,0.10247662413418292,-0.04371843795627355,-0.02244293715022504
1739550869431047700,0.199047607421875,0.04135843082666397,-0.05906140690818429,-0.02203530619740486
1739550869441116700,0.20911669921875,-0.015371756654977798,-0.038323520110175015,-0.011195786144584417
1739550869451185700,0.219185546875,-0.0452870024472475,0.004997150700166821,-0.04343552936166525
1739550869461254700,0.229254638671875,-0.04495090236067772,0.0006722001731395721,-0.06383994642160833
1739550869471324700,0.23932470703125,-0.033440497308969495,0.007900324795767664,-0.04576711411438882
1739550869481393700,0.2493935546875,-0.05829319901466369,0.012585779198259114,-0.02846767733246088
1739550869491462700,0.259462646484375,-0.0810235017389059,-0.016011515863239765,0.02752053267545998
1739550869501532700,0.26953271484375,-0.08273907348513602,-0.0009652648355811834,0.07683847113922238
1739550869511601700,0.2796015625,-0.09803425777256489,0.04468552942276001,0.051243134372681375
1739550869521670700,0.289670654296875,-0.1461608675599098,0.04825856560394168,0.04555865899547934
1739550869531740700,0.29974072265625,-0.14554185887873172,0.037497444549575445,0.048288814611732955
1739550869541809700,0.3098095703125,-0.12152034730017185,0.0642179128885269,0.06520575488209725
1739550869551878700,0.319878662109375,-0.04485094911754131,0.0907023074492812,0.05257555202022195
1739550869561948400,0.329948486328125,0.002554360657930374,0.0774346834667027,0.035614188086241484
1739550869572017700,0.340017578125,0.008018471282720565,0.07397431387975811,0.03427585215456783
1739550869582086700,0.350086669921875,0.0024129063606262205,0.06277735869139432,0.07093326568342745
1739550869592156700,0.36015673828125,0.019748072043061254,0.03165690182782709,0.04099887679927051
1739550869602225700,0.3702255859375,0.08439794660806656,0.01279576868712902,0.031422508550062775
1739550869612294700,0.380294677734375,0.11194237161576748,0.027067382080480453,0.041465398332476616
1739550869622364400,0.390364501953125,0.10727613337039947,0.026139599711075424,0.043006928686052555
1739550869632433700,0.40043359375,0.10373919141590594,0.031357772750779986,0.061080710841342804
1739550869642502700,0.410502685546875,0.08113572994172573,0.020303879294916987,0.048976577680185436
1739550869652571600,0.420571533203125,0.07177519640028476,0.012985153779387474,0.050369347212836146
1739550869662641400,0.430641357421875,0.08254092056453227,0.01706292461231351,0.03706584819927811
1739550869672710700,0.440710693359375,0.12287176190912723,0.009954261650890112,-0.004650529219582676
1739550869682779600,0.450779541015625,0.11099369258880615,0.00908405468761921,-0.029383550068363545
1739550869692849700,0.460849609375,0.07981997116804122,0.014324220363423228,-0.024303616455569863
1739550869702918700,0.470918701171875,0.0392307711482048,-0.003925356750190258,0.006168240306153893
1739550869712987600,0.480987548828125,-0.03689502167701721,0.0066355655569583175,0.023137203024700282
1739550869723057400,0.491057373046875,-0.09071429014801978,0.023841551901772617,0.01640285326838493
1739550869733126700,0.501126708984375,-0.13463468041718005,0.021055866705998776,-0.013396437994018197
1739550869743195600,0.511195556640625,-0.134985393550992,0.037178660923987625,-0.05445135582946241
1739550869753265700,0.521265625,-0.13552373821139335,0.042758141556754704,-0.025602862485870716
1739550869763334400,0.53133447265625,-0.16101590686440467,0.009656009356677531,0.023635361805185676
1739550869773403600,0.541403564453125,-0.13568740434050558,-0.03362988240122795,-0.009879296718537807
1739550869783473400,0.551473388671875,-0.04123100505471229,-0.018762641202285886,-0.046385172947496174
1739550869793542700,0.561542724609375,-0.013868950876593589,0.014343655716255307,-0.06509155391789972
1739550869803611400,0.571611328125,-0.049580315726995464,0.04551014367863536,-0.05469042528234422
1739550869813680600,0.5816806640625,-0.06735854900181293,0.018279606925696135,-0.04930493285171687
1739550869823750400,0.59175048828125,-0.10964929224252701,-0.0420776119466871,-0.059245969694852824
1739550869833819600,0.601819580078125,-0.11736731927394867,-0.03591426701135933,-0.02978431288897991
1739550869843888600,0.611888671875,-0.11070903042852878,0.02009922356829047,-0.05663812528401613
1739550869853958700,0.621958740234375,-0.08398293606638908,0.02521780869103968,-0.014793591440841554
1739550869864027400,0.63202734375,-0.05046645091176033,-0.0007101940959692001,-0.03282499575912952
1739550869874096600,0.6420966796875,-0.03560907351970673,0.020307970948144793,-0.0342884193751961
1739550869884166700,0.652166748046875,0.005692658683657646,0.018702216251939532,-0.01820559184141457
1739550869894235600,0.662235595703125,0.046935938698053355,-0.009425999993085861,0.0008134352747350931
1739550869904304400,0.672304443359375,0.09741641813516616,-0.011703589536249637,-0.03740611300431192
1739550869914374700,0.682374755859375,0.11024725813567637,0.029483649441972373,0.023363851387426256
1739550869924443600,0.692443603515625,0.13498831616044044,0.030369638496264815,0.015756737384572624
1739550869934512600,0.7025126953125,0.14966682985424995,-0.03737381816990673,-0.00797711635902524
1739550869944582700,0.712582763671875,0.1376513978898525,-0.04148454142436385,-0.03899966580606997
1739550869954651600,0.722651611328125,0.08927052108049392,-0.008949322392046452,-0.005879340362176299
1739550869964720600,0.732720703125,0.04573357717096805,0.039647462190315126,0.03086750501580536
1739550869974790700,0.742790771484375,0.026000118175148964,0.030208821911364793,-0.0003229483440518379
1739550869984859600,0.752859619140625,0.0009685527712106704,-0.009720818221196532,0.019746391542628406
1739550869994928600,0.7629287109375,-0.00749240158200264,-0.019990356366336344,0.03204020205698907
1739550870004998700,0.77299853515625,-0.008774842607975005,0.03830803028009832,0.027843407954275607
1739550870015067600,0.783067626953125,-0.020793781703710556,0.07545775737054645,0.037390769304707645
1739550870025136600,0.79313671875,-0.04072831622958183,0.034583968255668875,0.03017141251042485
1739550870035206700,0.80320654296875,-0.04835924949944019,-0.019761369916051624,0.007451777310669421
1739550870045275600,0.813275634765625,-0.030442484536767005,-0.03419504200331867,0.006278276551887393
1739550870055344600,0.8233447265625,0.008920973080396652,-0.018309782868251204,0.016504267816245553
1739550870065413600,0.83341357421875,0.04540799847841263,-0.008479147597029805,-0.002365267826616764
1739550870075483600,0.843483642578125,0.053153498038649556,-0.022393837311491367,-0.053498073692619795
1739550870085552600,0.853552734375,0.02563420747220516,-0.01030753206796944,-0.04653356844224035
1739550870095621600,0.86362158203125,-0.023092706295847892,-0.003284501563385129,-0.023492665398865936
1739550870105691600,0.873691650390625,-0.07503741306662559,-0.011621902602165937,-0.010526216319948434
1739550870115760600,0.8837607421875,-0.10032383001446724,-0.017529957602173088,-0.01738821104392409
1739550870125829600,0.89382958984375,-0.1310720194995403,-0.007228124622628092,-0.029200740847364067
1739550870135899600,0.903899658203125,-0.10965455293953418,0.0001014145478606224,0.008423398821800947
1739550870145968600,0.91396875,-0.11829554003477095,-0.00043240006789565085,-0.0054120151113718745
1739550870156037600,0.92403759765625,-0.0563759672164917,-0.030074454941973087,-0.0027891192618757486
1739550870166107600,0.934107666015625,0.018200842601060866,-0.026809096470475195,0.010658464397490025
1739550870176176600,0.9441767578125,0.04330138158798218,-0.00650090632662177,0.008296046115085482
1739550870186245600,0.95424560546875,0.046888007903099056,0.025186317574232814,0.00044387130998075003
1739550870196315600,0.964315673828125,0.07458090147078036,0.019214476623013614,0.00462327588647604
1739550870206384600,0.974384521484375,0.06318330914378166,-0.008160437036678195,-0.0070341364204883575
1739550870216454100,0.9844541015625,0.048210780939459796,-0.0205962863702327,0.002620046305283904
1739550870226524200,0.994524169921875,0.0707324093490839,-0.009652648355811833,0.010811974458768964
1739550870236593000,1.004593017578125,0.053882396835088726,0.025280425598472354,-0.007919906279072166
1739550870246662100,1.014662109375,0.035108722782135005,0.034562340945750475,-0.0037451778776943683
1739550870256732000,1.02473193359375,0.05336334139704704,0.02528364046886563,0.009482406355440617
1739550870266801200,1.03480126953125,0.0365904857724905,0.03622574411332607,-0.052796282098814845
1739550870276870000,1.044869873046875,-0.01668400829732418,0.04450301246270537,-0.051746261589229105
1739550870286940200,1.054940185546875,-0.007172083586454391,0.0585983925063163,-0.0020549597684293985
1739550870297009000,1.0650087890625,0.04357084617912769,0.052632396773993964,-0.010321122201904655
1739550870307078100,1.075078125,0.09153788149058818,0.03648220309242606,-0.016592969013005495
1739550870317148000,1.08514794921875,0.10597674120962619,-0.004252323682233691,-0.005117854470387101
1739550870327217200,1.095217041015625,0.1057405943661928,-0.024532091449201106,-0.006589826719090342
1739550870337286000,1.105285888671875,0.08221592639386653,-0.02571589440628886,-0.027381708726659414
1739550870347356200,1.115356201171875,0.07057634200453758,-0.0191819625928998,-0.027718247204646468
1739550870357425000,1.1254248046875,0.04075169710516929,-0.025729557605460286,-0.012422551460564136
1739550870367494100,1.135494140625,0.0003454524368047714,-0.014610928350314497,-0.019318229258432983
1739550870377564000,1.14556396484375,-0.038816345128417015,-0.004804842998459935,-0.032019013138487935
1739550870387633200,1.155633056640625,-0.04582125545442104,0.005559826084226369,-0.04133804562576115
1739550870397702000,1.165701904296875,-0.048314241313934324,0.0049232817463576795,-0.030882118063047526
1739550870407772200,1.175772216796875,0.01061024134159088,-0.013935732502490281,-0.02274447738006711
1739550870417841000,1.1858408203125,0.014570961666107177,-0.01433868728019297,-0.04549735726229846
1739550870427910100,1.19591015625,-0.0378846172362566,-0.024720965084806083,-0.05104059753790498
1739550870437980200,1.205980224609375,-0.05382862082123756,-0.021243059841170905,-0.021346958607062694
1739550870448049200,1.216049072265625,-0.02677051802575588,-0.012424597287178039,-0.027668343648314473
1739550870458118000,1.226117919921875,-0.013463877207040786,-0.0051052872497588395,0.005400836130231619
1739550870468188200,1.236188232421875,-0.01591419296860695,-0.011346592792123555,0.013151523322239518
1739550870478257200,1.246257080078125,-0.00010346037447452545,-0.005698138576373458,-0.007995601863786578
1739550870488327000,1.256326904296875,0.03534896127879619,0.029577976661920545,-0.06293364523164928
1739550870498396200,1.266396240234375,0.049130233871936796,0.04211319471672177,-0.0403331794321537
1739550870508465200,1.276465087890625,0.02052256354689598,0.02333316398821771,-0.014396774142980575
1739550870518535200,1.28653515625,0.00540624295771122,-0.021578356210142372,-0.04348068367764354
1739550870528604000,1.29660400390625,0.016097732841968537,-0.022851444885879754,-0.03346073637939989
1739550870538673200,1.306673095703125,-0.008469137659668922,0.005895195518434047,-0.0421126832600683
1739550870548743000,1.316742919921875,-0.020610241830348968,0.008846227343752979,-0.027081483671069145
1739550870558812200,1.326812255859375,-0.02358428920507431,0.014958865005150436,-0.006747939890250563
1739550870568881200,1.336881103515625,-0.03900339213311672,0.024009528879821298,-0.02685045139417052
1739550870578951200,1.346951171875,0.006260813960433006,0.023127631478756665,-0.049153395551815623
1739550870589020000,1.35702001953125,0.07127192305326462,0.03936871831417083,-0.03222330353893339
1739550870599089200,1.367089111328125,0.13726795153021812,0.0036611528560519216,-0.01733209694251418
1739550870609159000,1.377158935546875,0.11228022526800632,0.009648118311166763,-0.0014447189155966042
1739550870619228200,1.387228271484375,0.06356383289396762,0.019723595188930628,0.02146466670259833
1739550870629297000,1.397296875,0.02736614583134651,0.027877091028168797,0.019384134101495146
1739550870639367200,1.4073671875,0.010446575212478637,0.04816043899171054,-0.006009761808812618
1739550870649436000,1.417435791015625,-0.0016086042404174804,0.038461613406613464,-0.04290945966094732
1739550870659505200,1.427505126953125,-0.025509704309701918,0.027555677054077386,-0.0412729445002973
1739550870669575000,1.437574951171875,0.009852700972557067,0.043444516385719174,0.015326748469471931
1739550870679644200,1.44764404296875,0.0021925416082143783,0.04783215688541531,0.016457213804125785
1739550870689714000,1.4577138671875,0.024497312396764753,0.04571962171085179,0.01731616872102022
1739550870699783200,1.467783203125,0.05043956290483474,0.022284239457175135,-0.004373392778635025
1739550870709852000,1.477851806640625,0.07565349913835526,-0.0024448358688503504,-0.04760002862997353
1739550870719922200,1.487922119140625,0.11226152056753634,0.007119330485910177,-0.092542528488487
1739550870729991000,1.497990966796875,0.12601239802241324,-0.005241261654347181,-0.11307838990837335
1739550870740060200,1.50806005859375,0.10553834979236125,0.005025280816107988,-0.09757307000160216
1739550870750130200,1.518130126953125,0.07178045709729194,-0.006790683053433895,-0.048293856113031504
1739550870760199200,1.52819921875,0.013275661158561707,0.023406375354900956,-0.012895941125974059
1739550870770268000,1.538267822265625,-0.042317046725749964,0.041929654843360184,0.019872282944619655
1739550870780338200,1.548338134765625,-0.06812894885241985,0.05646678730510175,0.004172901770472527
1739550870790407200,1.5584072265625,-0.0486333902657032,0.05038286428153515,-0.0038370939448475836
1739550870800476200,1.56847607421875,0.00511339749097824,0.014775836588442325,-0.0022610037345439193
1739550870810546200,1.578546142578125,0.05244447298645973,-0.0181922939684242,-0.008436623629555105
1739550870820615200,1.588615234375,0.055768648973107335,-0.031672245527431364,-0.0006819909147918224
1739550870830684000,1.598683837890625,0.055125674894452095,-0.009636500938609242,0.030208894976601
1739550870840754000,1.60875390625,0.04671966559886932,-0.008837240319699048,0.028504063820093867
1739550870850823200,1.6188232421875,0.0299590849339962,-0.014990429187193512,-0.025391338627040384
1739550870860893000,1.628892822265625,0.005755787047743797,0.010769815817475319,-0.06009944471903145
1739550870870962200,1.638962158203125,-0.027485388296842574,0.03073781422153115,-0.03061521075516939
1739550870881031000,1.649031005859375,-0.08064940772950649,0.03724770757220685,-0.01660414799414575
1739550870891101200,1.65910107421875,-0.0962947206288576,0.032459231186658145,-0.03826864811778068
1739550870901170000,1.669169921875,-0.08057166631817818,0.06201981832236051,-0.03621975276395678
1739550870911239200,1.6792392578125,-0.118785953900218,0.056836789661273354,-0.012504238394647836
1739550870921309000,1.689308837890625,-0.1427057586699724,0.02796813031248748,-0.0008787555959075689
1739550870931378200,1.699378173828125,-0.07947627229690551,0.021309037749469278,-0.016728505026176572
1739550870941448000,1.709447998046875,0.0019599018961191177,0.009009966538101434,-0.0366688117057085
1739550870951517200,1.71951708984375,0.058273909792304034,-0.002016746649891138,-0.021829043035581707
1739550870961586000,1.7295859375,0.08328384788632393,-0.011364201514050364,-0.02523373691253364
1739550870971656200,1.73965625,0.11284078176021575,-0.0018333529070019721,-0.01774761894084513
1739550870981725000,1.749724853515625,0.101911391466856,-0.03667144205421209,-0.0014445727851241826
1739550870991794200,1.759794189453125,0.08630699509978294,-0.04187332154624164,0.000742854256555438
1739550871001864000,1.769864013671875,0.09560147766768932,-0.04159735414907336,0.0015912877794355153
1739550871011933200,1.77993310546875,0.1240969197899103,-0.07314999188482761,-0.035704277522489426
1739550871022003200,1.790003173828125,0.10032733714580536,-0.08160239760540425,-0.042601855016499754
1739550871032072200,1.800072265625,0.06558510958850383,-0.06397044093348085,-0.00899191942475736
1739550871042141000,1.810140869140625,0.057553778824210165,-0.024125264213979244,-0.007996843972802162
1739550871052211000,1.8202109375,-0.0064782561033964155,-0.016084361903741955,-0.021387582878395914
1739550871062280200,1.8302802734375,-0.09215396756231785,0.006213979144021869,0.00033456571660935876
1739550871072349200,1.84034912109375,-0.16185703386366365,0.016593845795840025,0.024307635043561458
1739550871082419200,1.850419189453125,-0.1549807183533907,0.01268836278989911,0.009605521278455853
1739550871092488000,1.860488037109375,-0.10848784724771976,0.010783332886174321,0.01721329286843538
1739550871102558200,1.87055810546875,-0.09053308836221695,0.0034205490332096813,0.0422666317127645
1739550871112627000,1.880626953125,-0.05103519071042537,0.013614537724107503,0.0390815719358623
1739550871122696200,1.8906962890625,0.027310616251826285,0.01024352692104876,0.007004618065059184
1739550871132766000,1.900765869140625,0.04963409174084663,-0.02015760269202292,-0.013308759710565209
1739550871142835200,1.910835205078125,0.008601824128627776,0.002467778353020549,0.0217857884157449
1739550871152904000,1.920904052734375,-0.024078210201859473,-0.008763444431126118,0.03277165813669562
1739550871162974200,1.93097412109375,-0.02988718874156475,-0.015335954689234495,0.017175737337023017
1739550871173043000,1.94104296875,-0.023952537995576857,-0.01281271982192993,0.029805940198898314
1739550871183113200,1.95111328125,-0.007200140637159347,-0.015564283552393317,0.02591558169685304
1739550871193182000,1.961181884765625,0.038299627777934074,-0.03326521380729973,-0.03419738009087741
1739550871203251200,1.971251220703125,0.050475803261995314,-0.026534005856141445,-0.06223536076918244
1739550871213321200,1.9813212890625,0.07042144370377064,0.004683043249696493,-0.03929309579469263
1739550871223390200,1.99139013671875,0.06103168406784534,0.03595964052304625,-0.02518748661801219
1739550871233460200,2.001460205078125,0.021564181554317472,0.008534384915605186,-0.0440529306076467
1739550871243529000,2.011529052734375,0.012708090403676032,-0.01941211808696389,-0.04975830264240503
1739550871253598200,2.02159814453125,0.01953822868466377,-0.01793115881420672,-0.06634725306741893
1739550871263668200,2.031668212890625,0.06363865169584751,-0.002424012276530266,-0.08947071982771157
1739550871273737200,2.0417373046875,0.07891630032658577,0.018018471771478653,-0.09051409140080213
1739550871283806200,2.05180615234375,0.049694297495484346,0.004567746306955814,-0.06625285278223454
1739550871293876200,2.061876220703125,-0.020696166548132895,-0.00017791385017335414,-0.05395765402838588
1739550871303945200,2.0719453125,-0.06212006382644176,0.028863179456070063,-0.06276157660037279
1739550871314015200,2.08201513671875,-0.040917116799950595,0.03586955108679831,-0.06439210041165351
1739550871324084200,2.092084228515625,-0.0013175123393535614,0.02071596722714603,-0.08304083291068673
1739550871334153200,2.1021533203125,0.05896481466591358,0.029945640930533406,-0.052334875132143494
1739550871344223200,2.11222314453125,0.062295420393347734,0.009837576468661426,-0.010951163733750581
1739550871354292200,2.122292236328125,0.05170271470844745,-0.013323226627334952,-0.018385186192020772
1739550871364362200,2.1323623046875,0.03551321192979812,-0.014518208565562962,-0.01833886283226311
1739550871374431200,2.14243115234375,0.01748129615485668,-0.03328055750690401,-0.019412410347908735
1739550871384500200,2.152500244140625,0.04088438357412815,-0.015426701712608336,-0.028767390931397675
1739550871394570200,2.1625703125,0.05605155756771564,-0.007427300456538796,-0.028481267466396093
1739550871404639200,2.17263916015625,0.02330488774180412,-0.008497121645137667,-0.022122107698023318
1739550871414709000,2.182708984375,0.003098550537228584,-0.004662073526903987,-0.030448548951372504
1739550871424778200,2.1927783203125,-0.02456862406730652,0.004815510522946715,-0.026587708804756402
1739550871434847200,2.20284716796875,-0.03652560384273529,-0.008730126683413981,-0.003619213410466909
1739550871444917200,2.212917236328125,-0.06324877559542656,-0.023965835868567226,0.015699235043674705
1739550871454986000,2.222986083984375,-0.050402153503894806,-0.017941461012512445,-0.003518675645440817
1739550871465056300,2.23305615234375,-0.032326398587226864,0.0026907003886997697,0.027338965563476085
1739550871475125000,2.243125,-0.00008826280534267425,-0.022521409213915464,0.05448467357717454
1739550871485194200,2.2531943359375,0.0235322667568922,-0.046393137058243154,0.04905366150438785
1739550871495264300,2.26326416015625,0.09441197562217712,-0.05001213127300143,0.020579116039723157
1739550871505333200,2.273333251953125,0.09398176751136779,-0.053301016750559205,0.012163096806779503
1739550871515402000,2.283402099609375,0.05610065740644932,-0.0427999348718673,0.020511603761464357
1739550871525472300,2.29347216796875,-0.0033744448691606518,-0.013850684567540883,-0.003350844797864556
1739550871535541200,2.303541259765625,-0.06717910078167914,0.002928454667329788,0.00321267843618989
1739550871545611300,2.313611328125,-0.11550210992395878,0.02129325565844774,0.011063099675625562
1739550871555680300,2.32368017578125,-0.15198095201551914,0.037221550217643375,0.01435293500125408
1739550871565749200,2.333749267578125,-0.12754209180772305,0.062204600304737685,0.041830432252585883
1739550871575819300,2.3438193359375,-0.09357143314480781,0.03933941915445029,0.04321947545818984
1739550871585888300,2.35388818359375,-0.03860416368246078,-0.006171235980838537,0.031235607675835487
1739550871595958300,2.363958251953125,0.014171733215451239,-0.008361074175313114,0.013889774468913674
1739550871606027000,2.374027099609375,0.07338672325015068,0.017077829920500515,0.0041967941027134656
1739550871616096300,2.38409619140625,0.090299864128232,0.012640651190653442,0.007862842329591512
1739550871626166000,2.394166015625,0.10346738873720168,-0.009239902836456895,0.012519947420433162
1739550871636235300,2.4042353515625,0.07058277174532412,-0.02200403427630663,0.008211509636789559
1739550871646305000,2.414304931640625,0.05181085125803947,-0.032999913934618236,0.007995017341896891
1739550871656374300,2.424374267578125,0.07273556586503982,-0.03325162367336452,0.043488501657918094
1739550871666443000,2.434443115234375,0.09333879343271255,-0.06134316116981208,0.049628392652422186
1739550871676513300,2.44451318359375,0.07914192577600479,-0.06818235954008996,0.029947832887619732
1739550871686582000,2.45458203125,0.040868016961216926,-0.05860452998615801,0.03180763541013002
1739550871696652300,2.46465234375,0.008278583523631096,-0.03764920104518533,0.011175035617500544
1739550871706721300,2.47472119140625,0.032271453529596324,-0.023534458713978527,0.013197189094871282
1739550871716790300,2.484790283203125,0.018324176719784736,-0.020936697305738924,-0.0006133826579898595
1739550871726860300,2.4948603515625,-0.022939561560750006,-0.015580284839123486,-0.0072004328981041905
1739550871736929300,2.50492919921875,-0.06039981590509414,-0.006185410636663437,-0.0029542466957122085
1739550871746999300,2.514999267578125,-0.10380115073621272,-0.010712678802758455,0.001241232232749462
1739550871757068000,2.525068115234375,-0.13500818990468977,-0.019830635759979485,-0.011787833753600716
1739550871767138300,2.53513818359375,-0.13931553170979022,-0.021496084754168986,0.0008141659270972012
1739550871777207000,2.54520703125,-0.10427753607630728,-0.016229323332384228,0.024995471177250147
1739550871787276300,2.5552763671875,-0.048132455006241796,-0.03401851639263332,0.03219707311913371
1739550871797346000,2.565345947265625,0.0013823942691087723,-0.05129238034188747,0.02495769645012915
1739550871807415300,2.575415283203125,0.04830138183236122,-0.046272871679440136,0.029937676819786426
1739550871817485000,2.585485107421875,0.09625380409657955,-0.04268003481924534,-0.002819733595848083
1739550871827554300,2.59555419921875,0.1345282974332571,-0.05109824600927532,-0.009589081600308417
1739550871837623000,2.605623046875,0.12015958034098148,-0.06233114929385483,-0.006601297961175441
1739550871847693300,2.615693359375,0.0638911651521921,-0.03622720541805029,-0.01393733993768692
1739550871857762000,2.625761962890625,-0.006837152543663978,-0.01836545857824385,-0.011254165268316864
1739550871867832000,2.63583203125,-0.0664098699748516,-0.010259016751125455,-0.03308145473822951
1739550871877901000,2.645901123046875,-0.07361351774334907,0.018963278340920806,-0.050570934199541805
1739550871887970300,2.65597021484375,-0.0455441920787096,0.02589702312685549,-0.03184343737587333
1739550871898040300,2.666040283203125,0.007283142745494842,0.006378741251677274,0.024744930482283232
1739550871908109300,2.676109375,0.07174246317446231,-0.007706628854572773,0.006887494491413235
1739550871918179300,2.686179443359375,0.10870236678123474,-0.013974530142918228,-0.029198841151222586
1739550871928248000,2.696248046875,0.11137304729521275,-0.028573183533549307,-0.00476626455374062
1739550871938317300,2.7063173828125,0.07765197947919368,-0.03177475605383515,0.020200199724733827
1739550871948387000,2.716386962890625,0.05743395183682441,-0.01927694739997387,0.018773235661536453
1739550871958456300,2.726456298828125,0.04887012163102627,-0.028881372699886557,0.02033069423660636
1739550871968526000,2.736526123046875,0.002709258958697319,-0.003526420560479164,0.03999444899708032
1739550871978595300,2.74659521484375,-0.0576917259901762,0.022203575436398386,0.04828421150185167
1739550871988665000,2.7566650390625,-0.07436462837159633,0.012625234425812959,0.028446707609668373
1739550871998734300,2.766734375,-0.06973112335205078,0.025034488013386726,0.0021110738698393106
1739550872008803000,2.776802978515625,-0.03079728932380676,0.01519713074043393,0.02360847379826009
1739550872018873000,2.786873046875,0.002669511470198631,-0.011627382494881749,0.0061667790014296765
1739550872028942000,2.796942138671875,0.04889876320362091,-0.038492593066766854,0.033021248983591794
1739550872039012000,2.80701220703125,0.07504793446063995,-0.060303954315185544,0.05279876631684601
1739550872049081000,2.8170810546875,0.08389350421726703,-0.08744315952286123,0.04460552298910916
1739550872059150300,2.827150390625,0.0925046806961298,-0.09456548568345606,0.04410999455712735
1739550872069220400,2.837220458984375,0.12737667211294174,-0.07221556057892739,0.026571122996136544
1739550872079289000,2.8472890625,0.1330424427896738,-0.05435914750136435,0.033707916073501105
1739550872089359400,2.857359375,0.08608955295681953,-0.03191321467645466,0.0641731969639659
1739550872099428000,2.867427978515625,0.019333646023273466,-0.058337038156390186,0.0864356629807502
1739550872109498400,2.877498291015625,-0.01526362010538578,-0.0819720346353948,0.0591074380069971
1739550872119567000,2.887567138671875,-0.01054185228049755,-0.07439158944375812,0.05523249626979231
1739550872129636400,2.89763623046875,0.012300094124674796,-0.040852965522557495,0.050915436788275835
1739550872139706000,2.9077060546875,0.06064239248931408,-0.032446883161738514,0.04189611789993942
1739550872149775400,2.917775390625,0.12261457227766513,-0.0572563302475959,0.041883842940255996
1739550872159845000,2.92784521484375,0.1627221262603998,-0.08877090099528431,0.056889031305164095
1739550872169914400,2.937914306640625,0.1679302162975073,-0.08954261602014303,0.06250146435946226
1739550872179983000,2.947983154296875,0.10448562586903572,-0.07681136393658816,0.0580724689360708
1739550872190053000,2.95805322265625,0.060928223693370816,-0.05888816923312842,0.0535784454524517
1739550872200122000,2.9681220703125,0.016898527830839154,-0.032002208134159445,0.03457045118696987
1739550872210192100,2.978192138671875,-0.029628245544433593,-0.008484335228800773,0.06760309834741056
1739550872220261000,2.98826123046875,-0.05758534300625324,-0.022878990479931235,0.09138941293060779
1739550872230331100,2.9983310546875,-0.022009002712368962,-0.020873495876416563,0.06378405151590705
1739550872240400100,3.008400146484375,0.027407646885514256,-0.01882964202389121,0.07324921447560191
1739550872250468900,3.01846875,0.05068155496716499,-0.057183045815676445,0.09602423312440514
1739550872260539100,3.0285390625,0.054441784283518785,-0.07614164798147977,0.14191205100901425
1739550872270608000,3.03860791015625,0.0709983668088913,-0.09957454601712525,0.0882624400164932
1739550872280678100,3.04867822265625,0.09336042074263096,-0.10448781782612204,0.09457695692554116
1739550872290747100,3.0587470703125,0.13722645047605037,-0.10896971248053014,0.0706926618605852
1739550872300817000,3.06881689453125,0.09991934086680412,-0.10623159275352954,0.07911920248754321
1739550872310886100,3.07888623046875,0.04147065902948379,-0.11535554106011986,0.10524038975909351
1739550872320955100,3.088955078125,0.01004559319615364,-0.13928272541873157,0.1426043441221118
1739550872331025200,3.099025146484375,0.025430209332704543,-0.18073760235719383,0.1730138762373477
1739550872341094100,3.10909423828125,0.031793899145722386,-0.16308949826806782,0.13764467588812113
1739550872351164200,3.1191640625,-0.0000339022696018219,-0.20731676252931355,0.06530505053810774
1739550872361233000,3.12923291015625,0.011857611054182052,-0.15461656121611594,0.219189059695974
1739550872371303200,3.13930322265625,-0.008683657193183899,-0.11076909005269407,0.2771528806257993
1739550872381372000,3.149371826171875,-0.03909691563546657,-0.217941763048619,0.19465864874720573
1739550872391441200,3.159441162109375,-0.035332010143995285,-0.25565226582698525,0.14164463224448262
1739550872401511000,3.169510986328125,-0.03339315103590488,-0.19164032383933663,0.16652305291332303
1739550872411580200,3.179580078125,-0.08483867611289024,-0.16745331950075923,0.15283486543111502
1739550872421650200,3.189650146484375,-0.098477909886837,-0.19458463366292417,0.14951551175005734
1739550872431719200,3.19971923828125,-0.08377367722988129,-0.1878773180440068,0.16874708563834429
1739550872441789200,3.2097890625,-0.042594694623351095,-0.19056838375888763,0.1777582942854613
1739550872451858000,3.21985791015625,0.02460018824934959,-0.21256270035877822,0.20681948053166269
1739550872461927200,3.22992724609375,0.10587737248837947,-0.23355003187321124,0.20553302091769873
1739550872471997000,3.239996826171875,0.12306114700138568,-0.19053923072963952,0.17797412899322806
1739550872482066200,3.250066162109375,0.1123287405848503,-0.14202690956033764,0.18206154443733394
1739550872492136000,3.260135986328125,0.11329437074661254,-0.13771898323334753,0.20632044496834276
1739550872502205200,3.270205078125,0.10229366878271103,-0.12202625099569558,0.2189089275803417
1739550872512275000,3.28027490234375,0.08416063072085381,-0.11797354153878986,0.21698723880276083
1739550872522344200,3.29034423828125,0.06872749926745891,-0.1031225208222866,0.21409268640503287
1739550872532413000,3.300412841796875,0.0825046802073717,-0.0608727671790868,0.1953504304036498
1739550872542483200,3.310483154296875,0.13991583569049834,-0.03886705240234732,0.18476488511189817
1739550872552552000,3.320552001953125,0.18023206398785113,-0.029888284720107912,0.1898889501273632
1739550872562622000,3.3306220703125,0.25339082370102406,-0.043347485752031206,0.15345745430886745
1739550872572691000,3.34069091796875,0.27889702087938784,-0.02177789737023413,0.17153839685730635
1739550872582761000,3.350760986328125,0.271515093934536,-0.02391564005129039,0.18219810336381195
1739550872592830200,3.360830322265625,0.2720511005073786,0.06506203556247055,0.09174699419662356
1739550872602899200,3.370899169921875,0.25708675560951233,0.004353226773440837,0.07179207446984946
1739550872612969200,3.38096923828125,0.2383393850415945,-0.02395896773636341,0.08264043541625142
1739550872623038000,3.391037841796875,0.3278203340023756,-0.036974808914959426,0.07926109517626465
1739550872633108200,3.401108154296875,0.3594920680731535,-0.08554097916334867,0.02915500200949609
1739550872643177000,3.411177001953125,0.3446656703412533,-0.08536737616211175,-0.024010259532183408
1739550872653247200,3.421247314453125,0.31349019535481926,-0.05051313959769904,-0.04672448790445924
1739550872663316000,3.43131591796875,0.2685556596070528,-0.05623349000588059,-0.05543525230027735
1739550872673385200,3.44138525390625,0.2169984908491373,-0.07915726947560905,-0.10129939704835414
1739550872683455000,3.451455078125,0.1819856296569109,-0.10739661794491112,-0.13399199859946964
1739550872693524200,3.461524169921875,0.09174538676142692,-0.11093012583330272,-0.14270955806225538
1739550872703594000,3.471593994140625,-0.03413958548903465,-0.0731667968891561,-0.1642861607067287
1739550872713663000,3.4816630859375,-0.19291560447216033,-0.018190028946101663,-0.19819822105020282
1739550872723733000,3.49173291015625,-0.32795302047133446,-0.04089943501278758,-0.17089045434258876
1739550872733802000,3.501802001953125,-0.3906365633994341,-0.0827186882842332,-0.17720102572888136
1739550872743872300,3.511872314453125,-0.42668636642396446,-0.04462057442776859,-0.29852256252132353
1739550872753941000,3.52194091796875,-0.3385235143244266,-0.09164828306250274,-0.40161329996585843
1739550872764010000,3.532010009765625,-0.17672493264973163,-0.23361476767249403,-0.4807487229358405
1739550872774080000,3.542080078125,-0.00013619360029697419,-0.36407691164538264,-0.5250284480366856
1739550872784149200,3.552149169921875,0.14841595301032065,-0.45195269043184816,-0.5910647354587912
1739550872794219000,3.562218994140625,0.21470891860723496,-0.5361748420815915,-0.6650117229402065
1739550872804288300,3.572288330078125,0.17422200991809367,-0.5879617279421537,-0.7021040207549929
1739550872814358000,3.58235791015625,0.126171387976408,-0.6400416784651577,-0.6973086031720042
1739550872824427000,3.592427001953125,0.03330255014300346,-0.7053864764917641,-0.7215689650077373
1739550872834496000,3.60249609375,-0.05216857865452766,-0.6836163971018046,-0.7055063034791499
1739550872844566000,3.61256591796875,-0.20100129577219486,-0.5717712022501975,-0.7227504298772662
1739550872854635000,3.622635009765625,-0.37978491451740265,-0.4995128619754687,-0.7237254123892635
1739550872864705000,3.632705078125,-0.5147662164151668,-0.4715887534677982,-0.6880052797105163
1739550872874774000,3.64277392578125,-0.5976321311503648,-0.526748294099234,-0.6612714404333383
1739550872884844000,3.652843994140625,-0.5822849244147539,-0.5418256343849003,-0.59899801267609
1739550872894913000,3.6629130859375,-0.5439011254847049,-0.5508699415840208,-0.5126600379161537
1739550872904983000,3.672983154296875,-0.4358656981796026,-0.5409148031502962,-0.5029259218219667
1739550872915052300,3.68305224609375,-0.2613198631346226,-0.5380459697157144,-0.535652389110066
1739550872925121000,3.69312109375,-0.04070435083210468,-0.6068620971146971,-0.49506399280782787
1739550872935191000,3.70319091796875,0.13144552898705006,-0.6604542788315564,-0.4330570704996586
1739550872945260000,3.713260009765625,0.24680267748236653,-0.6476954080887138,-0.3849037919010967
1739550872955330000,3.723330078125,0.32571839328706265,-0.6228180103331804,-0.3611753084523603
1739550872965399000,3.73339892578125,0.38041912076771256,-0.60678336932268,-0.35216245583742856
1739550872975469000,3.743468994140625,0.4107780186742544,-0.5819841879025102,-0.33425018438678233
1739550872985538000,3.7535380859375,0.4342360511511564,-0.5788401177231222,-0.3018614976856857
1739550872995608000,3.763608154296875,0.45633214762508867,-0.5866110074529424,-0.2854749379649758
1739550873005677000,3.773677001953125,0.4917746324062347,-0.5929190946212038,-0.2671160552579909
1739550873015746000,3.78374609375,0.5238812507629395,-0.6128760601745918,-0.21121574272923171
1739550873025816000,3.793816162109375,0.5390624532818794,-0.638112756229192,-0.15519786823540926
1739550873035885000,3.803885009765625,0.5467366411715746,-0.6872731660436838,-0.14694419995732605
1739550873045955000,3.813955078125,0.5586579651117325,-0.7273056820288301,-0.16038513468019663
1739550873056024000,3.824024169921875,0.5828367130786181,-0.7711139171604067,-0.11331373303420841
1739550873066094000,3.834093994140625,0.5588017574965953,-0.8168198026068508,-0.07300707628279925
1739550873076163000,3.8441630859375,0.5441717591196298,-0.8824120725885033,-0.05387808598615229
1739550873086232000,3.854232177734375,0.5140881710231304,-0.9588821488067507,-0.06190196409635246
1739550873096302000,3.864302001953125,0.5365495936781167,-1.0082403462156653,-0.08817658836394549
1739550873106371000,3.87437109375,0.526923687198758,-1.0353210261691361,-0.0850665665846318
1739550873116441000,3.884441162109375,0.4708481642335653,-1.0505699601620435,-0.08282068735398351
1739550873126510000,3.894510009765625,0.3005366057574749,-1.0475718743246047,-0.08995916093178093
1739550873136580000,3.904580078125,0.06534194848239422,-1.082748255515471,-0.08382518822140991
1739550873146649000,3.914649169921875,-0.1353647482573986,-1.1177756566897035,-0.06639525692760943
1739550873156718800,3.92471875,-0.3278834623664617,-1.1396306378841399,-0.05151004168055951
1739550873166788000,3.9347880859375,-0.43934594151079653,-1.1477722971551119,-0.07229856268726288
1739550873176857000,3.944857177734375,-0.4452940362602472,-1.1361071399331093,-0.11740728595815599
1739550873186927000,3.954927001953125,-0.44554187354147434,-1.1602493552818893,-0.1540612654209137
1739550873196996000,3.96499609375,-0.44732057365179057,-1.1725538333207368,-0.17347740209586918
1739550873207066000,3.975066162109375,-0.3951625163912773,-1.1899953819870948,-0.20025332694910467
1739550873217135400,3.98513525390625,-0.2930541410475969,-1.2301730785965919,-0.21727679633386432
1739550873227205400,3.995205322265625,-0.14053835150301455,-1.2636100687742233,-0.2698807707309723
1739550873237274400,4.0052744140625,-0.008418284255266188,-1.2793613262660801,-0.31100071662664414
1739550873247344000,4.01534423828125,0.07336158880889415,-1.3049381044626236,-0.29189992951117455
1739550873257413400,4.025413330078125,0.15247370396852492,-1.3349746385470032,-0.31537622829712925
1739550873267483100,4.035483154296875,0.22502163830697536,-1.419002144407481,-0.356807724360004
1739550873277552400,4.045552490234375,0.26950200054645534,-1.4878279894828796,-0.37514402990899975
1739550873287621400,4.055621337890625,0.2488005733013153,-1.47297689570114,-0.3625882074575871
1739550873297691400,4.06569140625,0.2045458365112543,-1.4370537877961993,-0.3022472090676427
1739550873307760000,4.075760009765625,0.12234744577407836,-1.41864485540241,-0.3151131934467703
1739550873317830400,4.085830322265625,0.013873042529821395,-1.4142723394066095,-0.30973091588653623
1739550873327899100,4.095899169921875,-0.05370002600550651,-1.3753034340649843,-0.2977710865668952
1739550873337969400,4.105969482421875,-0.05443184741139412,-1.2929422539815305,-0.2197534886457026
1739550873348038100,4.1160380859375,-0.08240297339856624,-1.2649885175205766,-0.2056313667256385
1739550873358108200,4.126108154296875,-0.1758072332829237,-1.2719251849159598,-0.22092399372979998
1739550873368177400,4.136177490234375,-0.19232699092924593,-1.2251685483075678,-0.2327768555436283
1739550873378246400,4.146246337890625,-0.24323767847716807,-1.2547417026638983,-0.31081469253525135
1739550873388316400,4.15631640625,-0.18235329392552374,-1.430725315427035,-0.49420069050937887
1739550873398385400,4.166385498046875,0.07664075661003589,-1.5997861431896685,-0.5906305818252265
1739550873408455400,4.176455322265625,0.2723416078865528,-1.56030592732504,-0.5482808018736541
1739550873418524200,4.186524169921875,0.2903974890589714,-1.32872346919775,-0.3484286030713469
1739550873428594400,4.196594482421875,-0.004897708913683891,-1.0431097072839737,-0.10645802192054689
1739550873438663200,4.2066630859375,-0.5445002604216337,-0.6954823375929147,0.016954495801776645
1739550873448733400,4.2167333984375,-1.2847165696889162,-0.2748975029144436,-0.14961137333996594
1739550873458802200,4.22680224609375,-2.147821007478237,0.09366174177676438,-0.28195779668949544
1739550873468872200,4.2368720703125,-2.8418980813831087,0.3583202478148043,-0.2567192374713719
1739550873478941200,4.246941162109375,-3.3004274467915296,0.5668652369648218,-0.23160415850244462
1739550873489010400,4.257010498046875,-3.552926290088892,0.7642021650105715,-0.23713285879604518
1739550873499080400,4.26708056640625,-3.552750349000096,0.9990158601440489,-0.24647373778894544
1739550873509149400,4.2771494140625,-3.301155176544189,1.1054882759161293,-0.2282975181724876
1739550873519219500,4.287219482421875,-2.7603736443847415,1.0221594929095357,-0.196153855741024
1739550873529288200,4.2972880859375,-2.0147598599880934,0.8379222118683158,-0.11635945740565656
1739550873539358500,4.3073583984375,-1.1603349877387286,0.6365383465193212,0.005448401599004864
1739550873549427200,4.31742724609375,-0.3019341975957155,0.4335158105852082,0.04539813467152416
1739550873559497500,4.32749755859375,0.41752924650013445,0.22433416749946772,0.01749364417977631
1739550873569566200,4.337566162109375,0.9899719913363456,0.07100567333251237,-0.08261975795440375
1739550873579635500,4.347635498046875,1.5488813008606432,-0.06572963262572884,-0.09687259358204901
1739550873589705200,4.357705322265625,1.9762427900671957,-0.08810242714919149,-0.07572020769901573
1739550873599774500,4.3677744140625,2.158416051250696,-0.015006941930577158,-0.05059636090174317
1739550873609844200,4.37784423828125,2.0900497865110634,0.04703917987681925,-0.07312266548648476
1739550873619913200,4.387913330078125,1.8964467842966317,0.11537103089019655,-0.12548990851826966
1739550873629983500,4.3979833984375,1.6777134324789047,-0.08549830906540155,0.05254449929483235
1739550873640052200,4.40805224609375,1.5039941113859414,0.24982940489239988,-0.08763627094216644
1739550873650122500,4.41812255859375,1.2272399477541447,0.5013087689489126,-0.13422478444203734
1739550873660191200,4.428191162109375,1.036445573219657,0.45471134149022396,-0.03872435599602759
1739550873670261500,4.438261474609375,0.7714262710452079,0.5220518433786928,0.03411547396108508
1739550873680330200,4.448330322265625,0.3560936578065157,0.803394723040238,0.26729280006438494
1739550873690399500,4.4583994140625,-0.26593933962881566,1.1872614269785582,0.5427567046899349
1739550873700469200,4.46846923828125,-1.020686278551817,1.4828092845380305,0.7405632960740477
1739550873710538500,4.47853857421875,-1.8421862017989157,1.702979683421552,0.9015889936801046
1739550873720608300,4.488608154296875,-2.4709061296522616,1.8554975187927483,0.9987762792345136
1739550873730677200,4.49867724609375,-2.6947920419275757,1.9029776473701,1.0509515068255364
1739550873740747300,4.508747314453125,-2.3611317497253417,1.8225142637319862,1.0643163806375115
1739550873750816300,4.518816162109375,-1.6305992146044967,1.6801202013596892,1.0620276121132075
1739550873760886500,4.528886474609375,-0.7690589573919773,1.4785346759587525,1.0304352268889545
1739550873770955300,4.538955322265625,0.15232581993043423,1.2827616362288594,1.0015691248234362
1739550873781025500,4.549025634765625,1.0212380672156811,1.1479656277701258,0.9578183189675211
1739550873791094300,4.55909423828125,1.6820938395202158,0.9134585874330252,0.791689306873083
1739550873801163300,4.569163330078125,1.962515878009796,0.592413519719243,0.5319255871392786
1739550873811233300,4.5792333984375,2.1124019035726787,0.40683512626737356,0.47416671419702466
1739550873821302500,4.589302490234375,2.265707966712117,0.7225614831764251,0.43916452052928506
1739550873831372300,4.599372314453125,1.9826994188606737,0.903361848571524,0.16855243984907864
1739550873841441300,4.609441162109375,1.6853484574019908,0.8303614942904561,0.06533581100255251
1739550873851511300,4.61951123046875,1.327774205648899,0.8512082482904195,0.04203530717492103
1739550873861580300,4.629580322265625,0.982380805554986,0.8451151921123266,0.025943638747557996
1739550873871650300,4.639650390625,0.7800736878812312,0.7977560595661402,0.07674765105061232
1739550873881719300,4.64971923828125,0.6348445482134819,0.7597410939484834,0.06619220863617956
1739550873891789300,4.659789306640625,0.578392593151331,0.7514528658136725,0.023816417460516093
1739550873901858300,4.6698583984375,0.5888672254145145,0.6509749412160366,0.02352386425472796
1739550873911927300,4.67992724609375,0.5813911904454231,0.5841048333182931,0.06038169572651386
1739550873921997300,4.689997314453125,0.509167081233859,0.5538461078505963,0.13546419004388152
1739550873932066300,4.70006640625,0.37647301349043844,0.4843997197240591,0.22154621728137133
1739550873942136300,4.71013623046875,0.2263525946497917,0.41702845737114547,0.26219408868588506
1739550873952205300,4.720205322265625,0.058711132165789603,0.3663121964167803,0.2571827633298933
1739550873962275300,4.730275390625,-0.015353051954507826,0.3223678407501429,0.29256562687829135
1739550873972344300,4.74034423828125,0.021490531796216964,0.3229873608879745,0.2767600088506937
1739550873982414300,4.750414306640625,0.029047815307974813,0.3195316674761474,0.22954086929708717
1739550873992483300,4.7604833984375,0.029881343522667882,0.2933840305890888,0.23456220459043978
1739550874002553300,4.77055322265625,0.019672668719291686,0.22650004029646514,0.2921176639150828
1739550874012622300,4.780622314453125,0.026925416326522827,0.17346666150614617,0.32541261527352033
1739550874022692000,4.790692138671875,0.051288873210549354,0.09178893364220857,0.38912973903305825
1739550874032761300,4.80076123046875,0.03674655311703682,0.07597191743776202,0.41255401537083086
1739550874042830300,4.810830322265625,0.057583004918694496,0.06338095060773194,0.34182270200029014
1739550874052900400,4.820900390625,0.10237433280348777,-0.03991970326043665,0.3084975746992975
1739550874062969000,4.830968994140625,0.17628069601356983,-0.1376505941722542,0.3443303009070456
1739550874073039400,4.841039306640625,0.21675942139625548,-0.17076266324445605,0.38854989331848916
1739550874083108400,4.8511083984375,0.3054255468428135,-0.2067177737228572,0.45332989706918597
1739550874093178400,4.861178466796875,0.4267851506233215,-0.44973304162099953,0.4663615203388035
1739550874103247400,4.871247314453125,0.5238900185912847,-0.541414496300742,0.42466165566332637
1739550874113317400,4.8813173828125,0.5077665667861699,-0.5454518620580434,0.4252079644344747
1739550874123386400,4.891386474609375,0.4772586157977581,-0.5856790238324553,0.38835422461591657
1739550874133456100,4.9014560546875,0.48157706351876256,-0.6623175154201686,0.3294483005303889
1739550874143525400,4.911525390625,0.4904249713629484,-0.7158849280219525,0.2897461124781519
1739550874153595100,4.92159521484375,0.48388767854869363,-0.7445368758801371,0.26156843106821176
1739550874163664400,4.931664306640625,0.5133189402163029,-0.8030174141604453,0.23993352236524224
1739550874173733000,4.941733154296875,0.5362105709820986,-0.8232500548500568,0.23304500496052205
1739550874183803400,4.951803466796875,0.51550622112751,-0.859178496517241,0.21859467399939894
1739550874193872100,4.9618720703125,0.44138007768690585,-0.8718689051337539,0.18520627220384775
1739550874203942400,4.9719423828125,0.35701427978277206,-0.8325044246032833,0.17781535823494196
1739550874214011400,4.982011474609375,0.25419161868989465,-0.8331675646871328,0.17919658346027134
1739550874224081200,4.9920810546875,0.10721885022521019,-0.8528837802872061,0.13601261770687997
1739550874234150100,5.002150146484375,-0.016115268498659133,-0.8593683200009167,0.13422142344117163
1739550874244220000,5.012219970703125,-0.0885614960283041,-0.8202360407911241,0.15294592459015546
1739550874254289200,5.0222890625,-0.12607903351783753,-0.7836139908365904,0.12526603663451968
1739550874264359000,5.03235888671875,-0.1453460440456867,-0.8271420207872986,0.07703808536455035
1739550874274428200,5.04242822265625,-0.14990122313201426,-0.8927752073012292,0.027158932821452614
1739550874284497000,5.052496826171875,-0.10048983423113822,-0.9038285162352026,0.014629413855075836
1739550874294567200,5.062567138671875,-0.0326209976196289,-0.8601068634085357,0.039471667231991886
1739550874304636000,5.072635986328125,-0.04512508988380432,-0.8211297747604549,0.06204984813444316
1739550874314706200,5.0827060546875,-0.10081599744558334,-0.8002364782050252,0.13198153555989264
1739550874324775200,5.092775146484375,-0.08177110523581504,-0.7983473034575581,0.17311141832768917
1739550874334845200,5.10284521484375,-0.06289923150539398,-0.8240456622071564,0.1663392207790166
1739550874344914200,5.1129140625,-0.057125908800959586,-0.8249193763017654,0.19638423043079672
1739550874354984000,5.12298388671875,-0.08659808700084685,-0.8955964022018015,0.16814217854775487
1739550874365053200,5.13305322265625,0.04051964191496372,-1.0626692710176109,0.061093131931498644
1739550874375123000,5.143123046875,0.33394904601573944,-1.1379191577911376,-0.008701850437000393
1739550874385192200,5.153192138671875,0.4153483953297138,-1.0245600512452422,0.04900068920813501
1739550874395262000,5.163261962890625,0.06859481279850006,-0.9170308198966085,0.06288987915515899
1739550874405331200,5.173331298828125,-0.40857670923769474,-0.9024749096691608,0.02533690502606332
1739550874415401200,5.183401123046875,-0.866110633867979,-0.7292291974373162,0.05080737330392003
1739550874425470200,5.19347021484375,-1.381771753296256,-0.3588968786589801,0.21725283093638717
1739550874435540200,5.203540283203125,-1.968306736370921,-0.008348726150393485,0.40727329848892985
1739550874445609200,5.213609130859375,-2.737387321072817,0.3336182066261768,0.5595054487865417
1739550874455678200,5.22367822265625,-3.526683595329523,0.6213863700948655,0.5835968107309192
1739550874465748000,5.233748046875,-4.163936958250403,0.9028221156716346,0.5957625378862023
1739550874475817200,5.243817138671875,-4.468018689268828,1.2291980960845947,0.565495994438231
1739550874485887000,5.253886962890625,-4.249368339559435,1.4511097856774926,0.5888578730642795
1739550874495956200,5.263956298828125,-3.536875903519988,1.3941212395206093,0.6239096780274063
1739550874506026000,5.27402587890625,-2.439136780425906,1.2297203663930296,0.49190381174385545
1739550874516095200,5.28409521484375,-1.325860480982065,1.1500689567249267,0.3059275050155818
1739550874526165000,5.2941650390625,-0.3336673064649105,1.1091976518280804,0.13947561764232813
1739550874536234200,5.304234130859375,0.5047364053100347,0.9577052139818668,-0.05047733763195574
1739550874546304300,5.31430419921875,0.9737602767258882,0.5558876236155629,-0.26668380132056774
1739550874556373000,5.324373046875,2.186667163223028,0.7255262512661517,-0.027217604206129908
1739550874566443300,5.334443359375,2.869306312790513,0.8097587781794369,-0.37378026727512476
1739550874576512000,5.344511962890625,3.2286674479603765,0.7465629018150269,-0.8360568563878535
1739550874586582300,5.354582275390625,3.45061508564949,0.614260317607224,-1.0259518709298223
1739550874596651000,5.364651123046875,3.575688741517067,0.5210470502503216,-0.9854678117848932
1739550874606721300,5.37472119140625,3.509337323731184,0.45652708567529915,-0.9172871327452361
1739550874616790000,5.3847900390625,3.196704621988535,0.4912411100514233,-1.094388132165745
1739550874626860000,5.394860107421875,2.660712077671289,0.6820160492330789,-1.280509181126952
1739550874636929000,5.404928955078125,2.099090586578846,0.8887913983620702,-1.198785860555619
1739550874646998300,5.414998291015625,0.9788549695163965,1.1468256639547645,-1.0689633296605199
1739550874657068000,5.425068115234375,-0.07633388261795043,1.3054345096774398,-0.8470737788341939
1739550874667137000,5.435136962890625,-0.7811018618851899,1.4829692974053323,-0.6919978564780205
1739550874677207000,5.44520703125,-1.569596756631136,1.588767759438604,-0.5040636206150054
1739550874687276000,5.455276123046875,-2.080775762209296,1.563579249907285,-0.32150735146328807
1739550874697346300,5.46534619140625,-2.241463167771697,1.415060274913907,-0.37201347679831087
1739550874707415000,5.4754150390625,-2.1203461405754087,1.3496896848589182,-0.5283822885092347
1739550874717485300,5.4854853515625,-1.73538820733428,1.344177058917284,-0.6409207263220101
1739550874727554000,5.495553955078125,-1.2272124752253293,1.1823097959205509,-0.6359056746389716
1739550874737624000,5.5056240234375,-0.6492705484509468,0.9304071649506688,-0.49532326479852196
1739550874747693000,5.515693115234375,-0.10089256981313229,0.7191958792008459,-0.3755483729261905
1739550874757763000,5.52576318359375,0.35623043592870235,0.5350463495083153,-0.3756443806465715
1739550874767832000,5.53583203125,0.8342132743477821,0.38912981209829445,-0.38068639340177174
1739550874777902000,5.545902099609375,1.2601736645847559,0.21487784543335436,-0.3899768573816865
1739550874787971000,5.55597119140625,1.6246563805520533,0.04563581588491797,-0.42315819229781626
1739550874798041000,5.566041015625,1.9112106381863354,-0.11589549315571784,-0.3615744273051619
1739550874808110000,5.576110107421875,2.040627876216173,-0.2373686403132975,-0.31987909267432985
1739550874818180000,5.58618017578125,1.9553461325109003,-0.3346833516396582,-0.28745054888688026
1739550874828249300,5.596249267578125,1.6264473556220531,-0.2568963476039469,-0.2821910939887166
1739550874838319000,5.606319091796875,1.041602225330472,-0.12207388952970503,-0.280368262475729
1739550874848388000,5.61638818359375,0.4144201745688915,-0.05385565495863556,-0.19062435172982511
1739550874858457000,5.62645703125,-0.15079787971079348,-0.036927170380949975,-0.10566080712825059
1739550874868527000,5.636527099609375,-0.541575312885642,-0.015777341781184076,-0.07227174774557352
1739550874878596000,5.64659619140625,-0.7994365599989891,0.008190539913997054,-0.04972542328611016
1739550874888666000,5.656666015625,-0.8527829502612352,-0.02640752993226051,-0.05692337196618318
1739550874898735000,5.666735107421875,-0.7173731938183308,-0.051125791603326795,-0.07591222313977777
1739550874908805000,5.67680517578125,-0.446247391462326,-0.12212408534698188,-0.023861864037439225
1739550874918874000,5.6868740234375,-0.11164192736446857,-0.23053375279195606,-0.056523193667456506
1739550874928944000,5.696944091796875,0.1918319008886814,-0.31967925925329327,-0.07150229774303733
1739550874939013000,5.70701318359375,0.39205285993814465,-0.41225539775043724,-0.10176474953778088
1739550874949083100,5.717083251953125,0.523018496453762,-0.45457485562898214,-0.1432945183433592
1739550874959152000,5.727152099609375,0.6073848788797855,-0.4930544430837035,-0.1672870960883796
1739550874969222100,5.73722216796875,0.6525625757336616,-0.5390246785547584,-0.20098565981164573
1739550874979291100,5.747291015625,0.5492419019907713,-0.563472014329955,-0.18361695718578994
1739550874989361200,5.757361083984375,0.3078478055536747,-0.5613595522206276,-0.17563976776152848
1739550874999430100,5.76743017578125,0.04106616988182068,-0.5588577985327691,-0.1980487295769155
1739550875009500000,5.7775,-0.17649872267842293,-0.5416876872189342,-0.21840046660155057
1739550875019569200,5.787569091796875,-0.3727677292317152,-0.5257306049566716,-0.20680705944150685
1739550875029639000,5.797638916015625,-0.5205658426046371,-0.5137159767098725,-0.199357912479341
1739550875039708200,5.807708251953125,-0.563614126214385,-0.553432193287462,-0.1917630734361708
1739550875049778200,5.817778076171875,-0.5494622667431831,-0.5926924097258597,-0.2121250395938754
1739550875059847200,5.82784716796875,-0.44912674629092214,-0.658371262012422,-0.21641272685043514
1739550875069917200,5.837917236328125,-0.21124504188895224,-0.7523827670749277,-0.2257497333858162
1739550875079986200,5.847986083984375,0.09557283609509468,-0.8577444451261311,-0.2644431097216904
1739550875090056200,5.85805615234375,0.362137614145875,-0.9344547598410398,-0.3388229356624186
1739550875100125200,5.868125244140625,0.5364560701757669,-0.9623817544255405,-0.41178156969361007
1739550875110195200,5.8781953125,0.5673381151735782,-0.9706297236151993,-0.45992410770244896
1739550875120264000,5.888263916015625,0.4810264438986778,-0.954720645213127,-0.5024016056869178
1739550875130334200,5.898334228515625,0.3799824829161167,-0.9140563341304659,-0.5689840557496995
1739550875140403000,5.90840283203125,0.32399580727815624,-0.897054930447042,-0.6108495593156665
1739550875150473200,5.91847314453125,0.3191097888022661,-0.8503214555185288,-0.6341826502386481
1739550875160542000,5.9285419921875,0.30503859335184097,-0.8566594994336366,-0.6240854729857296
1739550875170611200,5.938611083984375,0.2567921565771103,-0.9176670719735324,-0.5652276988908648
1739550875180681000,5.948680908203125,0.21699147658646106,-0.9251864346276968,-0.5346623186267913
1739550875190750200,5.958750244140625,0.19326397951841354,-0.9365862189117818,-0.4812655133515596
1739550875200820200,5.9688203125,0.09861118087768554,-0.9540665652185678,-0.4089641011200845
1739550875210889200,5.97888916015625,-0.01902151133418083,-1.0283774906415493,-0.32092889398820695
1739550875220962600,5.988962646484375,-0.09661036244928836,-1.075905550013855,-0.21238639394380152
1739550875231031600,5.999031494140625,-0.16127894171476362,-1.074461707881093,-0.13680435260646046
1739550875241101600,6.0091015625,-0.23783728073835372,-1.0924892397418617,-0.12572108692564068
1739550875251170600,6.019170654296875,-0.3173416100859642,-1.0978130651131273,-0.18627616645768283
1739550875261240600,6.029240478515625,-0.3616308336675167,-1.0832740329552442,-0.2965145106345415
1739550875271309600,6.0393095703125,-0.3345230465114116,-1.0522436655279248,-0.39531010816842316
1739550875281379600,6.049379638671875,-0.2898953847557306,-1.0295783908639102,-0.40514395831003785
1739550875291448600,6.059448486328125,-0.25283903503715993,-1.1460761607617138,-0.5031353267889469
1739550875301518600,6.0695185546875,-0.14567103821635247,-1.356166333527118,-0.6992572530217468
1739550875311587600,6.079587646484375,0.10373100810945034,-1.555284445901215,-0.6618326545126736
1739550875321657600,6.08965771484375,0.2890928362011909,-1.6032286848589776,-0.5484986093427986
1739550875331726600,6.0997265625,0.280056712308526,-1.3938640498891472,-0.2984914367306977
1739550875341796600,6.109796630859375,-0.0403635745704174,-1.082641507205367,-0.07118307572603225
1739550875351865600,6.119865478515625,-0.6061930387467146,-0.6329315541990101,-0.19539061628356574
1739550875361935600,6.129935546875,-1.5733172384589909,-0.1420014828581363,-0.3852516554906964
1739550875372004600,6.140004638671875,-2.584260121631622,0.31366540579125285,-0.4537327787816524
1739550875382074600,6.15007470703125,-3.5174154162466524,0.7183534370273351,-0.34245077077075836
1739550875392143400,6.160143310546875,-4.447548148170113,1.1806245462473481,-0.21580248599760232
1739550875402213600,6.170213623046875,-5.150458516871929,1.5561514379940926,-0.10489742154031992
1739550875412282400,6.180282470703125,-5.360275571784377,1.7915476091906428,-0.10444405174963176
1739550875422352600,6.1903525390625,-5.000962951931357,2.020598795274645,-0.24521270487718283
1739550875432421600,6.200421630859375,-4.196241145005822,2.0774740903154014,-0.31488267262652514
1739550875442491600,6.21049169921875,-2.943928130793571,1.8756901197329163,-0.2654688725728541
1739550875452560600,6.220560546875,-1.5131108992993831,1.5514336156919597,-0.18489969047270713
1739550875462630400,6.23063037109375,-0.26785949403643605,1.3625897907033562,-0.19213066463954745
1739550875472699600,6.24069970703125,0.7954583040177822,1.1608319774754345,-0.181457148803398
1739550875482768600,6.2507685546875,1.7365601737231016,0.8639475375499576,-0.07142864798493682
1739550875492838700,6.260838623046875,2.4684967304229737,0.7037040763627738,0.008265797107294201
1739550875502907400,6.270907470703125,2.9264117633253335,0.574032717441395,0.14760865521542726
1739550875512977700,6.280977783203125,3.013586773431301,0.5523019471485168,0.24627273532412944
1739550875523046400,6.29104638671875,2.772127795064449,0.5868935872539878,0.37422823023833335
1739550875533116700,6.30111669921875,2.1778408826887605,0.6924751916661858,0.46582909396253525
1739550875543185400,6.311185302734375,1.2986597548455,0.9898305370390414,0.4539519744902849
1739550875553255700,6.321255615234375,0.513233015498519,1.3729419656306505,0.4253695116717368
1739550875563324400,6.331324462890625,-0.0731201812684536,1.6336138862505554,0.41590566388629374
1739550875573394400,6.34139453125,-0.5777034418433904,1.8633456019446253,0.4289890904083848
1739550875583463700,6.351463623046875,-1.065600940555334,2.0545769065916537,0.3950999725490808
1739550875593533400,6.361533447265625,-1.3069611347228287,2.141176893288642,0.3812582750055939
1739550875603602700,6.371602783203125,-1.237653205218911,2.115715704295784,0.4794013269148767
1739550875613672400,6.38167236328125,-0.8706447701662778,1.8964418158605694,0.6846179022945463
1739550875623741700,6.39174169921875,-0.42077100490033625,1.599714539258182,0.807752845184505
1739550875633811500,6.4018115234375,0.04115151007771492,1.3720418019205332,0.85317487218827
1739550875643880700,6.411880615234375,0.4182154751986265,1.244036330384761,0.9168936764482408
1739550875653950500,6.421950439453125,0.775262488207221,1.09056660111621,0.9011099049262702
1739550875664019700,6.432019775390625,1.1315858631163835,0.8880186604239046,0.8602749134518206
1739550875674089700,6.44208984375,1.3901485364973545,0.6585916267648338,0.8184338867399841
1739550875684158500,6.452158447265625,1.6065864708542823,0.5082571267820895,0.7162588759008794
1739550875694228700,6.462228759765625,1.8265683614283799,0.3766058460898697,0.5741014718286693
1739550875704297500,6.47229736328125,1.9478379488378763,0.3285679374992847,0.391447514456138
1739550875714367700,6.48236767578125,1.9291051913172006,0.37881899209469555,0.24716968416385351
1739550875724436500,6.4924365234375,1.8201532336890696,0.38308819384649395,0.10694032554477452
1739550875734506500,6.502506591796875,1.6967945650458336,0.3810525963656604,0.023367358518764376
1739550875744575500,6.512575439453125,1.549723012381792,0.35400662239938974,-0.0016352730516344307
1739550875754645500,6.5226455078125,1.4736691157490014,0.31743191871792076,0.012434972550719976
1739550875764714500,6.532714599609375,1.3537597107768058,0.26674817179366944,0.029355054626241325
1739550875774784500,6.542784423828125,1.204431903618574,0.30007527185603977,0.03407046577557921
1739550875784853500,6.552853515625,1.0274667324721813,0.33268633260354397,0.08075644830055534
1739550875794922500,6.562922607421875,0.7653250315606593,0.3226061064854264,0.10059782465025782
1739550875804992800,6.57299267578125,0.4765209491729736,0.3428774717502296,0.1349684424161911
1739550875815061500,6.5830615234375,0.21783201906383037,0.4104410418048501,0.18496771420761943
1739550875825131800,6.5931318359375,0.016111176845431327,0.4070470154523849,0.17480558195970952
1739550875835200500,6.603200439453125,-0.07318564772009849,0.37019787874370813,0.1859127399727702
1739550875845270500,6.6132705078125,-0.045403322303295135,0.3075210578173399,0.2560095548320562
1739550875855339500,6.623339599609375,0.037970541954040524,0.2506248661190271,0.3291944718997925
1739550875865409500,6.633409423828125,0.17296002715826034,0.1760869270071387,0.41330870619565246
1739550875875478500,6.643478515625,0.3108580932855606,0.06898615020364522,0.4788371902260929
1739550875885548500,6.653548583984375,0.4506839126050472,-0.07879808077439665,0.48472785569988186
1739550875895617500,6.663617431640625,0.5874070897340774,-0.21064707599580287,0.5233711092837154
1739550875905687600,6.6736875,0.7304027712613343,-0.3084165453523397,0.5416651831261813
1739550875915756500,6.683756591796875,0.8526613697081804,-0.4318360042721033,0.5110897198595107
1739550875925826600,6.69382666015625,0.8778408191502094,-0.5112435952469706,0.4330268214918673
1739550875935895800,6.703895751953125,0.8149743208706378,-0.5120825302891433,0.3657739248216152
1739550875945965600,6.713965576171875,0.7240344052731991,-0.5129669849734753,0.33123956786133346
1739550875956034600,6.72403466796875,0.5989636720150708,-0.58325954160057,0.267898291676864
1739550875966104600,6.7341044921875,0.5219482368737459,-0.6237865631043911,0.17191789769418536
1739550875976173600,6.744173583984375,0.4763245498180389,-0.6417618533212691,0.11609342688061296
1739550875986243600,6.75424365234375,0.434272291508317,-0.6854886937797069,0.10212751843556761
1739550875996312600,6.7643125,0.37018121986985203,-0.7290647275906056,0.11227905622422694
1739550876006382600,6.774382568359375,0.3175374249190092,-0.7984080206688493,0.14443302085399626
1739550876016451600,6.78445166015625,0.260520821711421,-0.8641994664844125,0.15072525286599991
1739550876026521600,6.794521484375,0.20293489418327806,-0.918921529014036,0.17433599168658256
1739550876036590600,6.804590576171875,0.11362228752672672,-0.9811137812938541,0.2065792420350015
1739550876046660600,6.81466064453125,0.020779753178358076,-1.0315697838768363,0.23783399280272421
1739550876056729600,6.8247294921875,-0.07532324427068234,-1.0289343208067119,0.25724077712744475
1739550876066798300,6.83479833984375,-0.23059096287190914,-1.039203274429962,0.24010829441025852
1739550876076868600,6.84486865234375,-0.36708033124506473,-1.0691325487475842,0.21358568673096595
1739550876086937600,6.8549375,-0.4682476263463497,-1.0965623343996702,0.186251616538316
1739550876097007600,6.865007568359375,-0.49002925004363057,-1.1337628418292849,0.1588598978742957
1739550876107076600,6.87507666015625,-0.44793315259218214,-1.1475078010000288,0.14362543079815804
1739550876117146400,6.885146484375,-0.37675007686614986,-1.1445832918554544,0.18398681341148912
1739550876127215600,6.895215576171875,-0.37767654406130313,-1.1338201980397105,0.18670381728522478
1739550876137285400,6.905285400390625,-0.5169669413298368,-1.0701815463438629,0.1321216016177088
1739550876147354600,6.915354736328125,-0.6741612440794706,-0.9770749542318284,0.10270962917245924
1739550876157424400,6.92542431640625,-0.7293249128967523,-0.9123510645825416,0.08466529230736196
1739550876167493600,6.93549365234375,-0.6622773295402526,-0.94988007331416,-0.029177433037012812
1739550876177563600,6.945563720703125,-0.38361937811374663,-1.1288327650159597,-0.1782301495809108
1739550876187632600,6.955632568359375,-0.08569090902805328,-1.1502486241407692,-0.21346965913586316
1739550876197702700,6.96570263671875,-0.08220598952174187,-1.0709782496795057,-0.16879633160755037
1739550876207771600,6.975771728515625,-0.33165888925194736,-1.0105696659460663,-0.204727330558002
1739550876217841700,6.985841552734375,-0.6121691905468702,-0.8578916715770959,-0.19943229288980363
1739550876227907300,6.9959072265625,-1.1553840873330832,-0.5474187782168388,-0.02422448680475354
1739550876237977300,7.005977294921875,-2.033766758275032,-0.10400134948343039,0.04831022272594273
1739550876248046300,7.01604638671875,-3.121462041738629,0.3747423903055489,0.17128310692198573
1739550876258116400,7.026116455078125,-4.291164577281474,0.8129412806730717,0.3504471763521433
1739550876268185300,7.036185302734375,-5.190313557398319,1.1723236047614365,0.25025968606844545
1739550876278255400,7.04625537109375,-5.611532890588045,1.6411523189313708,0.1490758051585406
1739550876288324400,7.056324462890625,-5.44531298533976,2.0453882224857804,0.06710844669826328
1739550876298394400,7.066394287109375,-4.674762912607193,2.254155768345296,0.047696109415590764
1739550876308463400,7.07646337890625,-3.415722635966539,2.070591052803397,0.16270210638567803
1739550876318533400,7.086533447265625,-2.101855375117063,1.7439933924637734,0.20957447832822798
1739550876328602400,7.096602294921875,-0.857650848558545,1.5929638959541916,0.07844948653243482
1739550876338672400,7.10667236328125,0.2605997321665287,1.5060354079551994,-0.06989880806915462
1739550876348741400,7.116741455078125,1.3538988269865513,1.324351829984784,-0.1284432053659111
1739550876358810400,7.126810302734375,2.2657132274091243,1.1233730383053422,-0.2749954103309661
1739550876368880400,7.13688037109375,2.956265634319186,0.9408509636841714,-0.4561111983507871
1739550876378949400,7.146949462890625,3.415868766438961,0.7300126028999686,-0.569039366133511
1739550876389019100,7.15701904296875,3.6430326774716377,0.4725016305290162,-0.6606544045135379
1739550876399088400,7.16708837890625,3.666898121705651,0.8666213598690926,-0.8404793490052223
1739550876409158400,7.177158447265625,3.34046778075695,1.1265307716839015,-1.0687512943450361
1739550876419227400,7.187227294921875,2.529499772918224,1.192287292316556,-1.2137898068115114
1739550876429297400,7.19729736328125,1.5491437511891126,1.1765237598650158,-1.0816848640676586
1739550876439366400,7.207366455078125,0.652045273861289,1.2073575818069278,-0.9098919079273938
1739550876449436400,7.2174365234375,-0.07846037325263022,1.2740756409481167,-0.7240410542096942
1739550876459505400,7.22750537109375,-0.6220452723950147,1.409092306420207,-0.5538054105140269
1739550876469575400,7.237575439453125,-1.0950491533577442,1.5673678285352886,-0.4715908723596483
1739550876479644400,7.24764453125,-1.3884329647511242,1.6479476781599223,-0.3752556005246937
1739550876489714400,7.25771435546875,-1.5162959590762852,1.6016554441928863,-0.41262423106282947
1739550876499783200,7.267783203125,-1.5191186152815819,1.5237702404797075,-0.4357174488153308
1739550876509853400,7.277853515625,-1.2761889798402786,1.4310671146020293,-0.4665145920086652
1739550876519922200,7.287922119140625,-0.745670483019948,1.2447035621218383,-0.39758711318969725
1739550876529992400,7.297992431640625,-0.05046352830231189,1.0078151065409182,-0.28015681168213485
1739550876540061400,7.3080615234375,0.5937351237118244,0.7688033751957118,-0.2319706537272781
1739550876550131200,7.318131103515625,1.1436071402996777,0.5711285934977233,-0.2567641725916415
1739550876560200400,7.328200439453125,1.6165923165619371,0.4370587073564529,-0.26759141768477857
1739550876570270200,7.338270263671875,1.8443728981882332,0.3922245632432401,-0.2602805101495236
1739550876580339500,7.34833935546875,1.8171791863143443,0.39676425249949093,-0.2943629586238414
1739550876590409200,7.3584091796875,1.5821546249091625,0.3567582591950893,-0.3458865173730999
1739550876600478500,7.368478515625,1.192147591584921,0.3300437091402709,-0.3101296328805387
1739550876610547200,7.378547119140625,0.74715867575109,0.34455095792040225,-0.22456571123301983
1739550876620617500,7.388617431640625,0.4161673104971647,0.34734628772735593,-0.1821591595929116
1739550876630686200,7.398686279296875,0.23012977510094643,0.31243674077913164,-0.11146949340701102
1739550876640756500,7.408756591796875,0.12316869902908802,0.25123466858044263,-0.06496522412449121
1739550876650825200,7.4188251953125,0.11563362734913825,0.19636165327280758,-0.05431961920857429
1739550876660895200,7.428895263671875,0.16129881545901298,0.13440131005272268,-0.022748934359475968
1739550876670964200,7.438964111328125,0.2911310640305281,0.023163287314027548,-0.01536832258887589
1739550876681034200,7.4490341796875,0.4581266298264265,-0.06775763132199644,-0.017983911914750933
1739550876691103500,7.459103515625,0.5917559325933456,-0.028138737639039752,-0.05814823758602142
1739550876701173200,7.46917333984375,0.6641513067185878,-0.005824906761199236,-0.11535232618972659
1739550876711242500,7.479242431640625,0.6338081909030675,-0.0713730453401804,-0.16948679808974265
1739550876721312300,7.489312255859375,0.6845686563253403,-0.1599871483385563,-0.2401412468317896
1739550876731381500,7.499381591796875,0.790620800858736,-0.27574118719697,-0.26574220962151884
1739550876741451300,7.509451171875,0.8232400449126959,-0.3445530037470162,-0.2762942179698497
1739550876751520500,7.5195205078125,0.8410773148983717,-0.3917021468043327,-0.3225491886664182
1739550876761590300,7.52959033203125,0.8861988976508378,-0.457422573210299,-0.3686054949857294
1739550876771659300,7.5396591796875,0.8499941963255405,-0.4762643440634012,-0.4312512631867081
1739550876781729500,7.5497294921875,0.6756704795986413,-0.525380695540458,-0.4998749367535114
1739550876791798300,7.55979833984375,0.5427525399714708,-0.6135052614562213,-0.49726526571176943
1739550876801868500,7.56986865234375,0.41734921375811096,-0.6415988447792828,-0.4452733587983995
1739550876811937300,7.579937255859375,0.30042087042331694,-0.6962728303834795,-0.3899178206708282
1739550876822007300,7.59000732421875,0.1508838044285774,-0.6951546400085091,-0.36438356644175945
1739550876832076300,7.600076171875,0.016685177341103554,-0.6964588544748723,-0.4269712477799505
1739550876842145500,7.6101455078125,-0.0848398451566696,-0.7137469661451876,-0.4375007520355284
1739550876852215300,7.62021533203125,-0.1880073741644621,-0.7514164793260395,-0.39816184433773155
1739550876862284500,7.630284423828125,-0.34812603992819785,-0.7659756044238806,-0.41673787692673503
1739550876872354300,7.640354248046875,-0.5246200864315033,-0.7228596624054014,-0.39165670022740956
1739550876882423300,7.65042333984375,-0.6000947218716144,-0.7172218026489019,-0.3720641840722412
1739550876892493300,7.660493408203125,-0.5473778616845607,-0.772304515184462,-0.3955515157088637
1739550876902562300,7.670562255859375,-0.42291386214792726,-0.8236537402801215,-0.4398452693350613
1739550876912632600,7.680632568359375,-0.26935937720537184,-0.8377914250954985,-0.47900268298611043
1739550876922701300,7.690701416015625,-0.0995803181707859,-0.8263457558430731,-0.48995961887352163
1739550876932771300,7.700771240234375,0.002686462604999542,-0.8312162844888865,-0.5028095289006829
1739550876942840300,7.71084033203125,0.11637304753959178,-0.8194640335053205,-0.5447141223680227
1739550876952910300,7.720910400390625,0.1755985589683056,-0.8244349537856877,-0.5772117128036915
1739550876962979300,7.730979248046875,0.21446108132600783,-0.8160707378052174,-0.5896253503054381
1739550876973049300,7.74104931640625,0.22047405800521372,-0.8196491808138787,-0.5908461242720484
1739550876983118300,7.751118408203125,0.20934885287880897,-0.8223400273330509,-0.5425312253709882
1739550876993188400,7.761188232421875,0.1655757621258497,-0.8133952349856496,-0.4622725705247372
1739550877003257300,7.77125732421875,0.149463416236639,-0.8006589414007961,-0.4533027898665517
1739550877013327400,7.781327392578125,0.1409194597750902,-0.7804949820332229,-0.41874373685643074
1739550877023396400,7.791396240234375,0.10797872868180275,-0.7810936785787344,-0.32474516434073447
1739550877033466400,7.80146630859375,-0.017622165930271147,-0.7154562542811036,-0.24777291075401006
1739550877043535400,7.811535400390625,-0.11521569419801235,-0.7027848426260054,-0.1704133383501321
1739550877053604400,7.821604248046875,-0.0812590640604496,-0.9077661479450762,-0.3518523669749498
1739550877063674400,7.83167431640625,0.2635305249214172,-1.1901765837728977,-0.5860146124623715
1739550877073743400,7.841743408203125,0.6713052701264619,-1.2052189623430372,-0.6094290980584919
1739550877083813400,7.8518134765625,0.6815601221591234,-1.0662816162958741,-0.37344175603576
1739550877093882400,7.86188232421875,0.3028162411272526,-0.9352993209064007,-0.19726232843957842
1739550877103952400,7.871952392578125,-0.5240262121915817,-0.6929388636551796,-0.05666515942141413
1739550877114021400,7.882021484375,-1.845413931673765,-0.24112726219445466,-0.11618351631686091
1739550877124091400,7.89209130859375,-3.10135624229908,0.30036811732277274,-0.09186433696597814
1739550877134160400,7.902160400390625,-4.007618853813409,0.7566284418206661,0.05751710007563233
1739550877144230400,7.91223046875,-4.753107550525665,1.1584180482015014,0.08629070155210793
1739550877154299100,7.922299072265625,-5.117507264384627,1.4966311814025044,0.07717793222665786
1739550877164369400,7.932369384765625,-4.8216643694013355,1.5928966759368777,0.08472089495211839
1739550877174438100,7.942438232421875,-3.9492648645222186,1.472975142135471,0.004607932186871767
1739550877184508400,7.95250830078125,-2.6660347339987753,1.316528004491329,-0.032111221466585994
1739550877194577400,7.962577392578125,-1.3894745827585457,1.2574302110955118,-0.1359635909333825
1739550877204647400,7.9726474609375,-0.48870121631026264,1.2296651290744542,-0.1827168665409088
1739550877214716400,7.98271630859375,0.22101883240640163,1.098019255209714,-0.17151669648215173
1739550877224785000,7.992784912109375,0.7832879737526178,0.9538371403768658,-0.10582944169342517
1739550877234855000,8.00285498046875,1.1192267322808502,0.8551417883470654,-0.034425051366910334
1739550877244924000,8.012923828125,1.4069365896910428,0.7553112948074936,-0.014197086852416396
1739550877254994000,8.022993896484374,1.6283780314236878,0.7049474274873733,-0.01983991504497826
1739550877265063000,8.03306298828125,1.742452738893032,0.7300754390031099,0.05078698810301721
1739550877275133000,8.0431328125,1.711226995024085,0.7554507032781839,0.03672295304574072
1739550877285201700,8.05320166015625,1.5267735139489174,0.8446991586573421,-0.05638955735042691
1739550877295272000,8.06327197265625,1.2235673967212437,1.0106183273933826,-0.10306304572001099
1739550877305340700,8.073340576171875,0.9601584523528813,1.067336532176286,-0.10608714278154074
1739550877315411000,8.083410888671875,0.626981559753418,1.1438577540598809,-0.09147665282264351
1739550877325479700,8.093479736328124,0.18096271634995936,1.3072211008332668,-0.0524496606182307
1739550877335550000,8.103550048828126,-0.2748480377495289,1.4609236159443855,0.001316416360810399
1739550877345619000,8.113618896484375,-0.6357067180007696,1.5866541282854973,0.12336816712394356
1739550877355688700,8.123688720703125,-0.9339122504621744,1.6160240151546894,0.35475612559244035
1739550877365758000,8.133758056640625,-1.0832628539741038,1.5387446683801709,0.5555108261924236
1739550877375827700,8.14382763671875,-1.0496990225464105,1.394556416067481,0.7153253213778138
1739550877385897000,8.15389697265625,-0.8719511765897273,1.254319823990017,0.8238128032993525
1739550877395965700,8.163965576171876,-0.6483920120507478,1.2164933666817843,0.9020009354818612
1739550877406036000,8.174035888671876,-0.40862288646698,1.1839483569078146,1.0089527322687208
1739550877416104700,8.184104736328125,-0.1285638360708952,1.0253510554924608,1.0429130156680941
1739550877426175000,8.194175048828125,0.22289397862851618,0.8750910820506512,1.03396866171211
1739550877436243700,8.20424365234375,0.5966016190588473,0.7205651217274367,0.9873979030646384
1739550877446314000,8.21431396484375,0.9131395115464925,0.5812957672469318,0.849159499067068
1739550877456382700,8.2243828125,1.158314295566082,0.4794220774419605,0.6565294335380196
1739550877466452700,8.23445263671875,1.3157570201188324,0.3966165145918727,0.4993127728261053
1739550877476522000,8.24452197265625,1.3857751437187193,0.3853362650342285,0.40871801740452646
1739550877486591700,8.254591796875,1.4213240114837884,0.3960631184928119,0.32316593232527374
1739550877496661000,8.264660888671875,1.4564514389663934,0.4000907665736973,0.26889811636917293
1739550877506730800,8.274730712890625,1.3776087883979082,0.4039534333512187,0.2369926466077566
1739550877516800000,8.284800048828124,1.2054665073633193,0.42458194149062034,0.2043884539924562
1739550877526869800,8.294869873046874,0.9026070116162299,0.4282189828187227,0.19188794192485512
1739550877536939000,8.30493896484375,0.580048543664813,0.4465585032381117,0.17607808611355721
1739550877547007700,8.3150078125,0.3189128049254417,0.4620720064513385,0.2326180847853422
1739550877557077800,8.325077880859375,0.11437047554552554,0.49902781840488314,0.30278716116324067
1739550877567146800,8.335146728515625,-0.027642040163278578,0.5143754635319113,0.26729879141375423
1739550877577216800,8.345216796875,-0.08076338949799537,0.5118593890577554,0.26689401000514623
1739550877587285800,8.35528564453125,-0.10170797784924507,0.5277252128399909,0.2992714811924845
1739550877597355800,8.365355712890626,-0.15184768102467058,0.5021010883703828,0.3276508957196027
1739550877607425000,8.375425048828125,-0.13486205943226814,0.4466441356949508,0.3609718583021313
1739550877617494800,8.385494873046875,-0.08172375896275043,0.40757630002349615,0.37062669861502945
1739550877627564000,8.39556396484375,0.02231938383579254,0.3537061781480908,0.37552974129095673
1739550877637633800,8.4056337890625,0.20155892965495587,0.24652108406201004,0.37049583877697584
1739550877647703000,8.415703125,0.437588284188509,0.13279387485608457,0.34056590687222776
1739550877657772800,8.425772705078124,0.7125187395244836,0.017657237243652344,0.2955608631715178
1739550877667841800,8.435841796875,0.9290455212086438,-0.07592603246942162,0.269733032823354
1739550877677911800,8.445911865234375,1.0094061751246453,-0.13804858051389454,0.27305435926578936
1739550877687980800,8.455980712890625,0.9918407078176736,-0.22546324459463357,0.26483225516974923
1739550877698049800,8.4660498046875,0.8234820369750261,-0.18859262670651078,0.2621891202498227
1739550877708119800,8.476119873046875,0.630152006483078,-0.20114085037335752,0.2090980199228972
1739550877718188800,8.486188720703124,0.4333692051887512,-0.21034721626639366,0.22085779662579297
1739550877728258800,8.4962587890625,0.35609307328462597,-0.24500892593339085,0.21444033079892397
1739550877738327800,8.506327880859375,0.3831967687875032,-0.3272182764559984,0.17595307149440048
1739550877748397800,8.516397705078125,0.4825128830641508,-0.39517435295954345,0.10096132420040667
1739550877758467000,8.526467041015625,0.5759837784439324,-0.48908174006044863,0.10223463207185268
1739550877768536800,8.536536865234375,0.6490139433413744,-0.5863109650604427,0.10955511115305125
1739550877778605800,8.546605712890624,0.7167424946993589,-0.6580008212648332,0.04627097198329866
1739550877788675800,8.55667578125,0.6817500917732715,-0.673405165015161,0.011593407160043716
1739550877798744800,8.566744873046876,0.49719782649874683,-0.5985430354502052,0.0516010809648782
1739550877808814800,8.57681494140625,0.2120353154838085,-0.5988183452602476,0.17120631535872816
1739550877818883800,8.5868837890625,0.009023264411091804,-0.6578270721331239,0.1696641274180263
1739550877828953900,8.596953857421875,-0.06482756921947003,-0.7053976554729045,0.11025792566016315
1739550877839022800,8.60702294921875,-0.01885609163939953,-0.7708517590928823,0.1313965022135526
1739550877849091800,8.617091796875,0.12258651522696018,-0.8835225911136716,0.12226926597133278
1739550877859161900,8.627161865234376,0.2594312729090452,-1.0483755188576878,0.10139693913869559
1739550877869230800,8.63723095703125,0.38528292741179465,-1.1893334109470248,0.1158007275443524
1739550877879300900,8.64730078125,0.4390425746500492,-1.2488316018372774,0.10298713093958795
1739550877889369900,8.657369873046875,0.4205260902285576,-1.2629789312638342,0.11752192531377076
1739550877899439900,8.66743994140625,0.2757388491094112,-1.2265635097973049,0.19979498872235416
1739550877909508900,8.6775087890625,0.00679740505516529,-1.1881798569977282,0.3075240534920245
1739550877919579000,8.687578857421874,-0.4454898510932922,-1.1298108162678777,0.353429333968088
1739550877929647900,8.69764794921875,-0.8706780879139899,-1.061893610469997,0.33806576061956584
1739550877939718000,8.7077177734375,-1.1306851148843764,-1.0124312220342457,0.3268712896492332
1739550877949787000,8.717786865234375,-1.1672826149195432,-1.0015759198904037,0.28711313362605867
1739550877959855900,8.72785595703125,-0.9378115959882736,-1.142694993890822,0.2102252703871578
1739550877969926000,8.73792578125,-0.4589963983982801,-1.3252226214699447,0.1521974443104118
1739550877979995000,8.747994873046874,-0.18912907167077064,-1.3988530903480947,0.2406901859514415
1739550877990065000,8.75806494140625,-0.34853988142609593,-1.3297070734076202,0.3438862834665924
1739550878000133600,8.768133544921875,-0.7266799513459206,-1.09202147609964,0.3458073877222836
1739550878010204000,8.778203857421875,-1.259527767896652,-0.7300833300486207,0.2471256988916546
1739550878020273000,8.78827294921875,-1.804454729297757,-0.31275749716609713,0.17225334019362926
1739550878030343000,8.798343017578125,-2.296669506686926,-0.023965324411913753,0.10116517620943487
1739550878040412000,8.808411865234374,-2.5229443599253893,0.1123780596192926,-0.011556143889576195
1739550878050482000,8.81848193359375,-2.4395365933984516,0.2402675035599619,-0.026499299868941305
1739550878060551000,8.828551025390626,-2.2116630727916955,0.44600189226865766,-0.11752481139060109
1739550878070620700,8.83862060546875,-1.9738848287642001,0.7160170299690216,-0.23016448108814655
1739550878080690000,8.84868994140625,-1.7164269017547369,0.8105679026052355,-0.21648184656389055
1739550878090759000,8.858759033203125,-1.3803326604038477,0.7654006540801376,-0.19997863819357006
1739550878100829000,8.868828857421875,-0.9917845937162637,0.746031279156357,-0.14871752977278083
1739550878110897700,8.878897705078124,-0.5839338606655597,0.7857558251708745,-0.015565123802609741
1739550878120968000,8.888968017578126,-0.2845546082496643,0.8196881245847791,0.07693436926174908
1739550878131036700,8.89903662109375,-0.04771101472377777,0.7876344785243272,0.0663099167317152
1739550878141107000,8.90910693359375,0.23808862515091894,0.7781694616951048,0.022475962636992333
1739550878151176000,8.919176025390625,0.5127314957171678,0.7412788239322602,-0.05275814204551279
1739550878161245700,8.92924560546875,0.7950117292940616,0.8479495387554168,-0.1638204428911209
1739550878171315000,8.93931494140625,0.8736492126792669,0.8301974628351628,-0.190643714017421
1739550878181384700,8.949384765625,0.950423824802041,0.7757144697584212,-0.2383799362476915
1739550878191454000,8.959453857421876,0.9367138638794421,0.726542880962789,-0.2929093257494271
1739550878201523000,8.96952294921875,0.8536907127559185,0.7638954371489584,-0.4074780272807926
1739550878211593000,8.979593017578125,0.7032651734888553,0.8239869177572429,-0.4709690871994942
1739550878221662000,8.989661865234375,0.5367588525146245,0.8784351317815482,-0.4611255193814635
1739550878231732200,8.999732177734375,0.24552491263151166,0.9543890751712024,-0.5228014927022159
1739550878241801000,9.009801025390624,-0.14962357523441314,1.0811088908106088,-0.4806315262969583
1739550878251871200,9.019871337890624,-0.5752157166808843,1.1671258169226348,-0.45340544652342796
1739550878261940000,9.02993994140625,-0.9684516489237547,1.2251996740981936,-0.4202056991677731
1739550878272010000,9.040010009765625,-1.3316811499595642,1.254977264985442,-0.456879844635725
1739550878282079000,9.050078857421875,-1.6113099922448395,1.26823641340062,-0.4677190724276006
1739550878292149000,9.06014892578125,-1.6912141345649956,1.2800984083689748,-0.44470980663150544
1739550878302218000,9.070218017578124,-1.550935310781002,1.2704584733642637,-0.5207607806548475
1739550878312287000,9.080286865234376,-1.2869710706174373,1.343193162446469,-0.684113167642802
1739550878322357200,9.090357177734376,-0.8954927956968546,1.3852530195407569,-0.8261812859963625
1739550878332426000,9.100426025390625,-0.344345352345705,1.2593420360662042,-0.8478019469782709
1739550878342496300,9.110496337890625,0.321366627818346,1.0217869332700966,-0.8052993145525456
1739550878352565000,9.12056494140625,0.9893839623153209,0.8038011849492788,-0.8192146618541329
1739550878362635000,9.130635009765625,1.5504986729294061,0.6539030305571853,-0.794875974085182
1739550878372704000,9.1407041015625,1.96541802919209,0.5084012114278972,-0.7617559409022331
1739550878382774000,9.15077392578125,2.230498706164956,0.4035010134086013,-0.8148897843923419
1739550878392843000,9.160843017578125,2.447548050418496,0.2927851148478687,-0.7802852117400616
1739550878402913000,9.1709130859375,2.4733108527064323,0.23449118518084286,-0.7763741757761686
1739550878412982000,9.18098193359375,2.32034731939435,0.22780235506668686,-0.7489912980057298
1739550878423051000,9.191051025390625,2.0237299329072234,0.16533435458540915,-0.6836507377628237
1739550878433121000,9.20112109375,1.6953560566753147,0.11978475567921995,-0.5641971137341112
1739550878443190000,9.21118994140625,1.3672855473041534,0.09410510163009166,-0.418080158381164
1739550878453260300,9.22126025390625,1.193042494598031,0.03862827521041035,-0.3561296059027314
1739550878463329000,9.2313291015625,1.1309008034616708,-0.014886165095120668,-0.2889841881949454
1739550878473399000,9.24139892578125,0.9993325248777866,-0.049911447377502915,-0.26259981994256376
1739550878483468000,9.251468017578125,0.790143246474862,-0.06240136498585343,-0.289984597409144
1739550878493538000,9.2615380859375,0.5376058247327804,-0.06587751666381955,-0.2662275089204311
1739550878503607000,9.27160693359375,0.33840544090270996,-0.09442030505910515,-0.26567754688747225
1739550878513676300,9.28167626953125,0.1874187606215477,-0.14233546405285596,-0.320349778926
1739550878523746000,9.29174609375,0.07445172213315963,-0.14786182625889777,-0.3506379496838897
1739550878533815000,9.30181494140625,0.029718846437335012,-0.19618132826983928,-0.3493146651908755
1739550878543885000,9.311885009765625,0.03675064477026462,-0.24891484733074903,-0.43810397862568495
1739550878553954000,9.3219541015625,0.12176117031872272,-0.31147914779335256,-0.5128109906941652
1739550878564024000,9.332024169921874,0.2566068631380796,-0.36169878433719277,-0.5780962405532598
1739550878574093000,9.342093017578126,0.3664145608127117,-0.4055237514078617,-0.6256960499875247
1739550878584163000,9.3521630859375,0.40940848388671874,-0.4899256435386836,-0.6457064262285829
1739550878594232000,9.362232177734375,0.4401064044892788,-0.596206043870002,-0.5863105266690254
1739550878604302000,9.372302001953125,0.4346288498610258,-0.6440775098524988,-0.6110140291623771
1739550878614371000,9.38237109375,0.37077217150032515,-0.6935976198248565,-0.607033288963139
1739550878624440000,9.392440185546874,0.2241957088768482,-0.7355483174562454,-0.5589826670214534
1739550878634510000,9.402510009765624,0.09521569322049617,-0.7584412633962929,-0.5138322235006839
1739550878644579000,9.4125791015625,0.08146247767806053,-0.8112816038325429,-0.5016320095539093
1739550878654649000,9.422649169921876,0.09062135116755962,-0.8773940982960164,-0.4388693369749933
1739550878664718000,9.432718017578125,0.0087228201597929,-0.9118317899487912,-0.3338701355606317
1739550878674788000,9.4427880859375,-0.13303718209266663,-0.9061014296032488,-0.30320852838046847
1739550878684857000,9.452857177734375,-0.2880354361027479,-0.9011831162929534,-0.31932540431432427
1739550878694927000,9.462927001953124,-0.4397469235271215,-0.9016500031523406,-0.30418818706758316
1739550878704996000,9.47299609375,-0.545124529799819,-0.8693906784519553,-0.2961282877959311
1739550878715065000,9.483065185546875,-0.6467442448437214,-0.8068823459602892,-0.2882122539743781
1739550878725135000,9.493135009765625,-0.7486983064085244,-0.7633795965813099,-0.25291487675234675
1739550878735204000,9.5032041015625,-0.8002917155236006,-0.7331785195849836,-0.24120419988818464
1739550878745274000,9.513274169921875,-0.6633066725879907,-0.7918544343069195,-0.2227724711406976
1739550878755342800,9.5233427734375,-0.40952538826465607,-0.8834164273254573,-0.22958646200448274
1739550878765413000,9.5334130859375,-0.18217326118350027,-0.9573822656378149,-0.23666078430488705
1739550878775482000,9.543482177734376,0.006427987220883369,-1.183915915942937,-0.3649685997880995
1739550878785552100,9.55355224609375,0.2470136898845434,-1.458668676624447,-0.34857962891459465
1739550878795621000,9.56362109375,0.4281757281988859,-1.618165703358501,-0.14805807948336006
1739550878805690000,9.573690185546875,0.3077344083070755,-1.5752918995328247,-0.02927738628014922
1739550878815760100,9.583760009765625,-0.16446283244788645,-1.3888197721116244,0.11298647384122014
1739550878825829000,9.5938291015625,-1.051271970951557,-1.1391332097560167,0.2589613173097372
1739550878835899100,9.603899169921876,-2.0091274070590734,-0.8464839962475001,0.25873160020709035
1739550878845968100,9.613968017578125,-2.7315502854824065,-0.6074773794688284,0.17594196557849645
1739550878856038100,9.6240380859375,-3.2209178567469117,-0.3903310045816004,0.18555530483722685
1739550878866107000,9.63410693359375,-3.4138381373941895,-0.13835910776779053,0.19117679798081516
1739550878876177200,9.64417724609375,-3.526543310075998,0.14419015200883148,0.16800898062214253
1739550878886246000,9.654245849609374,-3.5227912640661,0.39632615334317084,0.15330547861754892
1739550878896315100,9.664315185546876,-3.370017700368166,0.605546849797666,0.0597764233097434
1739550878906385200,9.67438525390625,-2.9353157852709293,0.7444923060860484,-0.02454648530073464
1739550878916454100,9.6844541015625,-2.2717641980111596,0.8022476718969642,0.016966697696223856
1739550878926524200,9.694524169921875,-1.5945236926168203,0.782184542555362,0.20026311769075691
1739550878936593200,9.70459326171875,-1.108238889798522,0.7331319039642811,0.40152613313905894
1739550878946663200,9.7146630859375,-0.6794570124000311,0.7588030824460089,0.503030989631638
1739550878956732200,9.724732177734374,-0.2913870846182108,0.8088872560419141,0.4824697015095502
1739550878966802200,9.73480224609375,0.04148819468617439,0.8290248388592153,0.40667876666188235
1739550878976871000,9.744870849609375,0.4887912326812744,0.7977194538827985,0.4200161679450422
1739550878986940200,9.754940185546875,1.083230705270171,0.7435829361561686,0.4397214237596839
1739550878997010000,9.765010009765625,1.5561942542225122,0.7102857197754084,0.4165256224155426
1739550879007079200,9.7750791015625,1.7788234444350004,0.6363222926158457,0.3717856593918055
1739550879017149000,9.78514892578125,1.8358493999928236,0.7229507747549563,0.3457753851488232
1739550879027218200,9.79521826171875,1.5466548569828271,1.002702439702302,0.39095870802588756
1739550879037288000,9.805287841796876,1.008265188395977,1.274919690556824,0.3565015810202807
1739550879047357200,9.815357177734375,0.4830003743201494,1.4792451623156666,0.3486622656967491
1739550879057427200,9.82542724609375,0.013466799816489218,1.6721707036599516,0.48672998930253086
1739550879067496000,9.835495849609375,-0.46001872718334197,1.9251362876862286,0.4987110806059092
1739550879077565000,9.84556494140625,-0.7110217789649963,2.0637118146836757,0.5386975654922426
1739550879087635000,9.855635009765624,-0.7264093177109956,2.0186036759346724,0.5949907497961073
1739550879097704200,9.8657041015625,-0.4843418520569801,1.8386673800230025,0.5676758226953447
1739550879107774000,9.87577392578125,-0.1415548350691795,1.6379837718978523,0.562731059769541
1739550879117843200,9.88584326171875,0.32384850776195523,1.4481208329945803,0.6010762802548706
1739550879127913000,9.895912841796875,0.8053343858659266,1.2840560599535702,0.6179373256195336
1739550879137982200,9.905982177734375,1.1548387284100055,1.094027409094572,0.6402900272030383
1739550879148052000,9.916052001953124,1.2415379376977682,0.9267447699856013,0.7149347146250307
1739550879158121200,9.926121337890624,1.1432459057718514,0.8513620506126434,0.751679368045926
1739550879168190000,9.93618994140625,0.9021534226298332,0.7815987054914235,0.688415175685659
1739550879178260000,9.946260009765625,0.8199380807578563,0.7218047465249896,0.6198343183472752
1739550879188329000,9.956328857421875,0.9003098405897617,0.727100149519369,0.5191441392384469
1739550879198399000,9.96639892578125,1.0398924988031386,0.7435336171217263,0.41752055173702535
1739550879208468000,9.976468017578124,1.208428864300251,0.7577367683887481,0.26562881237491964
1739550879218538000,9.9865380859375,1.329514327314496,0.6497547517713159,0.15346271500587463
1739550879228607200,9.996607177734376,1.3952292007625102,0.4526761093355715,0.0738324211910367
1739550879238676000,10.006676025390625,1.3761737871587276,0.31548399952054024,-0.001889540073648095
1739550879248746200,10.016746337890625,1.3862187958329915,0.2570051417406648,-0.08474986531827598
1739550879258815000,10.02681494140625,1.3807564387738704,0.22539872799105942,-0.13499273660723118
1739550879268885200,10.03688525390625,1.3403379191458225,0.2009808009734377,-0.09373491661082953
1739550879278954000,10.0469541015625,1.1985036826133728,0.20168325015436855,-0.046869449333101505
1739550879289024000,10.05702392578125,0.9877098916232585,0.16470511677116154,-0.046710459379106756
1739550879299093000,10.067093017578125,0.8786562271863222,0.22409962809123096,0.006547923806123435
1739550879309163000,10.0771630859375,0.8058651317417621,0.3093313221096992,0.01350190766248852
1739550879319232300,10.087232177734375,0.6123872172117233,0.27425688518965613,0.019307123342528938
1739550879329301000,10.097301025390625,0.34518940195441244,0.19169388065747917,0.023928974456898868
1739550879339371300,10.107371337890624,0.15121931999325752,0.22942864109426736,0.01490494286082685
1739550879349440000,10.11743994140625,0.02527297294437885,0.1485598641261924,0.048141076704114674
1739550879359510300,10.12751025390625,-0.08736088806688785,0.001427603384014219,0.17481603028848766
1739550879369579000,10.1375791015625,-0.11259586708843708,-0.11399987953430972,0.25099457621425386
1739550879379649300,10.147649169921875,-0.1888251202881336,-0.14239093883344903,0.24890213397964833
1739550879389718000,10.157718017578125,-0.1636240435361862,-0.19270300290109588,0.19604674210473894
1739550879399788000,10.1677880859375,0.043699440994858736,-0.26921319193402304,0.09092482762616128
1739550879409857000,10.17785693359375,0.2463309683173895,-0.37633119386695324,0.02893503911588341
1739550879419926300,10.18792626953125,0.46942076177895065,-0.49538105940036475,0.04840955491457134
1739550879429996000,10.19799609375,0.6225649123549462,-0.6326631125211716,0.04239073301646858
1739550879440065000,10.20806494140625,0.7824585371911525,-0.7923029817920177,0.010094985295832156
1739550879450135000,10.218135009765625,0.8418558980554341,-0.9022581251133233,0.04772760053239763
1739550879460204000,10.2282041015625,0.7309101362615823,-0.9785418849792331,0.04712937891092151
1739550879470274300,10.2382744140625,0.6268085412740707,-0.994881317622587,0.0734860919713974
1739550879480343000,10.248343017578126,0.5150210679590702,-0.9747737646173685,0.05992039835769683
1739550879490412000,10.258412109375,0.34492227545082565,-0.976954542722553,0.01579991893917322
1739550879500482000,10.26848193359375,0.1886988635599613,-0.9616323973629624,-0.005450155164673924
1739550879510551300,10.27855126953125,-0.06322597924172878,-0.924165494082123,-0.0028331045340746638
1739550879520621000,10.28862109375,-0.21404665530622005,-0.8739153162695467,0.018650230336375532
1739550879530690300,10.298690185546874,-0.2619932323515415,-0.852267182758823,-0.009626417936012148
1739550879540760000,10.308760009765624,-0.29077742828726766,-0.8102996070578694,-0.031214126496389508
1739550879550829000,10.3188291015625,-0.32206688504219055,-0.7933564363677054,0.03014602234084159
1739550879560898000,10.32889794921875,-0.3359977952390909,-0.7128379615414887,0.04658372772689909
1739550879570968000,10.338968017578125,-0.3605079671174288,-0.7142377453368157,0.07574987218491733
1739550879581037000,10.349037109375,-0.425939347448945,-0.7656259142033756,0.10336520700436085
1739550879591107000,10.359107177734375,-0.6184288354635238,-0.747142382203415,0.12335406553335487
1739550879601176000,10.369176025390624,-0.7919891666024923,-0.7442028216201811,0.12358159067891537
1739550879611246000,10.37924609375,-0.8923305322736501,-0.7745368042811751,0.08464731825925409
1739550879621315000,10.389315185546875,-0.7869558486104011,-0.919182810298726,-0.047780645893886683
1739550879631385000,10.399385009765625,-0.4852139587163925,-0.96560678088665,-0.1316119350625202
1739550879641454300,10.409454345703125,-0.41118484590947624,-0.9515854889925569,-0.10509699923302977
1739550879651523000,10.419523193359375,-0.6873316912978887,-0.8915840978205204,-0.042962578087672586
1739550879661593000,10.429593017578124,-1.139082356351614,-0.8169684172973036,0.011599983031302689
1739550879671662000,10.439662109375,-1.5978466995596885,-0.544255345749855,-0.0006149535605683923
1739550879681732000,10.449732177734376,-2.2152046909213063,-0.11290853150049224,0.10542882500328123
1739550879691801000,10.459801025390625,-2.845730791413784,0.40045437572170045,0.221461534672603
1739550879701871000,10.46987109375,-3.589862228298187,0.869172944048047,0.2640105635233223
1739550879711940000,10.479940185546875,-4.311944330459833,1.3457330561876297,0.17379687984120099
1739550879722009000,10.490009033203124,-4.8640018743932245,1.670114647912979,0.11449932608958333
1739550879732079000,10.5000791015625,-5.016049461904168,1.9154324936650693,-0.007084240906219929
1739550879742148000,10.510148193359376,-4.638442475947738,2.010695094767213,-0.008462890581972896
1739550879752218000,10.520218017578125,-3.6064877844065424,1.8527042348124085,0.13660548729980362
1739550879762287000,10.530287109375,-2.2569173420131206,1.6391159907981752,0.2763886547876522
1739550879772357000,10.540357177734375,-1.0642682306468487,1.4457625794306397,0.2815171402499079
1739550879782426000,10.550426025390625,-0.07097849306464195,1.3203629064790903,0.16275482295360416
1739550879792495000,10.5604951171875,0.9432686923503876,1.1947072860050947,0.01993679954819381
1739550879802565000,10.570565185546876,1.9255548053592442,1.0601030737914143,-0.05005863729584962
1739550879812634000,10.580634033203125,2.6157816335767508,0.8277446628555655,-0.12032291767653078
1739550879822704000,10.5907041015625,3.059892597532272,0.5650838334407657,-0.27520824936404825
1739550879832773000,10.600773193359375,3.342805283793807,0.3866469823066145,-0.367030537286587
1739550879842843100,10.610843017578125,3.356809843748808,0.362441565528512,-0.4277881901860237
1739550879852912000,10.620912109375,3.208912946176529,0.2894287170920521,-0.4750673893637955
1739550879862981000,10.630981201171876,3.2845582620084284,0.41893092999160286,-0.6699382195569574
1739550879873051100,10.641051025390626,2.7750030582398173,0.6900285291664302,-0.8734464566487818
1739550879883120000,10.6511201171875,2.035174871507287,0.9705153034552931,-1.0222256169483066
1739550879893190100,10.661190185546875,1.0623422310203314,1.38670687161088,-1.1857618360705673
1739550879903259100,10.671259033203125,-0.17521102095544336,1.7037296250060199,-1.0205167672038078
1739550879913329200,10.6813291015625,-0.8919611144393682,1.7617672418244181,-0.6855236189626157
1739550879923398100,10.691398193359374,-1.2781646638274191,1.729879526915401,-0.5964823765933513
1739550879933467100,10.701467041015626,-1.3244289868742227,1.6903548873871563,-0.6149851247504353
1739550879943537000,10.711536865234375,-1.1249579694092273,1.703767765059322,-0.6516141159024089
1739550879953606100,10.721606201171875,-0.7248299395650625,1.664195925388485,-0.6733603760253638
1739550879963676200,10.73167626953125,-0.1432160462796688,1.4656165960662066,-0.6970883845500647
1739550879973745200,10.7417451171875,0.32251813594102857,1.1479279991734772,-0.6780607357360422
1739550879983815200,10.751815185546874,0.6270394274204969,0.8640681682549417,-0.6000555589050054
1739550879993884200,10.76188427734375,0.8657873932629823,0.6818365279477089,-0.5532312638878822
1739550880003954200,10.7719541015625,1.0563853684425353,0.5366181654023007,-0.4951893362205475
1739550880014023200,10.782023193359375,1.2503086886525154,0.3816073441715911,-0.43111543491259213
1739550880024092200,10.792092041015625,1.4343822304993867,0.22389204975515603,-0.411490770053491
1739550880034162000,10.802161865234375,1.570370663613081,0.09861081555150449,-0.32943288376554847
1739550880044231200,10.812231201171874,1.6547089889883995,0.045428749005496497,-0.29452275229543445
1739550880054301000,10.822301025390624,1.5780378372400998,-0.004020012763701379,-0.28783465283364057
1739550880064370200,10.8323701171875,1.3529437182188033,-0.0728495476335287,-0.19985965145640075
1739550880074440000,10.84243994140625,0.9755822314560413,-0.12629364438289775,-0.08394267712123692
1739550880084509200,10.85250927734375,0.5548439597815275,-0.14906517416667192,-0.02797054146528244
1739550880094578000,10.862577880859375,0.2784551223307848,-0.19391997747542336,0.014671061039716004
1739550880104648200,10.872648193359375,0.22205752780437468,-0.26563151578865946,0.03402487306818366
1739550880114717000,10.882717041015624,0.24275895504951475,-0.2986364346919581,-0.013456132292002439
1739550880124787200,10.892787109375,0.2995201221913099,-0.378461483893916,-0.010991276548430323
1739550880134856200,10.902856201171875,0.2951543281972408,-0.5013370451953262,-0.03935812385492027
1739550880144925200,10.91292529296875,0.2723947993785143,-0.5798889326563105,-0.04139620555378496
1739550880154995200,10.9229951171875,0.24438334138095377,-0.6332652431327849,-0.05643325036168098
1739550880165064200,10.933064208984375,0.23898645077347755,-0.6775464295383542,-0.08714921807758509
1739550880175134200,10.94313427734375,0.2130465383529663,-0.6951894921261816,-0.11037088451534509
1739550880185203200,10.953203125,0.18632278207838535,-0.6877107537433504,-0.15298954453617333
1739550880195273200,10.963273193359376,0.1446586463034153,-0.6905616861950605,-0.22238149906173346
1739550880205342000,10.973342041015625,0.12874503785669802,-0.7012704925402998,-0.27138752203211186
1739550880215412200,10.983412109375,0.11811609181463718,-0.748615304300189,-0.2991675093613565
1739550880225482000,10.99348193359375,0.10611819550693034,-0.8048531782202422,-0.32024485724680124
1739550880235551200,11.00355126953125,0.13586568351686001,-0.8477396953970193,-0.3445534421384334
1739550880245621000,11.01362109375,0.12476619735360145,-0.889117780772224,-0.4073142880864441
1739550880255690000,11.02368994140625,0.08167115199267863,-0.8923454375818372,-0.44257213701568543
1739550880265760300,11.03376025390625,0.03187047151327133,-0.9166386057086289,-0.4404400203578174
1739550880275829000,11.0438291015625,0.0327823256611824,-0.8950842879611999,-0.3448259024042636
1739550880285898000,11.05389794921875,-0.029627076500654218,-0.8678188260253519,-0.3021219021875411
1739550880295968000,11.063968017578125,-0.13009528342187404,-0.8974218640632927,-0.2967679008737206
1739550880306037000,11.074037109375,-0.27158172942996023,-0.8717452787540853,-0.2301371546898037
1739550880316107000,11.08410693359375,-0.40754678166806696,-0.8167356314547359,-0.21610227266177534
1739550880326176300,11.09417626953125,-0.5779010102421045,-0.8665911108613014,-0.12274959683418273
1739550880336246000,11.10424609375,-0.6783674635976552,-0.9219378811605274,-0.052558747015893456
1739550880346315300,11.114315185546875,-0.7184142273038625,-0.9135724961362779,-0.052755803957954046
1739550880356384000,11.124384033203125,-0.7167980242788792,-0.8676631970722227,0.019656229041144252
1739550880366454000,11.1344541015625,-0.7034323467493057,-0.8056600376237183,-0.0052821781866252415
1739550880376523000,11.14452294921875,-0.7244371408551931,-0.782996589590609,-0.028520795759186146
1739550880386593000,11.154593017578126,-0.7149281387537717,-0.7761509614795445,-0.02478109777420759
1739550880396662000,11.164662109375,-0.6919961759775877,-0.7453643396802246,-0.03789192375987768
1739550880406732000,11.17473193359375,-0.6517050821214914,-0.7447362709097564,-0.015520955867320298
1739550880416801000,11.184801025390625,-0.5968208147674798,-0.7610116253409535,-0.011114537601917981
1739550880426870000,11.1948701171875,-0.5515647919803858,-0.8700430048808455,-0.12454933973252773
1739550880436940000,11.20493994140625,-0.478879494997859,-1.0308198422923684,-0.12363200569190085
1739550880447009000,11.215009033203126,-0.4789537292778492,-1.1366683540124445,-0.12177088799513876
1739550880457079300,11.225079345703126,-0.5700573110044003,-1.0430001094296575,-0.13484576588459313
1739550880467148000,11.23514794921875,-0.9492425060629844,-0.8368656154874712,0.014496288994699716
1739550880477218000,11.245218017578125,-1.380138014614582,-0.6099779275802895,0.16633578671291468
1739550880487287000,11.255287109375,-1.9992355431199074,-0.4378354273499921,0.2317836067225784
1739550880497356300,11.265356201171874,-2.680701557254791,-0.24460067392606286,0.18446750960052014
1739550880507426000,11.275426025390624,-3.183656339845061,0.019991379279643295,0.2504545510534197
1739550880517495000,11.2854951171875,-3.520228135579824,0.42570320060551164,0.259141130856052
1739550880527565000,11.29556494140625,-3.7632699992239473,0.8417091830611229,0.10742138705998658
1739550880537634000,11.305634033203125,-3.883921746996045,1.1911733397252857,-0.024761954682320356
1739550880547704000,11.3157041015625,-3.773101072886586,1.5554104103684425,-0.06683087186589837
1739550880557773000,11.32577294921875,-3.2479367965757846,1.7714207669630646,-0.06850275060087442
1739550880567842000,11.335842041015624,-2.379827682366967,1.7676409561634063,-0.17462554921768605
1739550880577912000,11.345912109375,-1.4266665415555237,1.6853963881969451,-0.1840001843497157
1739550880587981000,11.35598095703125,-0.5806494321674108,1.6838734164133666,-0.21105200353488324
1739550880598051000,11.366051025390625,0.13411679402291773,1.7097065074585378,-0.2849753178797662
1739550880608120000,11.3761201171875,0.816066792282462,1.6083710161834954,-0.3710854752331972
1739550880618190000,11.386190185546875,1.483266965177655,1.5016668374821542,-0.3908938991613686
1739550880628259000,11.396259033203124,2.019741740053892,1.455025497816503,-0.31254012808836995
1739550880638328000,11.406328125,2.374479307076335,1.3950813167244196,-0.21778847218304873
1739550880648398000,11.416398193359376,2.6057816330879926,1.297005557897687,-0.05163659066967666
1739550880658467000,11.426467041015625,2.699935834556818,1.2195588917322455,0.10770268821939825
1739550880668537000,11.436537109375,2.549787358665466,1.2021571636196224,0.15982034040428697
1739550880678606000,11.446606201171875,2.2843273269861935,1.251336862656474,0.22629845330975948
1739550880688675000,11.456675048828124,1.8759376647531985,1.397820824690908,0.1916362321861088
1739550880698745000,11.4667451171875,1.4372954875975847,1.5976920935198664,0.0777479141343385
1739550880708814000,11.47681396484375,1.0321809015125036,1.7111308411732316,0.08202493386641144
1739550880718884000,11.486884033203125,0.6746785459518432,1.7830162199497221,0.02040441705994308
1739550880728953000,11.496953125,0.4068786731481552,1.9013035766780375,-0.034783728611469264
1739550880739022800,11.50702294921875,0.17504501673877237,1.967467655198276,-0.03820983060263097
1739550880749092000,11.517092041015625,-0.04692015660703182,1.949517718618363,0.0359255190577358
1739550880759161000,11.5271611328125,-0.1366273155391216,1.758062688218057,0.2136501302693039
1739550880769231000,11.537231201171876,-0.14267711709737776,1.5230764129966496,0.3974444167833775
1739550880779300000,11.547300048828125,-0.14043313756287096,1.3685577591970561,0.5557270262263715
1739550880789370000,11.5573701171875,-0.1278092183113098,1.2587452392168341,0.6395180199172348
1739550880799438800,11.56743896484375,-0.018702946904301642,1.1907508765295147,0.6482491695139557
1739550880809509000,11.577509033203125,0.16692893030047415,1.0676138878129422,0.6016819179978221
1739550880819578000,11.587578125,0.3584147942304611,0.863886674208194,0.5365834228824824
1739550880829647000,11.597647216796876,0.559486817151308,0.6341782663244754,0.5067485488500446
1739550880839717000,11.607717041015626,0.752744366928935,0.4565856839947402,0.44115328319370745
1739550880849786000,11.6177861328125,0.931740167120099,0.3545326921001076,0.3347119201470166
1739550880859856100,11.627856201171875,1.1088812793552876,0.25262875328734513,0.27730127612054345
1739550880869925000,11.637925048828125,1.2752023068904876,0.17335647912994026,0.2372309854082763
1739550880879994000,11.647994140625,1.377780637833476,0.13188720833994447,0.17427410543151198
1739550880890064100,11.658064208984374,1.3486667715519667,0.07370294959247112,0.14084062238521874
1739550880900133000,11.668133056640626,1.208512450930476,-0.005867649924382567,0.15472842409275472
1739550880910203000,11.678202880859375,1.0912900930851697,-0.05388802285827696,0.1256010407425463
1739550880920272100,11.688272216796875,0.9895248320907354,-0.06270166310667992,0.09125884535349905
1739550880930342000,11.698341796875,0.868585499548912,-0.0899495163206011,0.06801357884444297
1739550880940411100,11.7084111328125,0.7941711868166923,-0.10293459703475236,0.039349063765630125
1739550880950480000,11.71847998046875,0.7669307131916284,-0.08262531091235578,-0.007496347104758024
1739550880960550100,11.728550048828126,0.7346908238440751,-0.12076872521527111,0.016059738919138908
1739550880970619000,11.738618896484375,0.6491688416421413,-0.15475224335975943,0.036183585472032424
1739550880980689200,11.748689208984375,0.5981938566863536,-0.14385017946474254,0.051111543882265686
1739550880990758100,11.758758056640625,0.5522621265947818,-0.17374248277284204,0.10813063130788504
1739550881000828000,11.768827880859375,0.5148369435638189,-0.21329788276553152,0.15896007031314074
1739550881010897200,11.778897216796874,0.5026555073827504,-0.24901501976959406,0.18143179516643285
1739550881020966100,11.788966064453126,0.48406128154993056,-0.29178536322079596,0.19953136935010551
1739550881031036200,11.7990361328125,0.4095961154133081,-0.3480238216627389,0.22581286174990237
1739550881041105200,11.809105224609375,0.37930385300219055,-0.388073288782686,0.23362492374032734
1739550881051175200,11.819175048828125,0.36909634724259377,-0.41964167207684366,0.20736206297576426
1739550881061244000,11.829243896484375,0.34669162321090696,-0.47210141569767144,0.1680330190848559
1739550881071313200,11.839313232421874,0.3504974452346563,-0.51951257069204,0.14801467873305083
1739550881081383000,11.8493828125,0.4122299710482359,-0.5608613569075241,0.1318273679114878
1739550881091452200,11.8594521484375,0.4496294351160526,-0.5803782140105962,0.11415252194590866
1739550881101522000,11.86952197265625,0.4228752837032079,-0.5569617556530982,0.12779811239540576
1739550881111591200,11.879591064453125,0.3562883035957813,-0.6479254905175418,0.12602080052457748
1739550881121660000,11.889659912109375,0.30527590923905373,-0.7275144294086844,0.11212561922818422
1739550881131730200,11.899730224609375,0.3101443920582533,-0.7560686890460551,0.08845598982721567
1739550881141799000,11.909798828125,0.28076456831693647,-0.8084788213714956,0.10964337395839392
1739550881151869200,11.919869140625,0.13890987351834774,-0.8711435134686529,0.14630940918512642
1739550881161938000,11.92993798828125,0.013692425265908241,-0.8742205828264356,0.0946818420721218
1739550881172008000,11.940008056640625,-0.05932195754051208,-0.8723479208223521,0.07893668552748859
1739550881182077200,11.9500771484375,-0.13133154721856116,-0.8946430469997226,0.11300550733525305
1739550881192146200,11.960146240234375,-0.16725684708058833,-0.9364325627200305,0.10812507834993303
1739550881202216200,11.97021630859375,-0.24198797067701816,-0.9470492338024079,0.10059070078972726
1739550881212285000,11.980284912109376,-0.2736006680369377,-0.9260017695985734,0.1182964533502236
1739550881222355200,11.990355224609376,-0.364213251376152,-0.9366774773918092,0.16671897734422236
1739550881232422700,12.000422607421875,-0.5946528230786323,-0.9110384476140141,0.15500830048006026
1739550881242492700,12.01049267578125,-0.9547615617454052,-0.8943106001749634,0.09811097627058625
1739550881252562000,12.02056201171875,-1.2394973717808724,-0.9522231293089687,0.05453549044895917
1739550881262630700,12.030630615234376,-1.4229232633739708,-1.072534100819379,0.0018069398241117595
1739550881272700700,12.04070068359375,-1.5705939509749411,-1.1259973223943263,-0.018932006419822574
1739550881282769700,12.050769775390625,-1.7572908270627259,-0.9897630247607827,0.012861563932336867
1739550881292839700,12.060839599609375,-2.0478502286851406,-0.7549495488230139,0.03187167708966881
1739550881302908700,12.07090869140625,-2.374520223608613,-0.48638512138761575,0.0753230981402099
1739550881312977700,12.080977783203124,-2.8849697458684442,-0.15543185965437442,0.07166969019919633
1739550881323047700,12.091047607421874,-3.6489024462878703,0.34422548882570114,0.05833561338428408
1739550881333116700,12.10111669921875,-4.5568993342489,0.8467536069691181,0.029956966042146083
1739550881343186700,12.111186767578126,-5.301929765799641,1.2409605762012301,-0.051628516961075364
1739550881353255700,12.121255615234375,-5.7052773422122,1.5112528503425418,-0.16046433739624916
1739550881363325700,12.13132568359375,-5.666414235332608,1.7797817680731414,-0.3155497217005119
1739550881373394700,12.141394775390625,-5.018108732521534,1.8607789663270116,-0.3192645775051787
1739550881383463700,12.151463623046874,-3.816635678708553,1.827533553198725,-0.2328160185102373
1739550881393533700,12.16153369140625,-2.4680244367361066,1.701422224846482,-0.09052863138280809
1739550881403602700,12.171602783203125,-1.2049912910670042,1.5334192355737088,0.07209916765764356
1739550881413672700,12.181672607421875,-0.003972995284199714,1.4803158602871,0.05946231585927307
1739550881423741700,12.19174169921875,0.8938800998032093,1.4283546407729386,0.045409898174554104
1739550881433810700,12.201810791015625,1.634776792550087,1.4463161216601728,0.010406097071617841
1739550881443880700,12.211880615234374,2.241261507719755,1.3721543223842978,-0.12392455889768898
1739550881453949700,12.22194970703125,2.738981312265992,1.1929102465204895,-0.18548300678599625
1739550881464019700,12.232019775390626,3.1249159815847873,0.9328848071105778,-0.1668476086925715
1739550881474088700,12.242088623046875,3.4790596743673086,0.7542668272558599,-0.26848361728414893
1739550881484158700,12.25215869140625,3.5251457182377575,0.7827791474476457,-0.43881209036242214
1739550881494227700,12.262227783203125,3.682237729656696,0.6888349354676901,-0.4302962640168145
1739550881504296700,12.272296630859374,3.669891458302736,0.7772144259925932,-0.644456060841307
1739550881514366700,12.28236669921875,3.3565602529019114,0.8338303394448011,-0.7834140843503177
1739550881524435700,12.292435791015626,2.83452959844172,0.9712767893470823,-0.7599035910338163
1739550881534505700,12.302505615234375,2.038319599273801,1.192355973638594,-0.7499787016078829
1739550881544574700,12.31257470703125,1.0340192228555678,1.4454682726591825,-0.6909850992389023
1739550881554643700,12.322643798828125,-0.04384206433594227,1.570156144079566,-0.40242300891354676
1739550881564713700,12.332713623046875,-0.40416999871134757,1.5875392405569553,-0.2596246400566771
1739550881574782700,12.34278271484375,-0.6360054086863994,1.5500164423704146,-0.2337017153035849
1739550881584852700,12.352852783203126,-0.7844032415181398,1.6194835079587995,-0.24237127090618013
1739550881594921500,12.36292138671875,-0.7771995937496423,1.684563152243197,-0.2883965245001018
1739550881604991700,12.37299169921875,-0.6308727219730615,1.6953019884005187,-0.3961373893054202
1739550881615060700,12.383060791015625,-0.3259171307295561,1.6115017154246567,-0.5068259614678099
1739550881625129700,12.393129638671875,-0.02974339635670185,1.3388389127597211,-0.6591583938021213
1739550881635199700,12.40319970703125,0.41797932835519314,1.0838485449075699,-0.6727000854857266
1739550881645268700,12.413268798828126,0.9382254374861717,0.9633984571874141,-0.5651463772829621
