time,seconds_elapsed,z,y,x
1739550869259868700,0.02786865234375,-0.013823142275214195,0.003556414507329464,-0.05400366708636284
1739550869269938700,0.037938720703125,-0.012316804379224777,0.021902142092585564,-0.03757390379905701
1739550869280007700,0.048007568359375,-0.016995713114738464,0.022827323526144028,-0.025041334331035614
1739550869290076400,0.058076416015625,-0.028481267392635345,0.024519182741642,-0.017595596611499786
1739550869300145700,0.068145751953125,-0.04608476534485817,0.02062617614865303,-0.02081562578678131
1739550869310215700,0.078215576171875,-0.057198524475097656,-0.002863657893612981,-0.023179784417152405
1739550869320284700,0.08828466796875,-0.031095819547772408,-0.02084771916270256,-0.018655337393283844
1739550869330353400,0.098353515625,-0.034891169518232346,-0.002371920272707939,-0.02079308032989502
1739550869340423700,0.108423583984375,-0.04719497263431549,0.036773886531591415,-0.025355875492095947
1739550869350492700,0.11849267578125,-0.047981198877096176,0.04246063157916069,-0.011784845031797886
1739550869360561700,0.128561767578125,-0.046963341534137726,0.009096018970012665,0.0067720599472522736
1739550869370631700,0.138631591796875,-0.041024550795555115,-0.011903436854481697,0.02243686467409134
1739550869380700700,0.14870068359375,-0.040128663182258606,-0.005146464798599482,0.030484404414892197
1739550869390769700,0.158769775390625,-0.040687479078769684,0.014607228338718414,0.019254913553595543
1739550869400839700,0.168839599609375,-0.04583004117012024,0.03250553458929062,-0.008374050259590149
1739550869410908700,0.17890869140625,-0.05150209739804268,0.02792089432477951,-0.03102043643593788
1739550869420977700,0.188977783203125,-0.046066053211688995,0.0022807782515883446,-0.04544571414589882
1739550869431047700,0.199047607421875,-0.043418943881988525,-0.017048655077815056,-0.04946110397577286
1739550869441116700,0.20911669921875,-0.04314490407705307,-0.014656869694590569,-0.04742005467414856
1739550869451185700,0.219185546875,-0.04652531072497368,-0.004811971448361874,-0.042707253247499466
1739550869461254700,0.229254638671875,-0.044640056788921356,0.006725641433149576,-0.03841130807995796
1739550869471324700,0.23932470703125,-0.04568253830075264,0.015925198793411255,-0.025586936622858047
1739550869481393700,0.2493935546875,-0.041808437556028366,0.019235510379076004,-0.013697788119316101
1739550869491462700,0.259462646484375,-0.03548585996031761,0.019592877477407455,-0.0038798581808805466
1739550869501532700,0.26953271484375,-0.03691384568810463,0.02311917021870613,0.00713790487498045
1739550869511601700,0.2796015625,-0.02856406569480896,0.02277415245771408,0.019243473187088966
1739550869521670700,0.289670654296875,-0.02766950987279415,-0.002709103049710393,0.0127389682456851
1739550869531740700,0.29974072265625,-0.02863604575395584,-0.024053215980529785,0.014201152138411999
1739550869541809700,0.3098095703125,-0.028216863051056862,-0.037294451147317886,0.007729138247668743
1739550869551878700,0.319878662109375,-0.028087005019187927,-0.03664599359035492,-0.0038384050130844116
1739550869561948400,0.329948486328125,-0.02822043001651764,-0.03903751075267792,-0.010575668886303902
1739550869572017700,0.340017578125,-0.021557293832302094,-0.03253613039851189,-0.0030018994584679604
1739550869582086700,0.350086669921875,-0.018447255715727806,-0.026623379439115524,0.0034546684473752975
1739550869592156700,0.36015673828125,-0.019512373954057693,-0.01547651644796133,0.008720717392861843
1739550869602225700,0.3702255859375,-0.02021864429116249,-0.004047027789056301,0.006222405470907688
1739550869612294700,0.380294677734375,-0.01412254199385643,-0.009724401868879795,-0.0010833702981472015
1739550869622364400,0.390364501953125,-0.014377672225236893,-0.01363685168325901,-0.004294876009225845
1739550869632433700,0.40043359375,-0.012901715002954006,-0.021801277995109558,-0.004724097438156605
1739550869642502700,0.410502685546875,-0.01256162952631712,-0.03612136095762253,-0.0009229676797986031
1739550869652571600,0.420571533203125,-0.014101056382060051,-0.03958806023001671,0.002849848009645939
1739550869662641400,0.430641357421875,-0.019017251208424568,-0.027769219130277634,-0.0033489251509308815
1739550869672710700,0.440710693359375,-0.022608693689107895,-0.01568020135164261,-0.00886768102645874
1739550869682779600,0.450779541015625,-0.03287943825125694,-0.013476700522005558,-0.021288396790623665
1739550869692849700,0.460849609375,-0.032351020723581314,-0.00844538677483797,-0.02681012824177742
1739550869702918700,0.470918701171875,-0.03347114473581314,-0.0005645607598125935,-0.037490468472242355
1739550869712987600,0.480987548828125,-0.03278085216879845,0.013192263431847095,-0.03600256145000458
1739550869723057400,0.491057373046875,-0.027982637286186218,0.023103483021259308,-0.025050312280654907
1739550869733126700,0.501126708984375,-0.025816719979047775,0.02208879217505455,-0.011386243626475334
1739550869743195600,0.511195556640625,-0.025625240057706833,0.02383449487388134,0.0025271745398640633
1739550869753265700,0.521265625,-0.01848328486084938,0.0072496915236115456,0.01971549354493618
1739550869763334400,0.53133447265625,-0.014461113139986992,-0.00722831767052412,0.034002553671598434
1739550869773403600,0.541403564453125,-0.009724210947751999,0.002497706562280655,0.04042421281337738
1739550869783473400,0.551473388671875,-0.011350337415933609,0.018580535426735878,0.04173795133829117
1739550869793542700,0.561542724609375,-0.014752360060811043,0.013982241973280907,0.042113739997148514
1739550869803611400,0.571611328125,-0.013071637600660324,0.0023082755506038666,0.04369752109050751
1739550869813680600,0.5816806640625,-0.013272406533360481,-0.00031011784449219704,0.03373711556196213
1739550869823750400,0.59175048828125,-0.02344461716711521,-0.020757868885993958,0.025837382301688194
1739550869833819600,0.601819580078125,-0.028421932831406593,-0.03149589151144028,0.02570907026529312
1739550869843888600,0.611888671875,-0.027291154488921165,-0.035505812615156174,0.03491002693772316
1739550869853958700,0.621958740234375,-0.024539701640605927,-0.023381192237138748,0.05014670640230179
1739550869864027400,0.63202734375,-0.023699741810560226,-0.00034964364022016525,0.06200576201081276
1739550869874096600,0.6420966796875,-0.024709705263376236,0.01619531959295273,0.06414216011762619
1739550869884166700,0.652166748046875,-0.018859805539250374,0.014645892195403576,0.05450577288866043
1739550869894235600,0.662235595703125,-0.028062304481863976,0.023595720529556274,0.041282568126916885
1739550869904304400,0.672304443359375,-0.02416902966797352,0.002416399307549,0.029418718069791794
1739550869914374700,0.682374755859375,-0.017183946445584297,-0.030361317098140717,0.01749911904335022
1739550869924443600,0.692443603515625,-0.017366904765367508,-0.024619808420538902,0.008792979642748833
1739550869934512600,0.7025126953125,-0.022917751222848892,-0.010193714872002602,0.00035944581031799316
1739550869944582700,0.712582763671875,-0.029239295050501823,-0.0031374036334455013,-0.0041380999609827995
1739550869954651600,0.722651611328125,-0.029839321970939636,-0.011304030194878578,-0.00247893575578928
1739550869964720600,0.732720703125,-0.03461969643831253,-0.0216570682823658,0.003812250681221485
1739550869974790700,0.742790771484375,-0.03405449539422989,-0.016995586454868317,-0.0015375111252069473
1739550869984859600,0.752859619140625,-0.02802935801446438,-0.015554817393422127,0.006618154235184193
1739550869994928600,0.7629287109375,-0.02422080934047699,-0.017392100766301155,0.008742105215787888
1739550870004998700,0.77299853515625,-0.021556315943598747,-0.015363305807113647,0.016360610723495483
1739550870015067600,0.783067626953125,-0.021328065544366837,-0.009551238268613815,0.017278967425227165
1739550870025136600,0.79313671875,-0.027033887803554535,-0.011215181089937687,0.00698931235820055
1739550870035206700,0.80320654296875,-0.03115636669099331,-0.024894850328564644,-0.00788045022636652
1739550870045275600,0.813275634765625,-0.03481901064515114,-0.039534248411655426,-0.024506565183401108
1739550870055344600,0.8233447265625,-0.02956457808613777,-0.041429102420806885,-0.034786008298397064
1739550870065413600,0.83341357421875,-0.028009291738271713,-0.02412334643304348,-0.04277895390987396
1739550870075483600,0.843483642578125,-0.03121957741677761,-0.0073557281866669655,-0.03460367023944855
1739550870085552600,0.853552734375,-0.032502420246601105,0.00005265325307846069,-0.03737042844295502
1739550870095621600,0.86362158203125,-0.03329930081963539,-0.014609279111027718,-0.03570852801203728
1739550870105691600,0.873691650390625,-0.03177570551633835,-0.030337108299136162,-0.027308914810419083
1739550870115760600,0.8837607421875,-0.0351436585187912,-0.03639692813158035,-0.0143364816904068
1739550870125829600,0.89382958984375,-0.026270806789398193,-0.022622793912887573,0.016012635082006454
1739550870135899600,0.903899658203125,-0.011706102639436722,-0.003308755811303854,0.04104693606495857
1739550870145968600,0.91396875,-0.005507329478859901,0.0038538160733878613,0.057611532509326935
1739550870156037600,0.92403759765625,-0.004857779014855623,-0.0006310069002211094,0.057016972452402115
1739550870166107600,0.934107666015625,-0.006028238218277693,0.001374619547277689,0.04099166393280029
1739550870176176600,0.9441767578125,-0.005230023059993982,-0.014302879571914673,0.017931072041392326
1739550870186245600,0.95424560546875,-0.008072947151958942,-0.0317457839846611,0.001549968495965004
1739550870196315600,0.964315673828125,-0.009474953636527061,-0.03386034443974495,-0.0014076372608542442
1739550870206384600,0.974384521484375,-0.005057835020124912,-0.03253195807337761,0.0099566038697958
1739550870216454100,0.9844541015625,-0.005054570268839598,-0.023542728275060654,0.012498321942985058
1739550870226524200,0.994524169921875,-0.009665833786129951,-0.015966035425662994,0.012096983380615711
1739550870236593000,1.004593017578125,-0.00861098151654005,-0.021715672686696053,0.007977252826094627
1739550870246662100,1.014662109375,-0.0026814532466232777,-0.038162823766469955,-0.0012972047552466393
1739550870256732000,1.02473193359375,-0.004457214381545782,-0.02507549151778221,-0.004019397310912609
1739550870266801200,1.03480126953125,-0.00912227388471365,-0.009226487949490547,0.009234090335667133
1739550870276870000,1.044869873046875,-0.004244532436132431,0.005859177093952894,0.026757411658763885
1739550870286940200,1.054940185546875,-0.0061958301812410355,0.015752553939819336,0.03456606715917587
1739550870297009000,1.0650087890625,-0.011560054495930672,0.020473502576351166,0.03292849287390709
1739550870307078100,1.075078125,-0.01158136036247015,0.00624849321320653,0.020708579570055008
1739550870317148000,1.08514794921875,-0.012404167093336582,-0.013850471936166286,0.004103049635887146
1739550870327217200,1.095217041015625,-0.01608305796980858,-0.026943104341626167,-0.007802879437804222
1739550870337286000,1.105285888671875,-0.0239696204662323,-0.03593813627958298,-0.020942557603120804
1739550870347356200,1.115356201171875,-0.020162899047136307,-0.03448617830872536,-0.018665555864572525
1739550870357425000,1.1254248046875,-0.017619691789150238,-0.02255006693303585,-0.012916935607790947
1739550870367494100,1.135494140625,-0.017233267426490784,0.0029699397273361683,-0.0023348648101091385
1739550870377564000,1.14556396484375,-0.014392385259270668,0.02425326406955719,-0.0006013698875904083
1739550870387633200,1.155633056640625,-0.014111421070992947,0.009336099028587341,-0.0032722540199756622
1739550870397702000,1.165701904296875,-0.011715266853570938,-0.0028508808463811874,-0.01265237107872963
1739550870407772200,1.175772216796875,-0.01181699987500906,0.0015545203350484371,-0.014837494120001793
1739550870417841000,1.1858408203125,-0.014747095294296741,-0.0023226498160511255,-0.004793413914740086
1739550870427910100,1.19591015625,-0.008680680766701698,-0.0149809205904603,0.004468526691198349
1739550870437980200,1.205980224609375,-0.007921218872070312,-0.014825709164142609,0.007085951045155525
1739550870448049200,1.216049072265625,-0.009080758318305016,0.0008861427195370197,0.01596173457801342
1739550870458118000,1.226117919921875,-0.006644282024353743,0.005299888551235199,0.021233869716525078
1739550870468188200,1.236188232421875,0.0005137627013027668,0.0017248610965907574,0.0281120166182518
1739550870478257200,1.246257080078125,-0.00459752231836319,-0.001577497459948063,0.02397990971803665
1739550870488327000,1.256326904296875,-0.00995393842458725,0.0033895643427968025,0.01669323444366455
1739550870498396200,1.266396240234375,-0.00774270249530673,0.0011226697824895382,0.010679615661501884
1739550870508465200,1.276465087890625,-0.009713973850011826,-0.006458284333348274,0.0063948556780815125
1739550870518535200,1.28653515625,-0.014580368995666504,0.0004110732115805149,0.0028613731265068054
1739550870528604000,1.29660400390625,-0.016101833432912827,0.008812280371785164,0.007364246062934399
1739550870538673200,1.306673095703125,-0.011267722584307194,0.019041316583752632,0.00990152545273304
1739550870548743000,1.316742919921875,-0.005914236418902874,0.025930384173989296,0.019242828711867332
1739550870558812200,1.326812255859375,-0.007479037623852491,0.02283194661140442,0.034587398171424866
1739550870568881200,1.336881103515625,-0.009728875942528248,0.019563183188438416,0.042221084237098694
1739550870578951200,1.346951171875,-0.012552492320537567,0.024419404566287994,0.044797010719776154
1739550870589020000,1.35702001953125,-0.019957944750785828,0.02234720066189766,0.03195817768573761
1739550870599089200,1.367089111328125,-0.024704882875084877,0.01382741704583168,0.005323278717696667
1739550870609159000,1.377158935546875,-0.026443127542734146,0.0024879449047148228,-0.015448844991624355
1739550870619228200,1.387228271484375,-0.02680361270904541,0.005483114160597324,-0.032336946576833725
1739550870629297000,1.397296875,-0.022094611078500748,0.0033414000645279884,-0.03933892771601677
1739550870639367200,1.4073671875,-0.02126874029636383,0.001372664701193571,-0.026922129094600677
1739550870649436000,1.417435791015625,-0.01734670251607895,0.014153441414237022,-0.0008055763319134712
1739550870659505200,1.427505126953125,-0.008197848685085773,0.02629152126610279,0.028682027012109756
1739550870669575000,1.437574951171875,-0.004204172175377607,0.0346493162214756,0.04356217384338379
1739550870679644200,1.44764404296875,-0.004450046923011541,0.02367197535932064,0.04030095785856247
1739550870689714000,1.4577138671875,-0.011971080675721169,0.008383032865822315,0.025462359189987183
1739550870699783200,1.467783203125,-0.0160526130348444,-0.006542351562529802,-0.0017164619639515877
1739550870709852000,1.477851806640625,-0.02629033476114273,-0.014440754428505898,-0.02227286994457245
1739550870719922200,1.487922119140625,-0.029865087941288948,-0.006002006586641073,-0.04057380557060242
1739550870729991000,1.497990966796875,-0.026954518631100655,0.026508798822760582,-0.03431191295385361
1739550870740060200,1.50806005859375,-0.02557326853275299,0.058393172919750214,-0.01400305051356554
1739550870750130200,1.518130126953125,-0.017217600718140602,0.08070193976163864,0.00047389231622219086
1739550870760199200,1.52819921875,-0.01702604815363884,0.0789734423160553,0.011237546801567078
1739550870770268000,1.538267822265625,-0.019541937857866287,0.05367819964885712,0.011058581992983818
1739550870780338200,1.548338134765625,-0.021139590069651604,0.013806013390421867,0.008280031383037567
1739550870790407200,1.5584072265625,-0.019583506509661674,-0.02223001793026924,-0.001844240352511406
1739550870800476200,1.56847607421875,-0.025449324399232864,-0.03302311152219772,-0.006440941244363785
1739550870810546200,1.578546142578125,-0.02041435055434704,-0.016431085765361786,-0.00803670659661293
1739550870820615200,1.588615234375,-0.013296146877110004,-0.005411812104284763,-0.006850208155810833
1739550870830684000,1.598683837890625,-0.009558400139212608,0.0030937916599214077,-0.006546075455844402
1739550870840754000,1.60875390625,-0.008572764694690704,0.01834757998585701,-0.0034112678840756416
1739550870850823200,1.6188232421875,-0.013010922819375992,0.018618423491716385,-0.0033460212871432304
1739550870860893000,1.628892822265625,-0.01462885458022356,0.013040799647569656,-0.0034524640068411827
1739550870870962200,1.638962158203125,-0.010361671447753906,-0.0014944667927920818,-0.0027331439778208733
1739550870881031000,1.649031005859375,-0.016178317368030548,-0.018499040976166725,-0.0023966319859027863
1739550870891101200,1.65910107421875,-0.01764492131769657,-0.02454761043190956,-0.004848869517445564
1739550870901170000,1.669169921875,-0.018323106691241264,-0.008423173800110817,-0.002334482967853546
1739550870911239200,1.6792392578125,-0.016173670068383217,-0.008614655584096909,0.0016211103647947311
1739550870921309000,1.689308837890625,-0.018040750175714493,-0.0037044209893792868,0.006286619231104851
1739550870931378200,1.699378173828125,-0.02007700502872467,-0.00036108866333961487,0.014016443863511086
1739550870941448000,1.709447998046875,-0.015547281131148338,0.008327824994921684,0.014298861846327782
1739550870951517200,1.71951708984375,-0.01308678649365902,0.017976989969611168,0.019027836620807648
1739550870961586000,1.7295859375,-0.013023020699620247,0.024772649630904198,0.013034745119512081
1739550870971656200,1.73965625,-0.009635480120778084,0.012609459459781647,0.0030710604041814804
1739550870981725000,1.749724853515625,-0.010728921741247177,0.0040555610321462154,-0.006241059862077236
1739550870991794200,1.759794189453125,-0.015213684178888798,-0.009332416579127312,-0.004108133725821972
1739550871001864000,1.769864013671875,-0.016641024500131607,-0.010335991159081459,-0.013294096104800701
1739550871011933200,1.77993310546875,-0.014119809493422508,-0.007706652395427227,-0.012519382871687412
1739550871022003200,1.790003173828125,-0.013698026537895203,-0.0061872173100709915,-0.011726743541657925
1739550871032072200,1.800072265625,-0.007508839480578899,0.004599916748702526,-0.016044791787862778
1739550871042141000,1.810140869140625,-0.002094206865876913,0.014642784371972084,-0.018278703093528748
1739550871052211000,1.8202109375,-0.00011734245344996452,0.015225483104586601,-0.01623579114675522
1739550871062280200,1.8302802734375,0.0028715841472148895,0.013588869012892246,-0.004118758253753185
1739550871072349200,1.84034912109375,0.0032446933910250664,0.009161630645394325,0.00671098567545414
1739550871082419200,1.850419189453125,0.003932982683181763,0.005360553972423077,0.015755197033286095
1739550871092488000,1.860488037109375,0.009195388294756413,0.00030028168112039566,0.021037843078374863
1739550871102558200,1.87055810546875,0.011605548672378063,-0.005015654023736715,0.01969614252448082
1739550871112627000,1.880626953125,0.0077295852825045586,0.003947746939957142,0.00961474608629942
1739550871122696200,1.8906962890625,0.005088122095912695,0.0076424055732786655,-0.006339875049889088
1739550871132766000,1.900765869140625,0.005263890605419874,0.006124137435108423,-0.012680594809353352
1739550871142835200,1.910835205078125,0.0025908099487423897,-0.00676838168874383,-0.013532200828194618
1739550871152904000,1.920904052734375,0.0021063806489109993,-0.020392313599586487,-0.013348707929253578
1739550871162974200,1.93097412109375,0.0008391314186155796,-0.030834641307592392,-0.003284183330833912
1739550871173043000,1.94104296875,-0.001975031103938818,-0.026878781616687775,0.0047164857387542725
1739550871183113200,1.95111328125,0.0007367650978267193,-0.017557106912136078,0.005604607984423637
1739550871193182000,1.961181884765625,-0.00493097398430109,0.00010604364797472954,0.009073374792933464
1739550871203251200,1.971251220703125,-0.007181493099778891,0.002771671861410141,0.009581604972481728
1739550871213321200,1.9813212890625,-0.002383808372542262,0.0009569940157234669,0.007113653235137463
1739550871223390200,1.99139013671875,0.0015579364262521267,0.002779928036034107,0.010519303381443024
1739550871233460200,2.001460205078125,-0.0001424918882548809,-0.0027357451617717743,0.009734736755490303
1739550871243529000,2.011529052734375,-0.0013797315768897533,-0.00966140627861023,0.004307136870920658
1739550871253598200,2.02159814453125,0.0009033964015543461,-0.014418610371649265,-0.008402266539633274
1739550871263668200,2.031668212890625,-0.0012758048251271248,-0.013040799647569656,-0.02426733821630478
1739550871273737200,2.0417373046875,0.0019591371528804302,-0.009855925105512142,-0.025159496814012527
1739550871283806200,2.05180615234375,0.00483905803412199,-0.006248814519494772,-0.014568961225450039
1739550871293876200,2.061876220703125,0.007600223645567894,-0.0004372643306851387,0.005114994943141937
1739550871303945200,2.0719453125,0.010691024363040924,0.00022517284378409386,0.02627335861325264
1739550871314015200,2.08201513671875,0.008577805012464523,-0.00814647413790226,0.031188756227493286
1739550871324084200,2.092084228515625,0.006631363183259964,0.000823749229311943,0.02540402114391327
1739550871334153200,2.1021533203125,0.00013058725744485855,0.0022687800228595734,0.00874621607363224
1739550871344223200,2.11222314453125,-0.009681765921413898,-0.00367710180580616,-0.007471718825399876
1739550871354292200,2.122292236328125,-0.016606250777840614,-0.0007537500932812691,-0.021844532340765
1739550871364362200,2.1323623046875,-0.018492422997951508,-0.009957436472177505,-0.03006635792553425
1739550871374431200,2.14243115234375,-0.016486529260873795,-0.013523142784833908,-0.027144869789481163
1739550871384500200,2.152500244140625,-0.012064928188920021,-0.0021842122077941895,-0.02811676636338234
1739550871394570200,2.1625703125,-0.006689603440463543,0.014801695942878723,-0.025553472340106964
1739550871404639200,2.17263916015625,-0.000056300777941942215,0.025705546140670776,-0.01387849636375904
1739550871414709000,2.182708984375,0.004717947915196419,0.02958444133400917,-0.004165148362517357
1739550871424778200,2.1927783203125,0.002248867880553007,0.028982410207390785,0.010792587883770466
1739550871434847200,2.20284716796875,0.008618083782494068,0.011188233271241188,0.015045655891299248
1739550871444917200,2.212917236328125,0.005966110620647669,-0.010090963914990425,0.003967425785958767
1739550871454986000,2.222986083984375,0.0009335349313914776,-0.025313058868050575,-0.0007229335606098175
1739550871465056300,2.23305615234375,0.0022933236323297024,-0.03117668256163597,-0.007741482928395271
1739550871475125000,2.243125,0.003960196394473314,-0.03323530778288841,-0.010934347286820412
1739550871485194200,2.2531943359375,0.001860826276242733,-0.012378759682178497,-0.006497254595160484
1739550871495264300,2.26326416015625,0.001291708555072546,0.0015349248424172401,-0.007392343133687973
1739550871505333200,2.273333251953125,0.0045782350935041904,0.008511828258633614,-0.008575312793254852
1739550871515402000,2.283402099609375,0.0020005609840154648,0.012908706441521645,-0.007931359112262726
1739550871525472300,2.29347216796875,0.0029449565336108208,0.013566272333264351,-0.004722908139228821
1739550871535541200,2.303541259765625,0.005560447461903095,0.006539786700159311,-0.0019092783331871033
1739550871545611300,2.313611328125,0.007035573944449425,-0.0037669192533940077,-0.0018184762448072433
1739550871555680300,2.32368017578125,0.0036024926230311394,-0.006020219996571541,-0.006276341155171394
1739550871565749200,2.333749267578125,0.0013243220746517181,-0.004631296265870333,-0.0008089039474725723
1739550871575819300,2.3438193359375,0.0011088727042078972,-0.003255773801356554,0.0041158124804496765
1739550871585888300,2.35388818359375,0.002402104437351227,0.007269300054758787,0.010940678417682648
1739550871595958300,2.363958251953125,0.0005054008215665817,0.012750351801514626,0.011143611744046211
1739550871606027000,2.374027099609375,-0.0004227324388921261,0.016102604568004608,0.004643858410418034
1739550871616096300,2.38409619140625,-0.002627030713483691,0.024203140288591385,-0.007972601801156998
1739550871626166000,2.394166015625,-0.0004274221137166023,0.03677796199917793,-0.017595916986465454
1739550871636235300,2.4042353515625,0.002702591009438038,0.0322713628411293,-0.020504623651504517
1739550871646305000,2.414304931640625,0.0015200437046587467,0.018177740275859833,-0.015391634777188301
1739550871656374300,2.424374267578125,0.0024771839380264282,0.012152071110904217,-0.00840483233332634
1739550871666443000,2.434443115234375,0.003044909331947565,0.0016009821556508541,0.0005548857152462006
1739550871676513300,2.44451318359375,0.002859021071344614,-0.013438154011964798,0.005941661074757576
1739550871686582000,2.45458203125,0.000573884230107069,-0.03051188960671425,0.0004716021940112114
1739550871696652300,2.46465234375,-0.0014386666007339954,-0.030239714309573174,-0.01521122083067894
1739550871706721300,2.47472119140625,-0.0013976527843624353,-0.018781986087560654,-0.023642465472221375
1739550871716790300,2.484790283203125,0.003958230372518301,-0.0012882133014500141,-0.024742618203163147
1739550871726860300,2.4948603515625,0.008000396192073822,0.0010587000288069248,-0.02631864696741104
1739550871736929300,2.50492919921875,0.006188914645463228,0.013391532935202122,-0.02191111445426941
1739550871746999300,2.514999267578125,0.007948730140924454,0.01100988034158945,-0.010765745304524899
1739550871757068000,2.525068115234375,0.006039243657141924,0.00468833465129137,0.004305348731577396
1739550871767138300,2.53513818359375,0.0024553872644901276,-0.005918537266552448,0.01727769523859024
1739550871777207000,2.54520703125,-0.00377321382984519,-0.0024300627410411835,0.01834801957011223
1739550871787276300,2.5552763671875,-0.0034683835692703724,-0.005303262732923031,0.019821524620056152
1739550871797346000,2.565345947265625,-0.00314694014377892,-0.01615937240421772,0.011268782429397106
1739550871807415300,2.575415283203125,-0.003237816970795393,-0.013560563325881958,0.006595245562493801
1739550871817485000,2.585485107421875,-0.0011978354305028915,-0.0062163639813661575,-0.0024840040132403374
1739550871827554300,2.59555419921875,0.0033614737913012505,-0.011831519193947315,-0.009029344655573368
1739550871837623000,2.605623046875,0.001331612467765808,-0.024506833404302597,-0.02123887464404106
1739550871847693300,2.615693359375,0.0014854036271572113,-0.040267884731292725,-0.018878869712352753
1739550871857762000,2.625761962890625,0.005325416103005409,-0.05015726387500763,-0.011158362962305546
1739550871867832000,2.63583203125,0.0023650224320590496,-0.05078405886888504,0.004664957523345947
1739550871877901000,2.645901123046875,0.003237207420170307,-0.039382800459861755,0.015391637571156025
1739550871887970300,2.65597021484375,0.009657351300120354,-0.027109190821647644,0.024127259850502014
1739550871898040300,2.666040283203125,0.010548446327447891,-0.017505032941699028,0.01898256503045559
1739550871908109300,2.676109375,0.003413141705095768,-0.007975789718329906,0.009241844527423382
1739550871918179300,2.686179443359375,-0.0016897409223020077,-0.009693793952465057,0.0013540945947170258
1739550871928248000,2.696248046875,-0.002969639841467142,-0.024306155741214752,-0.001622512936592102
1739550871938317300,2.7063173828125,-0.002382679143920541,-0.03331030160188675,-0.003813762217760086
1739550871948387000,2.716386962890625,-0.00603239331394434,-0.05540553852915764,-0.013311955146491528
1739550871958456300,2.726456298828125,-0.01042234804481268,-0.06844304502010345,-0.02743496373295784
1739550871968526000,2.736526123046875,-0.01117817685008049,-0.06887995451688766,-0.03142078220844269
1739550871978595300,2.74659521484375,-0.0108796376734972,-0.06855212152004242,-0.028964813798666
1739550871988665000,2.7566650390625,-0.012369958683848381,-0.05474003776907921,-0.016539044678211212
1739550871998734300,2.766734375,-0.010965940542519093,-0.03939037770032883,-0.0014160163700580597
1739550872008803000,2.776802978515625,-0.015543628484010696,-0.019896427169442177,0.01040873397141695
1739550872018873000,2.786873046875,-0.020607629790902138,-0.008310877718031406,0.0216938778758049
1739550872028942000,2.796942138671875,-0.021280363202095032,-0.006529631093144417,0.021342026069760323
1739550872039012000,2.80701220703125,-0.024139799177646637,-0.02026568353176117,0.010758889839053154
1739550872049081000,2.8170810546875,-0.03415511175990105,-0.03983297199010849,-0.0046114446595311165
1739550872059150300,2.827150390625,-0.03617085516452789,-0.03574901819229126,-0.020713448524475098
1739550872069220400,2.837220458984375,-0.038952119648456573,-0.017277922481298447,-0.038376666605472565
1739550872079289000,2.8472890625,-0.039068497717380524,-0.011504721827805042,-0.036948949098587036
1739550872089359400,2.857359375,-0.03368166461586952,-0.012318428605794907,-0.024160876870155334
1739550872099428000,2.867427978515625,-0.026714302599430084,-0.03171103447675705,-0.005421278066933155
1739550872109498400,2.877498291015625,-0.022066835314035416,-0.04713433235883713,0.007353136781603098
1739550872119567000,2.887567138671875,-0.019362395629286766,-0.056694015860557556,0.021176274865865707
1739550872129636400,2.89763623046875,-0.019029732793569565,-0.06709311902523041,0.026056265458464622
1739550872139706000,2.9077060546875,-0.017680574208498,-0.06735730171203613,0.014765261672437191
1739550872149775400,2.917775390625,-0.02160164713859558,-0.04590092971920967,0.00041107647120952606
1739550872159845000,2.92784521484375,-0.021869562566280365,-0.027094483375549316,-0.016149790957570076
1739550872169914400,2.937914306640625,-0.02559090033173561,-0.018877487629652023,-0.022680193185806274
1739550872179983000,2.947983154296875,-0.027353381738066673,-0.01993396505713463,-0.023275677114725113
1739550872190053000,2.95805322265625,-0.026095973327755928,-0.020997829735279083,-0.01980488747358322
1739550872200122000,2.9681220703125,-0.026631535962224007,-0.0199528057128191,-0.015175247564911842
1739550872210192100,2.978192138671875,-0.027718087658286095,-0.05239875614643097,-0.009803869761526585
1739550872220261000,2.98826123046875,-0.03232775256037712,-0.05960793048143387,-0.006093286909162998
1739550872230331100,2.9983310546875,-0.03653198853135109,-0.05091066658496857,-0.003176632337272167
1739550872240400100,3.008400146484375,-0.03472396731376648,-0.04991917312145233,-0.006102382205426693
1739550872250468900,3.01846875,-0.03505438193678856,-0.05635785311460495,-0.00997006893157959
1739550872260539100,3.0285390625,-0.03922382742166519,-0.0518491230905056,-0.014497175812721252
1739550872270608000,3.03860791015625,-0.04291662573814392,-0.04267869144678116,-0.013837432488799095
1739550872280678100,3.04867822265625,-0.04741150885820389,-0.021275397390127182,-0.028928767889738083
1739550872290747100,3.0587470703125,-0.05209814012050629,-0.003133944934234023,-0.039180606603622437
1739550872300817000,3.06881689453125,-0.05196940153837204,0.004555856343358755,-0.03681987524032593
1739550872310886100,3.07888623046875,-0.052033431828022,-0.007006716914474964,-0.027874208986759186
1739550872320955100,3.088955078125,-0.05314929410815239,-0.0006398977711796761,-0.011120530776679516
1739550872331025200,3.099025146484375,-0.055542368441820145,0.0014879894442856312,0.0014342879876494408
1739550872341094100,3.10909423828125,-0.0735088512301445,-0.0034098299220204353,0.0064530149102211
1739550872351164200,3.1191640625,-0.078436940908432,-0.035173170268535614,-0.002860649488866329
1739550872361233000,3.12923291015625,-0.0694330558180809,-0.06819690018892288,-0.012451757676899433
1739550872371303200,3.13930322265625,-0.07299210876226425,-0.07326236367225647,-0.016928140074014664
1739550872381372000,3.149371826171875,-0.0839558094739914,-0.0619220957159996,-0.019094888120889664
1739550872391441200,3.159441162109375,-0.08566509932279587,-0.04334937781095505,-0.022633986547589302
1739550872401511000,3.169510986328125,-0.08320912718772888,-0.024607650935649872,-0.010472660884261131
1739550872411580200,3.179580078125,-0.08228765428066254,-0.01526779867708683,0.014457556419074535
1739550872421650200,3.189650146484375,-0.07914086431264877,-0.006747547537088394,0.028438352048397064
1739550872431719200,3.19971923828125,-0.0796782523393631,-0.016700293868780136,0.0391605943441391
1739550872441789200,3.2097890625,-0.07809846103191376,-0.029257366433739662,0.042150259017944336
1739550872451858000,3.21985791015625,-0.06859312951564789,-0.046163253486156464,0.03893604502081871
1739550872461927200,3.22992724609375,-0.06614354997873306,-0.05416738614439964,0.0218979399651289
1739550872471997000,3.239996826171875,-0.06913445144891739,-0.04935939610004425,0.014551086351275444
1739550872482066200,3.250066162109375,-0.06060993671417236,-0.0536406934261322,0.005242273211479187
1739550872492136000,3.260135986328125,-0.05873756855726242,-0.04330195486545563,0.005031608045101166
1739550872502205200,3.270205078125,-0.055089302361011505,-0.025495260953903198,0.018252603709697723
1739550872512275000,3.28027490234375,-0.04739092290401459,-0.018838033080101013,0.0388350673019886
1739550872522344200,3.29034423828125,-0.045981843024492264,-0.03174903616309166,0.05588116496801376
1739550872532413000,3.300412841796875,-0.04571981728076935,-0.04200315475463867,0.05307754874229431
1739550872542483200,3.310483154296875,-0.027415640652179718,-0.0790216252207756,0.06480691581964493
1739550872552552000,3.320552001953125,-0.030352413654327393,-0.06431902945041656,0.05418775603175163
1739550872562622000,3.3306220703125,-0.03978186845779419,-0.042469125241041183,0.04810589551925659
1739550872572691000,3.34069091796875,-0.029863495379686356,-0.02751176618039608,0.04881793633103371
1739550872582761000,3.350760986328125,-0.03819705918431282,0.03219896927475929,0.051212385296821594
1739550872592830200,3.360830322265625,-0.05289275199174881,0.06990701705217361,0.042021214962005615
1739550872602899200,3.370899169921875,-0.058275800198316574,0.05110030248761177,0.024745021015405655
1739550872612969200,3.38096923828125,-0.07073855400085449,0.033916279673576355,0.013783065602183342
1739550872623038000,3.391037841796875,-0.0782792940735817,0.027783548459410667,0.00321031641215086
1739550872633108200,3.401108154296875,-0.08255694806575775,0.026744339615106583,-0.005588795058429241
1739550872643177000,3.411177001953125,-0.08373086899518967,0.03581799566745758,-0.014925838448107243
1739550872653247200,3.421247314453125,-0.07496973872184753,0.0548279732465744,-0.013206595554947853
1739550872663316000,3.43131591796875,-0.06826017051935196,0.06555598229169846,-0.007566019892692566
1739550872673385200,3.44138525390625,-0.07077834010124207,0.06389210373163223,-0.017584780231118202
1739550872683455000,3.451455078125,-0.0642663761973381,0.03532037511467934,-0.03676273673772812
1739550872693524200,3.461524169921875,-0.06121725216507912,0.002231969963759184,-0.07203454524278641
1739550872703594000,3.471593994140625,-0.06288598477840424,-0.0390012189745903,-0.11199235171079636
1739550872713663000,3.4816630859375,-0.05574778467416763,-0.06493634730577469,-0.13688871264457703
1739550872723733000,3.49173291015625,-0.048665374517440796,-0.0672927126288414,-0.14822527766227722
1739550872733802000,3.501802001953125,-0.05683840066194534,-0.06374913454055786,-0.12426050007343292
1739550872743872300,3.511872314453125,-0.07386399060487747,-0.05333777517080307,-0.09060241281986237
1739550872753941000,3.52194091796875,-0.08670273423194885,-0.051520392298698425,-0.06542664766311646
1739550872764010000,3.532010009765625,-0.09875193983316422,-0.045549049973487854,-0.06222446262836456
1739550872774080000,3.542080078125,-0.10693328827619553,-0.04030987620353699,-0.07199784368276596
1739550872784149200,3.552149169921875,-0.11968343704938889,-0.03514733538031578,-0.09565044194459915
1739550872794219000,3.562218994140625,-0.12978217005729675,-0.0567915253341198,-0.10645792633295059
1739550872804288300,3.572288330078125,-0.13491275906562805,-0.07050813734531403,-0.12490963935852051
1739550872814358000,3.58235791015625,-0.14005039632320404,-0.08468887954950333,-0.15256811678409576
1739550872824427000,3.592427001953125,-0.14013029634952545,-0.07781525701284409,-0.18034301698207855
1739550872834496000,3.60249609375,-0.140982985496521,-0.06643528491258621,-0.2074676901102066
1739550872844566000,3.61256591796875,-0.14534392952919006,-0.06591863185167313,-0.2313879430294037
1739550872854635000,3.622635009765625,-0.14051483571529388,-0.06856861710548401,-0.21876859664916992
1739550872864705000,3.632705078125,-0.12823419272899628,-0.06284681707620621,-0.1863965392112732
1739550872874774000,3.64277392578125,-0.12195300310850143,-0.033497247844934464,-0.13124826550483704
1739550872884844000,3.652843994140625,-0.10411941260099411,-0.0032578513491898775,-0.0711526945233345
1739550872894913000,3.6629130859375,-0.09151189774274826,0.004313434939831495,-0.016648098826408386
1739550872904983000,3.672983154296875,-0.09032359719276428,0.0011839540675282478,0.00992252491414547
1739550872915052300,3.68305224609375,-0.09783035516738892,-0.0009571462869644165,0.017529234290122986
1739550872925121000,3.69312109375,-0.10164666920900345,0.0065079606138169765,0.012585342861711979
1739550872935191000,3.70319091796875,-0.10228224098682404,0.011227002367377281,0.0037240879610180855
1739550872945260000,3.713260009765625,-0.10513289272785187,0.0030268635600805283,-0.003153524361550808
1739550872955330000,3.723330078125,-0.10604603588581085,-0.00781523622572422,-0.006637087091803551
1739550872965399000,3.73339892578125,-0.11503420025110245,-0.004490545950829983,-0.0024519283324480057
1739550872975469000,3.743468994140625,-0.11180229485034943,0.0070530083030462265,0.011027924716472626
1739550872985538000,3.7535380859375,-0.09952805191278458,0.025393132120370865,0.021080559119582176
1739550872995608000,3.763608154296875,-0.08689187467098236,0.04247358441352844,0.027131060138344765
1739550873005677000,3.773677001953125,-0.07651353627443314,0.05844376981258392,0.02320103347301483
1739550873015746000,3.78374609375,-0.061147235333919525,0.0661570131778717,0.016824904829263687
1739550873025816000,3.793816162109375,-0.04741065204143524,0.06924734264612198,0.012542009353637695
1739550873035885000,3.803885009765625,-0.03783425688743591,0.06834236532449722,0.018820323050022125
1739550873045955000,3.813955078125,-0.024591153487563133,0.07409905642271042,0.042280908674001694
1739550873056024000,3.824024169921875,-0.01199612207710743,0.07674764096736908,0.06418545544147491
1739550873066094000,3.834093994140625,0.005884608253836632,0.08474751561880112,0.08492988348007202
1739550873076163000,3.8441630859375,0.030560998246073723,0.10472457855939865,0.09516467899084091
1739550873086232000,3.854232177734375,0.04261445999145508,0.12628421187400818,0.0849999263882637
1739550873096302000,3.864302001953125,0.04995681717991829,0.1345103234052658,0.04807337373495102
1739550873106371000,3.87437109375,0.06431498378515244,0.1341894119977951,-0.011243212968111038
1739550873116441000,3.884441162109375,0.06855972856283188,0.12673692405223846,-0.06641299277544022
1739550873126510000,3.894510009765625,0.07424771040678024,0.1343836635351181,-0.09377297759056091
1739550873136580000,3.904580078125,0.08055319637060165,0.13204456865787506,-0.09825363010168076
1739550873146649000,3.914649169921875,0.09695028513669968,0.1308000683784485,-0.07615099102258682
1739550873156718800,3.92471875,0.10931175947189331,0.12226937711238861,-0.03900659829378128
1739550873166788000,3.9347880859375,0.12292610108852386,0.12107734382152557,-0.007745613344013691
1739550873176857000,3.944857177734375,0.1332051008939743,0.11901897192001343,0.001133561134338379
1739550873186927000,3.954927001953125,0.13492657244205475,0.10998819768428802,0.0021058814600110054
1739550873196996000,3.96499609375,0.13596725463867188,0.09242821484804153,0.005658267997205257
1739550873207066000,3.975066162109375,0.13800084590911865,0.08343498408794403,0.013542023487389088
1739550873217135400,3.98513525390625,0.13848233222961426,0.09005492925643921,0.016349490731954575
1739550873227205400,3.995205322265625,0.13849325478076935,0.11165236681699753,0.022182878106832504
1739550873237274400,4.0052744140625,0.14290255308151245,0.12183850258588791,0.028137974441051483
1739550873247344000,4.01534423828125,0.14566931128501892,0.11454730480909348,0.02974013239145279
1739550873257413400,4.025413330078125,0.14765416085720062,0.10780470818281174,0.04065056890249252
1739550873267483100,4.035483154296875,0.15554989874362946,0.11879131942987442,0.060637593269348145
1739550873277552400,4.045552490234375,0.1686195582151413,0.12654773890972137,0.08454243093729019
1739550873287621400,4.055621337890625,0.17954809963703156,0.12751872837543488,0.11297434568405151
1739550873297691400,4.06569140625,0.19391188025474548,0.13667242228984833,0.134015291929245
1739550873307760000,4.075760009765625,0.20864582061767578,0.13625004887580872,0.1514720469713211
1739550873317830400,4.085830322265625,0.21483451128005981,0.12471138685941696,0.16840024292469025
1739550873327899100,4.095899169921875,0.21286430954933167,0.14570295810699463,0.19067491590976715
1739550873337969400,4.105969482421875,0.21157461404800415,0.16583169996738434,0.21411149203777313
1739550873348038100,4.1160380859375,0.21162015199661255,0.1814442127943039,0.24732324481010437
1739550873358108200,4.126108154296875,0.20299847424030304,0.181617870926857,0.2843303382396698
1739550873368177400,4.136177490234375,0.18595664203166962,0.15884651243686676,0.3122064471244812
1739550873378246400,4.146246337890625,0.18070228397846222,0.10673221200704575,0.3495270609855652
1739550873388316400,4.15631640625,0.20394130051136017,0.10022930800914764,0.3867071866989136
1739550873398385400,4.166385498046875,0.24149484932422638,0.07328985631465912,0.3718911111354828
1739550873408455400,4.176455322265625,0.24974000453948975,0.05393799766898155,0.2855706214904785
1739550873418524200,4.186524169921875,0.2505800426006317,0.036545999348163605,0.10055872052907944
1739550873428594400,4.196594482421875,0.2588965594768524,0.050792843103408813,-0.1847526580095291
1739550873438663200,4.2066630859375,0.2618832290172577,0.07759124785661697,-0.5141472816467285
1739550873448733400,4.2167333984375,0.24348555505275726,0.0662243440747261,-0.771051287651062
1739550873458802200,4.22680224609375,0.23835428059101105,0.042188581079244614,-0.9065351486206055
1739550873468872200,4.2368720703125,0.23387831449508667,-0.029952989891171455,-0.9230853319168091
1739550873478941200,4.246941162109375,0.24525342881679535,-0.07738218456506729,-0.8141393661499023
1739550873489010400,4.257010498046875,0.2511177062988281,-0.056711260229349136,-0.623192310333252
1739550873499080400,4.26708056640625,0.2564516067504883,-0.01166702900081873,-0.39132213592529297
1739550873509149400,4.2771494140625,0.24081431329250336,0.0632849782705307,-0.16202367842197418
1739550873519219500,4.287219482421875,0.19653178751468658,0.1394120752811432,0.04320205748081207
1739550873529288200,4.2972880859375,0.13324308395385742,0.16041111946105957,0.18797682225704193
1739550873539358500,4.3073583984375,0.05295455828309059,0.1250956952571869,0.2844567894935608
1739550873549427200,4.31742724609375,-0.029098764061927795,0.06524886935949326,0.35677918791770935
1739550873559497500,4.32749755859375,-0.09636323153972626,0.001978046726435423,0.3964986205101013
1739550873569566200,4.337566162109375,-0.1467672884464264,-0.025845594704151154,0.4037237763404846
1739550873579635500,4.347635498046875,-0.17202751338481903,-0.007465462666004896,0.38390296697616577
1739550873589705200,4.357705322265625,-0.18032965064048767,0.004790137987583876,0.35031864047050476
1739550873599774500,4.3677744140625,-0.16568267345428467,-0.016368206590414047,0.3097345232963562
1739550873609844200,4.37784423828125,-0.14497312903404236,-0.08159328252077103,0.27424123883247375
1739550873619913200,4.387913330078125,-0.07726069539785385,-0.11992418020963669,0.2545109689235687
1739550873629983500,4.3979833984375,-0.06347670406103134,-0.10456786304712296,0.23819617927074432
1739550873640052200,4.40805224609375,-0.031150951981544495,-0.10237685590982437,0.21698123216629028
1739550873650122500,4.41812255859375,0.028409581631422043,-0.09834696352481842,0.17067845165729523
1739550873660191200,4.428191162109375,0.09529631584882736,-0.09064903110265732,0.08151611685752869
1739550873670261500,4.438261474609375,0.15742678940296173,-0.045695140957832336,-0.02377568557858467
1739550873680330200,4.448330322265625,0.20017215609550476,0.004160566721111536,-0.14080926775932312
1739550873690399500,4.4583994140625,0.23897680640220642,0.07934187352657318,-0.2610650956630707
1739550873700469200,4.46846923828125,0.2759653925895691,0.1291256546974182,-0.33213597536087036
1739550873710538500,4.47853857421875,0.2933318614959717,0.12869980931282043,-0.3355221748352051
1739550873720608300,4.488608154296875,0.28635790944099426,0.11000790446996689,-0.22791221737861633
1739550873730677200,4.49867724609375,0.26755836606025696,0.09996485710144043,-0.028559166938066483
1739550873740747300,4.508747314453125,0.24970881640911102,0.11958583444356918,0.20057277381420135
1739550873750816300,4.518816162109375,0.22456830739974976,0.13310350477695465,0.40879547595977783
1739550873760886500,4.528886474609375,0.18963012099266052,0.0965651273727417,0.5476952791213989
1739550873770955300,4.538955322265625,0.12520664930343628,0.006049341522157192,0.5741152167320251
1739550873781025500,4.549025634765625,0.06935805082321167,-0.06555986404418945,0.5129613876342773
1739550873791094300,4.55909423828125,0.03120347671210766,-0.15316879749298096,0.39722785353660583
1739550873801163300,4.569163330078125,0.026658933609724045,-0.21527963876724243,0.2698727250099182
1739550873811233300,4.5792333984375,0.012934066355228424,-0.18908560276031494,0.12777230143547058
1739550873821302500,4.589302490234375,-0.014428487047553062,-0.19569164514541626,-0.0004996666684746742
1739550873831372300,4.599372314453125,-0.02410987578332424,-0.19581282138824463,-0.08543293178081512
1739550873841441300,4.609441162109375,-0.024195389822125435,-0.1795884668827057,-0.11512704193592072
1739550873851511300,4.61951123046875,-0.0069117420352995396,-0.1691262274980545,-0.1011185497045517
1739550873861580300,4.629580322265625,0.016800645738840103,-0.13989877700805664,-0.0625951737165451
1739550873871650300,4.639650390625,0.0419805683195591,-0.110846608877182,-0.01925595849752426
1739550873881719300,4.64971923828125,0.04630532115697861,-0.10286509245634079,0.019862040877342224
1739550873891789300,4.659789306640625,0.051284633576869965,-0.08441631495952606,0.037498291581869125
1739550873901858300,4.6698583984375,0.04972339794039726,-0.05508216843008995,0.02325512282550335
1739550873911927300,4.67992724609375,0.03522408381104469,-0.03265755623579025,-0.009280184283852577
1739550873921997300,4.689997314453125,0.01259359996765852,-0.025671426206827164,-0.057509973645210266
1739550873932066300,4.70006640625,-0.008927671238780022,-0.014498133212327957,-0.10598057508468628
1739550873942136300,4.71013623046875,-0.03089313954114914,-0.017801906913518906,-0.14164984226226807
1739550873952205300,4.720205322265625,-0.045431867241859436,-0.021283991634845734,-0.15334458649158478
1739550873962275300,4.730275390625,-0.05808976665139198,-0.0015950566157698631,-0.13947129249572754
1739550873972344300,4.74034423828125,-0.05633048340678215,0.03563912957906723,-0.09703222662210464
1739550873982414300,4.750414306640625,-0.054977159947156906,0.08062747865915298,-0.04135773330926895
1739550873992483300,4.7604833984375,-0.04753255844116211,0.12579388916492462,0.022868923842906952
1739550874002553300,4.77055322265625,-0.03953856974840164,0.1484653651714325,0.09029167890548706
1739550874012622300,4.780622314453125,-0.02533673122525215,0.16104692220687866,0.1443605124950409
1739550874022692000,4.790692138671875,-0.010916370898485184,0.16944274306297302,0.206699401140213
1739550874032761300,4.80076123046875,-0.006905650720000267,0.17348408699035645,0.26508599519729614
1739550874042830300,4.810830322265625,-0.010869347490370274,0.18253105878829956,0.30241233110427856
1739550874052900400,4.820900390625,-0.02105727046728134,0.18795084953308105,0.313849538564682
1739550874062969000,4.830968994140625,-0.03702226281166077,0.17284946143627167,0.31309226155281067
1739550874073039400,4.841039306640625,-0.06013397127389908,0.13753275573253632,0.2657284736633301
1739550874083108400,4.8511083984375,-0.05925506353378296,0.082486592233181,0.19720785319805145
1739550874093178400,4.861178466796875,-0.07659703493118286,0.06335923820734024,0.136925607919693
1739550874103247400,4.871247314453125,-0.09914182871580124,0.044452350586652756,0.08863037824630737
1739550874113317400,4.8813173828125,-0.10914625972509384,0.003572560381144285,0.06207599863409996
1739550874123386400,4.891386474609375,-0.1110890805721283,-0.022777041420340538,0.053712714463472366
1739550874133456100,4.9014560546875,-0.10784908384084702,-0.0267544724047184,0.042388953268527985
1739550874143525400,4.911525390625,-0.09595420956611633,-0.022015316411852837,0.03770989924669266
1739550874153595100,4.92159521484375,-0.07425450533628464,-0.022533301264047623,0.02947859838604927
1739550874163664400,4.931664306640625,-0.04476604610681534,-0.021909547969698906,0.02467687800526619
1739550874173733000,4.941733154296875,-0.019519010558724403,-0.028222836554050446,0.023202020674943924
1739550874183803400,4.951803466796875,0.011516692116856575,-0.047247640788555145,0.018480731174349785
1739550874193872100,4.9618720703125,0.03148480877280235,-0.07809636741876602,0.016010649502277374
1739550874203942400,4.9719423828125,0.03844672814011574,-0.11229248344898224,-0.005664569325745106
1739550874214011400,4.982011474609375,0.0288846492767334,-0.12972792983055115,-0.026853211224079132
1739550874224081200,4.9920810546875,0.010627111420035362,-0.1494556963443756,-0.033231355249881744
1739550874234150100,5.002150146484375,-0.007794240489602089,-0.17191706597805023,-0.017958927899599075
1739550874244220000,5.012219970703125,-0.029542945325374603,-0.17754165828227997,0.020979152992367744
1739550874254289200,5.0222890625,-0.05726166069507599,-0.16646982729434967,0.07432626187801361
1739550874264359000,5.03235888671875,-0.08924960345029831,-0.146079421043396,0.1400633603334427
1739550874274428200,5.04242822265625,-0.1152774766087532,-0.14186416566371918,0.1936083436012268
1739550874284497000,5.052496826171875,-0.14343194663524628,-0.12862083315849304,0.22523847222328186
1739550874294567200,5.062567138671875,-0.16612288355827332,-0.11587521433830261,0.24991106986999512
1739550874304636000,5.072635986328125,-0.18287308514118195,-0.09945268929004669,0.26742804050445557
1739550874314706200,5.0827060546875,-0.19143728911876678,-0.08503805845975876,0.27544042468070984
1739550874324775200,5.092775146484375,-0.20585255324840546,-0.06308873742818832,0.2635575830936432
1739550874334845200,5.10284521484375,-0.21502287685871124,-0.0460977703332901,0.25427886843681335
1739550874344914200,5.1129140625,-0.21416804194450378,-0.07390012592077255,0.22796198725700378
1739550874354984000,5.12298388671875,-0.20615752041339874,-0.10988768935203552,0.20304864645004272
1739550874365053200,5.13305322265625,-0.19761547446250916,-0.10447616875171661,0.1782994568347931
1739550874375123000,5.143123046875,-0.1881503313779831,-0.0729488655924797,0.14235450327396393
1739550874385192200,5.153192138671875,-0.1815895140171051,-0.07295187562704086,0.09880045801401138
1739550874395262000,5.163261962890625,-0.16988679766654968,-0.08287108689546585,0.035918693989515305
1739550874405331200,5.173331298828125,-0.1742185354232788,-0.06648176908493042,-0.07379280030727386
1739550874415401200,5.183401123046875,-0.18371084332466125,-0.030187144875526428,-0.212702214717865
1739550874425470200,5.19347021484375,-0.1865929365158081,0.028010625392198563,-0.3849366009235382
1739550874435540200,5.203540283203125,-0.17459459602832794,0.09018292278051376,-0.5364739894866943
1739550874445609200,5.213609130859375,-0.162991002202034,0.10804378241300583,-0.6266145706176758
1739550874455678200,5.22367822265625,-0.16000425815582275,0.060351356863975525,-0.6423317790031433
1739550874465748000,5.233748046875,-0.1899455338716507,-0.05115101486444473,-0.5623824596405029
1739550874475817200,5.243817138671875,-0.2392885833978653,-0.15678131580352783,-0.3968401551246643
1739550874485887000,5.253886962890625,-0.2642877995967865,-0.19977396726608276,-0.18922802805900574
1739550874495956200,5.263956298828125,-0.25842753052711487,-0.16101884841918945,0.015792233869433403
1739550874506026000,5.27402587890625,-0.2555926740169525,-0.0935630202293396,0.20362937450408936
1739550874516095200,5.28409521484375,-0.2588752806186676,-0.04560375213623047,0.3565203845500946
1739550874526165000,5.2941650390625,-0.26917558908462524,-0.03291352465748787,0.4763700067996979
1739550874536234200,5.304234130859375,-0.2560560703277588,-0.1831139475107193,0.5949070453643799
1739550874546304300,5.31430419921875,-0.24972888827323914,-0.15672321617603302,0.6401132345199585
1739550874556373000,5.324373046875,-0.24730488657951355,-0.11607164889574051,0.6009309887886047
1739550874566443300,5.334443359375,-0.27788472175598145,-0.1454097330570221,0.4982292950153351
1739550874576512000,5.344511962890625,-0.30010107159614563,-0.17329436540603638,0.3723006546497345
1739550874586582300,5.354582275390625,-0.2852233052253723,-0.12316739559173584,0.2524747848510742
1739550874596651000,5.364651123046875,-0.2522624135017395,-0.027057111263275146,0.17025290429592133
1739550874606721300,5.37472119140625,-0.24904437363147736,0.0553910993039608,0.1190486028790474
1739550874616790000,5.3847900390625,-0.27018481492996216,0.12308306246995926,0.10525103658437729
1739550874626860000,5.394860107421875,-0.2699034512042999,0.2419663965702057,0.09596796333789825
1739550874636929000,5.404928955078125,-0.26393237709999084,0.2500796914100647,0.09056387841701508
1739550874646998300,5.414998291015625,-0.26421746611595154,0.10164381563663483,0.05020296573638916
1739550874657068000,5.425068115234375,-0.2990947663784027,-0.06292755156755447,-0.03950588032603264
1739550874667137000,5.435136962890625,-0.35348305106163025,-0.24422618746757507,-0.13711567223072052
1739550874677207000,5.44520703125,-0.4006739854812622,-0.39527374505996704,-0.2409544438123703
1739550874687276000,5.455276123046875,-0.40035468339920044,-0.45223742723464966,-0.31989216804504395
1739550874697346300,5.46534619140625,-0.3792387545108795,-0.3766028583049774,-0.3403409719467163
1739550874707415000,5.4754150390625,-0.35599470138549805,-0.1962100714445114,-0.2940984070301056
1739550874717485300,5.4854853515625,-0.31760311126708984,-0.013503629714250565,-0.18383128941059113
1739550874727554000,5.495553955078125,-0.24348197877407074,0.14310210943222046,-0.05729275196790695
1739550874737624000,5.5056240234375,-0.170744389295578,0.24704712629318237,0.06309624761343002
1739550874747693000,5.515693115234375,-0.11869163066148758,0.27806389331817627,0.14578483998775482
1739550874757763000,5.52576318359375,-0.08920510858297348,0.25435084104537964,0.16889254748821259
1739550874767832000,5.53583203125,-0.0611816942691803,0.19288495182991028,0.1361083686351776
1739550874777902000,5.545902099609375,-0.03750379756093025,0.08680752664804459,0.049195051193237305
1739550874787971000,5.55597119140625,-0.0167374387383461,-0.02210891619324684,-0.07214551419019699
1739550874798041000,5.566041015625,0.0018564853817224503,-0.09402518719434738,-0.1970895677804947
1739550874808110000,5.576110107421875,0.031557030975818634,-0.13599877059459686,-0.3027638792991638
1739550874818180000,5.58618017578125,0.05030142143368721,-0.12696851789951324,-0.3765411674976349
1739550874828249300,5.596249267578125,0.050988297909498215,-0.10137354582548141,-0.40919071435928345
1739550874838319000,5.606319091796875,0.05702275410294533,-0.07501810044050217,-0.40803277492523193
1739550874848388000,5.61638818359375,0.05935179814696312,-0.07313971221446991,-0.3866044580936432
1739550874858457000,5.62645703125,0.050361499190330505,-0.08402778208255768,-0.356732577085495
1739550874868527000,5.636527099609375,0.03349490091204643,-0.08631596714258194,-0.3150772750377655
1739550874878596000,5.64659619140625,0.02332375757396221,-0.06451079994440079,-0.2683321535587311
1739550874888666000,5.656666015625,0.023233020678162575,-0.024502094835042953,-0.21030829846858978
1739550874898735000,5.666735107421875,0.033414822071790695,0.03211724013090134,-0.14215081930160522
1739550874908805000,5.67680517578125,0.04820062592625618,0.06403838098049164,-0.08639178425073624
1739550874918874000,5.6868740234375,0.07010592520236969,0.1012728363275528,-0.03905995935201645
1739550874928944000,5.696944091796875,0.09692510217428207,0.11477658152580261,-0.0175034012645483
1739550874939013000,5.70701318359375,0.11550331860780716,0.10276146233081818,-0.010305408388376236
1739550874949083100,5.717083251953125,0.13358163833618164,0.0535888597369194,-0.035165607929229736
1739550874959152000,5.727152099609375,0.14569076895713806,0.03567536920309067,-0.07901668548583984
1739550874969222100,5.73722216796875,0.16163568198680878,0.03321048989892006,-0.11396066844463348
1739550874979291100,5.747291015625,0.17359833419322968,0.015737224370241165,-0.13395674526691437
1739550874989361200,5.757361083984375,0.17829713225364685,0.004703850951045752,-0.13270072638988495
1739550874999430100,5.76743017578125,0.1797618716955185,0.00517736142501235,-0.10951951146125793
1739550875009500000,5.7775,0.18892841041088104,-0.0016692574135959148,-0.07855113595724106
1739550875019569200,5.787569091796875,0.19252395629882812,-0.0107455775141716,-0.04434177279472351
1739550875029639000,5.797638916015625,0.19571560621261597,-0.0021431169006973505,-0.018215946853160858
1739550875039708200,5.807708251953125,0.19862112402915955,0.009015794843435287,-0.006231722421944141
1739550875049778200,5.817778076171875,0.20118404924869537,0.02276497893035412,0.011454613879323006
1739550875059847200,5.82784716796875,0.20976421236991882,0.03680649399757385,0.032627545297145844
1739550875069917200,5.837917236328125,0.22075417637825012,0.04440723732113838,0.043551623821258545
1739550875079986200,5.847986083984375,0.22081196308135986,0.03381957486271858,0.042821384966373444
1739550875090056200,5.85805615234375,0.22071728110313416,0.0017675724811851978,0.026593292132019997
1739550875100125200,5.868125244140625,0.22248350083827972,-0.03955909609794617,-0.005932959727942944
1739550875110195200,5.8781953125,0.220078706741333,-0.08807335048913956,-0.05256127938628197
1739550875120264000,5.888263916015625,0.2029639035463333,-0.13414549827575684,-0.0993381068110466
1739550875130334200,5.898334228515625,0.19498024880886078,-0.15677425265312195,-0.1311265379190445
1739550875140403000,5.90840283203125,0.19203878939151764,-0.1353328824043274,-0.13713862001895905
1739550875150473200,5.91847314453125,0.19660584628582,-0.06416004151105881,-0.11103635281324387
1739550875160542000,5.9285419921875,0.20907023549079895,0.014488693326711655,-0.07555133104324341
1739550875170611200,5.938611083984375,0.21689973771572113,0.07870061695575714,-0.033829331398010254
1739550875180681000,5.948680908203125,0.22294005751609802,0.13887742161750793,-0.008348205126821995
1739550875190750200,5.958750244140625,0.2296190708875656,0.17159785330295563,-0.0032991673797369003
1739550875200820200,5.9688203125,0.22697855532169342,0.19881722331047058,-0.01147560402750969
1739550875210889200,5.97888916015625,0.22526443004608154,0.22181782126426697,-0.03035714663565159
1739550875220962600,5.988962646484375,0.21790264546871185,0.23108722269535065,-0.039182595908641815
1739550875231031600,5.999031494140625,0.2075662463903427,0.21116134524345398,-0.02380487695336342
1739550875241101600,6.0091015625,0.21250107884407043,0.17399242520332336,0.018114076927304268
1739550875251170600,6.019170654296875,0.22347509860992432,0.13240820169448853,0.08252127468585968
1739550875261240600,6.029240478515625,0.23347286880016327,0.09714661538600922,0.1590152531862259
1739550875271309600,6.0393095703125,0.26509979367256165,0.07995498925447464,0.23004791140556335
1739550875281379600,6.049379638671875,0.3007659316062927,0.09100896865129471,0.28524696826934814
1739550875291448600,6.059448486328125,0.33603107929229736,0.09335048496723175,0.33303406834602356
1739550875301518600,6.0695185546875,0.38818615674972534,0.1234964057803154,0.35286423563957214
1739550875311587600,6.079587646484375,0.4528053402900696,0.14040520787239075,0.3306103050708771
1739550875321657600,6.08965771484375,0.5250974297523499,0.12761351466178894,0.22134505212306976
1739550875331726600,6.0997265625,0.5862498879432678,0.11987672001123428,0.006260080263018608
1739550875341796600,6.109796630859375,0.6155041456222534,0.12296304851770401,-0.311812162399292
1739550875351865600,6.119865478515625,0.6257582902908325,0.0830247551202774,-0.6765443086624146
1739550875361935600,6.129935546875,0.6122509837150574,-0.011565133929252625,-0.9942333698272705
1739550875372004600,6.140004638671875,0.6016669273376465,-0.16719485819339752,-1.1893104314804077
1739550875382074600,6.15007470703125,0.5736257433891296,-0.3367186486721039,-1.2311031818389893
1739550875392143400,6.160143310546875,0.5445480346679688,-0.44030123949050903,-1.1226612329483032
1739550875402213600,6.170213623046875,0.5219449996948242,-0.4565638303756714,-0.8942932486534119
1739550875412282400,6.180282470703125,0.46256521344184875,-0.3494163453578949,-0.586287796497345
1739550875422352600,6.1903525390625,0.3704741597175598,-0.24360282719135284,-0.22819703817367554
1739550875432421600,6.200421630859375,0.26398518681526184,-0.12791341543197632,0.12487947195768356
1739550875442491600,6.21049169921875,0.15456949174404144,-0.02177606150507927,0.4332367777824402
1739550875452560600,6.220560546875,0.036823008209466934,0.0573640912771225,0.6801172494888306
1739550875462630400,6.23063037109375,-0.08120749145746231,0.10283703356981277,0.8438041806221008
1739550875472699600,6.24069970703125,-0.1606411337852478,0.11801233887672424,0.9081544280052185
1739550875482768600,6.2507685546875,-0.2192613035440445,0.08708984404802322,0.8792476654052734
1739550875492838700,6.260838623046875,-0.25563114881515503,0.056961581110954285,0.7647412419319153
1739550875502907400,6.270907470703125,-0.26774346828460693,0.020996129140257835,0.5873022675514221
1739550875512977700,6.280977783203125,-0.24669089913368225,-0.02121935784816742,0.38712406158447266
1739550875523046400,6.29104638671875,-0.20288775861263275,-0.0697445496916771,0.20024366676807404
1739550875533116700,6.30111669921875,-0.14672362804412842,-0.12403884530067444,0.05049339309334755
1739550875543185400,6.311185302734375,-0.09437999129295349,-0.11369007080793381,-0.06686066091060638
1739550875553255700,6.321255615234375,-0.02383311651647091,-0.06821605563163757,-0.15954318642616272
1739550875563324400,6.331324462890625,0.06759905815124512,-0.005312461871653795,-0.2238534688949585
1739550875573394400,6.34139453125,0.1410987228155136,0.05627692863345146,-0.2264101356267929
1739550875583463700,6.351463623046875,0.18797408044338226,0.11756185442209244,-0.14017590880393982
1739550875593533400,6.361533447265625,0.22198531031608582,0.16770997643470764,0.013235745951533318
1739550875603602700,6.371602783203125,0.24595454335212708,0.2290439009666443,0.20860470831394196
1739550875613672400,6.38167236328125,0.25007954239845276,0.26082688570022583,0.38114696741104126
1739550875623741700,6.39174169921875,0.23026645183563232,0.2505340278148651,0.506018340587616
1739550875633811500,6.4018115234375,0.1839035451412201,0.1888175904750824,0.5663670897483826
1739550875643880700,6.411880615234375,0.11498439311981201,0.08084450662136078,0.5456895232200623
1739550875653950500,6.421950439453125,0.046762239187955856,-0.024609848856925964,0.45421746373176575
1739550875664019700,6.432019775390625,-0.019725708290934563,-0.11833447962999344,0.340071439743042
1739550875674089700,6.44208984375,-0.09337727725505829,-0.20722946524620056,0.2258477807044983
1739550875684158500,6.452158447265625,-0.14540691673755646,-0.25943806767463684,0.12676860392093658
1739550875694228700,6.462228759765625,-0.1763361394405365,-0.26415616273880005,0.06060873344540596
1739550875704297500,6.47229736328125,-0.19484883546829224,-0.23420409858226776,0.03354968503117561
1739550875714367700,6.48236767578125,-0.20304915308952332,-0.18246203660964966,0.04570416361093521
1739550875724436500,6.4924365234375,-0.20506170392036438,-0.11620419472455978,0.09355664253234863
1739550875734506500,6.502506591796875,-0.19957725703716278,-0.05195600911974907,0.14599139988422394
1739550875744575500,6.512575439453125,-0.17936865985393524,0.00845700316131115,0.16760055720806122
1739550875754645500,6.5226455078125,-0.15847909450531006,0.01832588016986847,0.1407598853111267
1739550875764714500,6.532714599609375,-0.14085721969604492,0.02880248799920082,0.07430043071508408
1739550875774784500,6.542784423828125,-0.13553613424301147,0.027341127395629883,-0.020218107849359512
1739550875784853500,6.552853515625,-0.13561096787452698,0.018403295427560806,-0.1283443123102188
1739550875794922500,6.562922607421875,-0.13215668499469757,0.00894741341471672,-0.21318836510181427
1739550875804992800,6.57299267578125,-0.13367921113967896,-0.00206901878118515,-0.26181021332740784
1739550875815061500,6.5830615234375,-0.1322292685508728,0.0063715423457324505,-0.2675047218799591
1739550875825131800,6.5931318359375,-0.13155068457126617,0.027997206896543503,-0.2382911741733551
1739550875835200500,6.603200439453125,-0.12280519306659698,0.08209063857793808,-0.1737123727798462
1739550875845270500,6.6132705078125,-0.11170487105846405,0.14816926419734955,-0.10096067190170288
1739550875855339500,6.623339599609375,-0.09864319115877151,0.19167673587799072,-0.037686727941036224
1739550875865409500,6.633409423828125,-0.09477920830249786,0.20790603756904602,-0.003095729276537895
1739550875875478500,6.643478515625,-0.09747539460659027,0.18295104801654816,-0.008212019689381123
1739550875885548500,6.653548583984375,-0.11072196066379547,0.13164472579956055,-0.045457661151885986
1739550875895617500,6.663617431640625,-0.1210448294878006,0.06405890733003616,-0.09335962682962418
1739550875905687600,6.6736875,-0.12964071333408356,0.005260041449218988,-0.14717678725719452
1739550875915756500,6.683756591796875,-0.1381760835647583,-0.028955556452274323,-0.18134336173534393
1739550875925826600,6.69382666015625,-0.15206685662269592,-0.05174529179930687,-0.18781137466430664
1739550875935895800,6.703895751953125,-0.16009345650672913,-0.07305222004652023,-0.17746958136558533
1739550875945965600,6.713965576171875,-0.15450161695480347,-0.09831389784812927,-0.15055514872074127
1739550875956034600,6.72403466796875,-0.15514631569385529,-0.0939612090587616,-0.12236808985471725
1739550875966104600,6.7341044921875,-0.15410448610782623,-0.08227498829364777,-0.10654198378324509
1739550875976173600,6.744173583984375,-0.1450035274028778,-0.06910666078329086,-0.11165714263916016
1739550875986243600,6.75424365234375,-0.13607582449913025,-0.062210407108068466,-0.11852304637432098
1739550875996312600,6.7643125,-0.12338651716709137,-0.05202693119645119,-0.12438274174928665
1739550876006382600,6.774382568359375,-0.11299033463001251,-0.039018187671899796,-0.12039119750261307
1739550876016451600,6.78445166015625,-0.10227307677268982,-0.02907945215702057,-0.1087532714009285
1739550876026521600,6.794521484375,-0.09263510257005692,-0.03041769191622734,-0.08199995756149292
1739550876036590600,6.804590576171875,-0.08419762551784515,-0.031721554696559906,-0.05366934463381767
1739550876046660600,6.81466064453125,-0.0860181599855423,-0.018117330968379974,-0.029844176024198532
1739550876056729600,6.8247294921875,-0.09482590854167938,-0.024101657792925835,-0.012283969670534134
1739550876066798300,6.83479833984375,-0.10660853236913681,-0.02407795563340187,-0.0001721791923046112
1739550876076868600,6.84486865234375,-0.11090963333845139,-0.02723970077931881,0.006012142635881901
1739550876086937600,6.8549375,-0.12189463526010513,-0.030899416655302048,0.004270701669156551
1739550876097007600,6.865007568359375,-0.13566236197948456,-0.04451722651720047,0.005356323905289173
1739550876107076600,6.87507666015625,-0.15420623123645782,-0.06303578615188599,-0.00009942706674337387
1739550876117146400,6.885146484375,-0.17288507521152496,-0.0848662257194519,-0.0026783812791109085
1739550876127215600,6.895215576171875,-0.1889849454164505,-0.09341710060834885,0.011870467104017735
1739550876137285400,6.905285400390625,-0.20151875913143158,-0.09832073748111725,0.05878158658742905
1739550876147354600,6.915354736328125,-0.21332375705242157,-0.10749053955078125,0.12733986973762512
1739550876157424400,6.92542431640625,-0.21498358249664307,-0.11525238305330276,0.20400527119636536
1739550876167493600,6.93549365234375,-0.20964740216732025,-0.09259340912103653,0.27531006932258606
1739550876177563600,6.945563720703125,-0.21229609847068787,-0.059296272695064545,0.32940274477005005
1739550876187632600,6.955632568359375,-0.20273108780384064,-0.041071731597185135,0.32515156269073486
1739550876197702700,6.96570263671875,-0.1946731060743332,-0.05380041152238846,0.25732049345970154
1739550876207771600,6.975771728515625,-0.202119842171669,-0.07859683781862259,0.10309525579214096
1739550876217841700,6.985841552734375,-0.21592025458812714,-0.11620528250932693,-0.10868185013532639
1739550876227907300,6.9959072265625,-0.23981919884681702,-0.16613981127738953,-0.34620171785354614
1739550876237977300,7.005977294921875,-0.2602398693561554,-0.1493222564458847,-0.5568965673446655
1739550876248046300,7.01604638671875,-0.2532202899456024,-0.11765967309474945,-0.6696282029151917
1739550876258116400,7.026116455078125,-0.22929714620113373,-0.06935155391693115,-0.6501517295837402
1739550876268185300,7.036185302734375,-0.23489244282245636,-0.010531643405556679,-0.4833798408508301
1739550876278255400,7.04625537109375,-0.27469372749328613,0.034096237272024155,-0.18655209243297577
1739550876288324400,7.056324462890625,-0.3218820095062256,0.05728118121623993,0.1551240086555481
1739550876298394400,7.066394287109375,-0.3164151608943939,0.08834771811962128,0.45058098435401917
1739550876308463400,7.07646337890625,-0.2927069067955017,0.09256856143474579,0.6646842360496521
1739550876318533400,7.086533447265625,-0.30743980407714844,0.08461394160985947,0.7913294434547424
1739550876328602400,7.096602294921875,-0.33465516567230225,0.05057555064558983,0.8478215336799622
1739550876338672400,7.10667236328125,-0.3431728780269623,0.03454778715968132,0.8538530468940735
1739550876348741400,7.116741455078125,-0.3163239657878876,0.0023381845094263554,0.8285056352615356
1739550876358810400,7.126810302734375,-0.2834673225879669,-0.045451074838638306,0.7620686292648315
1739550876368880400,7.13688037109375,-0.2482246309518814,-0.07876162230968475,0.6631300449371338
1739550876378949400,7.146949462890625,-0.18944764137268066,-0.07966058701276779,0.559964656829834
1739550876389019100,7.15701904296875,-0.18137240409851074,-0.023093977943062782,0.4314327836036682
1739550876399088400,7.16708837890625,-0.18279685080051422,0.018529118970036507,0.2956593632698059
1739550876409158400,7.177158447265625,-0.1828272044658661,0.005197866819798946,0.1939428597688675
1739550876419227400,7.187227294921875,-0.16386684775352478,-0.02929580584168434,0.14091572165489197
1739550876429297400,7.19729736328125,-0.15252791345119476,-0.07456208765506744,0.13143512606620789
1739550876439366400,7.207366455078125,-0.1523885875940323,-0.14449971914291382,0.12778374552726746
1739550876449436400,7.2174365234375,-0.1529630422592163,-0.21228861808776855,0.11317098885774612
1739550876459505400,7.22750537109375,-0.1661594808101654,-0.2542150318622589,0.08412379026412964
1739550876469575400,7.237575439453125,-0.17128607630729675,-0.20040851831436157,0.03823380172252655
1739550876479644400,7.24764453125,-0.17021815478801727,-0.08531109988689423,-0.010277156718075275
1739550876489714400,7.25771435546875,-0.16292163729667664,0.07597047090530396,-0.037445660680532455
1739550876499783200,7.267783203125,-0.16649165749549866,0.20789825916290283,0.0007610395550727844
1739550876509853400,7.277853515625,-0.15856342017650604,0.28610169887542725,0.08417017757892609
1739550876519922200,7.287922119140625,-0.1355365663766861,0.32068929076194763,0.16596125066280365
1739550876529992400,7.297992431640625,-0.11701002717018127,0.3043454587459564,0.23865382373332977
1739550876540061400,7.3080615234375,-0.10551080852746964,0.25412672758102417,0.2788945436477661
1739550876550131200,7.318131103515625,-0.08613045513629913,0.20882557332515717,0.2585780918598175
1739550876560200400,7.328200439453125,-0.054281290620565414,0.1875573992729187,0.1783667951822281
1739550876570270200,7.338270263671875,-0.021527070552110672,0.1684393584728241,0.07239508628845215
1739550876580339500,7.34833935546875,-0.00016125012189149857,0.14649122953414917,-0.04320186376571655
1739550876590409200,7.3584091796875,0.02458271197974682,0.12309854477643967,-0.14418013393878937
1739550876600478500,7.368478515625,0.04929784685373306,0.10374931246042252,-0.20294636487960815
1739550876610547200,7.378547119140625,0.07403914630413055,0.10076523572206497,-0.21667149662971497
1739550876620617500,7.388617431640625,0.10615107417106628,0.11807584762573242,-0.1973961740732193
1739550876630686200,7.398686279296875,0.12890325486660004,0.1320268213748932,-0.158399760723114
1739550876640756500,7.408756591796875,0.1374964714050293,0.1395825743675232,-0.12179284542798996
1739550876650825200,7.4188251953125,0.134792298078537,0.14350435137748718,-0.09524165838956833
1739550876660895200,7.428895263671875,0.13093416392803192,0.12370093911886215,-0.09236440062522888
1739550876670964200,7.438964111328125,0.13246360421180725,0.08138357102870941,-0.12069084495306015
1739550876681034200,7.4490341796875,0.12205571681261063,0.05285114049911499,-0.1679106503725052
1739550876691103500,7.459103515625,0.10285431891679764,0.03435308858752251,-0.21539853513240814
1739550876701173200,7.46917333984375,0.08476455509662628,0.007101105060428381,-0.24907353520393372
1739550876711242500,7.479242431640625,0.0751606673002243,-0.0065665035508573055,-0.2584928572177887
1739550876721312300,7.489312255859375,0.09462372958660126,-0.016665538772940636,-0.24394705891609192
1739550876731381500,7.499381591796875,0.11661238223314285,0.0033102999441325665,-0.2094958871603012
1739550876741451300,7.509451171875,0.12890934944152832,0.010630039498209953,-0.16068194806575775
1739550876751520500,7.5195205078125,0.1513930857181549,0.007968209683895111,-0.12639428675174713
1739550876761590300,7.52959033203125,0.1766103208065033,0.027643930166959763,-0.12005669623613358
1739550876771659300,7.5396591796875,0.19776087999343872,0.03886382654309273,-0.12219389528036118
1739550876781729500,7.5497294921875,0.2154747098684311,0.034753669053316116,-0.12567034363746643
1739550876791798300,7.55979833984375,0.21743346750736237,0.021105235442519188,-0.14959697425365448
1739550876801868500,7.56986865234375,0.23108366131782532,-0.009535416029393673,-0.1736145317554474
1739550876811937300,7.579937255859375,0.2413536012172699,-0.02675195410847664,-0.1951400637626648
1739550876822007300,7.59000732421875,0.24218405783176422,-0.028833439573645592,-0.20762045681476593
1739550876832076300,7.600076171875,0.23568034172058105,-0.020175237208604813,-0.21834342181682587
1739550876842145500,7.6101455078125,0.23149284720420837,0.016498785465955734,-0.22626757621765137
1739550876852215300,7.62021533203125,0.23326678574085236,0.04979708790779114,-0.2141541838645935
1739550876862284500,7.630284423828125,0.23167863488197327,0.060980312526226044,-0.17789523303508759
1739550876872354300,7.640354248046875,0.22412803769111633,0.051553525030612946,-0.12399417906999588
1739550876882423300,7.65042333984375,0.2277837097644806,0.034173306077718735,-0.0792524665594101
1739550876892493300,7.660493408203125,0.23117417097091675,0.02270546741783619,-0.05077981576323509
1739550876902562300,7.670562255859375,0.22511392831802368,0.008773814886808395,-0.04948713257908821
1739550876912632600,7.680632568359375,0.22279004752635956,0.009424159303307533,-0.053654711693525314
1739550876922701300,7.690701416015625,0.21952524781227112,0.002683822065591812,-0.054228875786066055
1739550876932771300,7.700771240234375,0.2210453748703003,0.019422588869929314,-0.04907326027750969
1739550876942840300,7.71084033203125,0.224189892411232,0.03939635679125786,-0.02976788952946663
1739550876952910300,7.720910400390625,0.21927635371685028,0.08940839022397995,-0.010719362646341324
1739550876962979300,7.730979248046875,0.2158203423023224,0.14417946338653564,0.00830673985183239
1739550876973049300,7.74104931640625,0.2133481353521347,0.18993204832077026,0.013233854435384274
1739550876983118300,7.751118408203125,0.2121145874261856,0.22930516302585602,0.01605081744492054
1739550876993188400,7.761188232421875,0.19988109171390533,0.24562208354473114,0.01672406494617462
1739550877003257300,7.77125732421875,0.17967890202999115,0.24860389530658722,0.022697830572724342
1739550877013327400,7.781327392578125,0.16661156713962555,0.23839786648750305,0.04400018975138664
1739550877023396400,7.791396240234375,0.1630595624446869,0.21059559285640717,0.08802981674671173
1739550877033466400,7.80146630859375,0.15790608525276184,0.1722242385149002,0.15709437429904938
1739550877043535400,7.811535400390625,0.1611294150352478,0.12406875938177109,0.21746957302093506
1739550877053604400,7.821604248046875,0.1711096167564392,0.10480371862649918,0.2320447862148285
1739550877063674400,7.83167431640625,0.18124237656593323,0.16715747117996216,0.19175651669502258
1739550877073743400,7.841743408203125,0.2089134156703949,0.23599591851234436,0.09310130774974823
1739550877083813400,7.8518134765625,0.2674412131309509,0.2664021849632263,-0.11140631884336472
1739550877093882400,7.86188232421875,0.3244040906429291,0.28427013754844666,-0.4140018820762634
1739550877103952400,7.871952392578125,0.3381101191043854,0.2761114537715912,-0.7212198376655579
1739550877114021400,7.882021484375,0.33347007632255554,0.2025195211172104,-0.9855281710624695
1739550877124091400,7.89209130859375,0.33857667446136475,0.08747547119855881,-1.1220452785491943
1739550877134160400,7.902160400390625,0.33931490778923035,-0.07319383323192596,-1.0990173816680908
1739550877144230400,7.91223046875,0.3157309591770172,-0.18358242511749268,-0.8982279300689697
1739550877154299100,7.922299072265625,0.2971237003803253,-0.21371182799339294,-0.5754269957542419
1739550877164369400,7.932369384765625,0.2907833456993103,-0.16220320761203766,-0.22412993013858795
1739550877174438100,7.942438232421875,0.28290918469429016,-0.06293147057294846,0.08178791403770447
1739550877184508400,7.95250830078125,0.24043665826320648,0.029191330075263977,0.30366867780685425
1739550877194577400,7.962577392578125,0.161218523979187,0.06724949926137924,0.4485313296318054
1739550877204647400,7.9726474609375,0.07017271965742111,0.05021002143621445,0.5289743542671204
1739550877214716400,7.98271630859375,-0.01252162829041481,-0.006102520041167736,0.5543585419654846
1739550877224785000,7.992784912109375,-0.0939205139875412,-0.13024304807186127,0.5437678098678589
1739550877234855000,8.00285498046875,-0.17175166308879852,-0.2800722122192383,0.4903597831726074
1739550877244924000,8.012923828125,-0.22478051483631134,-0.39860233664512634,0.3921875059604645
1739550877254994000,8.022993896484374,-0.2587350308895111,-0.4441447854042053,0.2875146269798279
1739550877265063000,8.03306298828125,-0.2648780047893524,-0.4230363965034485,0.19549903273582458
1739550877275133000,8.0431328125,-0.24578449130058289,-0.3769131004810333,0.11131651699542999
1739550877285201700,8.05320166015625,-0.22830533981323242,-0.3108045160770416,0.03758639469742775
1739550877295272000,8.06327197265625,-0.17916975915431976,-0.21536853909492493,-0.029789984226226807
1739550877305340700,8.073340576171875,-0.10603751242160797,-0.10990802943706512,-0.09263554960489273
1739550877315411000,8.083410888671875,-0.018078358843922615,0.00023738062009215355,-0.13417448103427887
1739550877325479700,8.093479736328124,0.07266055047512054,0.1032596156001091,-0.15104974806308746
1739550877335550000,8.103550048828126,0.14301009476184845,0.1746176779270172,-0.1401723474264145
1739550877345619000,8.113618896484375,0.19427962601184845,0.2280300110578537,-0.09748512506484985
1739550877355688700,8.123688720703125,0.22149527072906494,0.26672470569610596,-0.02339465171098709
1739550877365758000,8.133758056640625,0.23414123058319092,0.28524279594421387,0.06188303604722023
1739550877375827700,8.14382763671875,0.24064546823501587,0.27108731865882874,0.1452130824327469
1739550877385897000,8.15389697265625,0.2302294820547104,0.23792651295661926,0.21477220952510834
1739550877395965700,8.163965576171876,0.19086049497127533,0.1801566779613495,0.23692357540130615
1739550877406036000,8.174035888671876,0.13864220678806305,0.07775650918483734,0.21796222031116486
1739550877416104700,8.184104736328125,0.08118317276239395,-0.043645817786455154,0.16590487957000732
1739550877426175000,8.194175048828125,0.024324944242835045,-0.14698433876037598,0.1057438924908638
1739550877436243700,8.20424365234375,-0.020067553967237473,-0.22486582398414612,0.048622552305459976
1739550877446314000,8.21431396484375,-0.057216253131628036,-0.2753620147705078,0.003240687772631645
1739550877456382700,8.2243828125,-0.08612864464521408,-0.29940065741539,-0.03668098896741867
1739550877466452700,8.23445263671875,-0.09936723858118057,-0.29706308245658875,-0.05164612457156181
1739550877476522000,8.24452197265625,-0.09409631043672562,-0.27326613664627075,-0.04577837884426117
1739550877486591700,8.254591796875,-0.08204943686723709,-0.216263547539711,-0.041413333266973495
1739550877496661000,8.264660888671875,-0.06209329888224602,-0.1665889322757721,-0.046285584568977356
1739550877506730800,8.274730712890625,-0.03346513584256172,-0.1354261040687561,-0.056954238563776016
1739550877516800000,8.284800048828124,-0.0030190786346793175,-0.12109988182783127,-0.06405742466449738
1739550877526869800,8.294869873046874,0.028404846787452698,-0.11303478479385376,-0.0735754519701004
1739550877536939000,8.30493896484375,0.0564681701362133,-0.1249212771654129,-0.09593162685632706
1739550877547007700,8.3150078125,0.07806718349456787,-0.13048610091209412,-0.12313717603683472
1739550877557077800,8.325077880859375,0.08355303108692169,-0.1357562243938446,-0.14190341532230377
1739550877567146800,8.335146728515625,0.09262152016162872,-0.11429426074028015,-0.16074271500110626
1739550877577216800,8.345216796875,0.08818362653255463,-0.0703265368938446,-0.16252756118774414
1739550877587285800,8.35528564453125,0.07740218937397003,-0.02824840508401394,-0.12855948507785797
1739550877597355800,8.365355712890626,0.06450316309928894,0.01705782487988472,-0.0720360204577446
1739550877607425000,8.375425048828125,0.03979667276144028,0.05680999159812927,-0.012027229182422161
1739550877617494800,8.385494873046875,0.005239230114966631,0.06720510870218277,0.0433790385723114
1739550877627564000,8.39556396484375,-0.03013688698410988,0.05950310081243515,0.07644374668598175
1739550877637633800,8.4056337890625,-0.05985642969608307,0.054655350744724274,0.09229195863008499
1739550877647703000,8.415703125,-0.08527684211730957,0.05298368260264397,0.08997340500354767
1739550877657772800,8.425772705078124,-0.1058976948261261,0.07168413698673248,0.06322754919528961
1739550877667841800,8.435841796875,-0.11948378384113312,0.07718530297279358,0.028889678418636322
1739550877677911800,8.445911865234375,-0.11574310064315796,0.0841638520359993,-0.011341097764670849
1739550877687980800,8.455980712890625,-0.12190310657024384,0.0893658846616745,-0.04337421804666519
1739550877698049800,8.4660498046875,-0.12071533501148224,0.09092889726161957,-0.07032487541437149
1739550877708119800,8.476119873046875,-0.12562619149684906,0.07727433741092682,-0.07207687199115753
1739550877718188800,8.486188720703124,-0.14511147141456604,0.03725767508149147,-0.0559634193778038
1739550877728258800,8.4962587890625,-0.1560891568660736,0.001063124742358923,-0.03481520712375641
1739550877738327800,8.506327880859375,-0.16654632985591888,-0.020283974707126617,-0.012090450152754784
1739550877748397800,8.516397705078125,-0.17457811534404755,-0.036522045731544495,-0.0019950438290834427
1739550877758467000,8.526467041015625,-0.1847199648618698,-0.04815153777599335,0.013450758531689644
1739550877768536800,8.536536865234375,-0.2001115381717682,-0.03165598213672638,0.007214945740997791
1739550877778605800,8.546605712890624,-0.21604657173156738,-0.00601985864341259,-0.026606932282447815
1739550877788675800,8.55667578125,-0.23169687390327454,0.00970799196511507,-0.05863671004772186
1739550877798744800,8.566744873046876,-0.24045920372009277,-0.002526303753256798,-0.06535053998231888
1739550877808814800,8.57681494140625,-0.24452127516269684,-0.0049149957485497,-0.036026809364557266
1739550877818883800,8.5868837890625,-0.25636032223701477,-0.017979398369789124,0.011648300103843212
1739550877828953900,8.596953857421875,-0.27102187275886536,-0.015713457018136978,0.06708791851997375
1739550877839022800,8.60702294921875,-0.28107210993766785,-0.009204158559441566,0.1258564293384552
1739550877849091800,8.617091796875,-0.27788636088371277,-0.022090233862400055,0.17755477130413055
1739550877859161900,8.627161865234376,-0.2736690044403076,-0.036054253578186035,0.20440982282161713
1739550877869230800,8.63723095703125,-0.2752847969532013,-0.05862550437450409,0.20399561524391174
1739550877879300900,8.64730078125,-0.26786017417907715,-0.08709842711687088,0.1855095475912094
1739550877889369900,8.657369873046875,-0.25318217277526855,-0.10435199737548828,0.13891232013702393
1739550877899439900,8.66743994140625,-0.22287675738334656,-0.13127070665359497,0.06911672651767731
1739550877909508900,8.6775087890625,-0.1957322359085083,-0.1700451374053955,0.011241943575441837
1739550877919579000,8.687578857421874,-0.17162476480007172,-0.21042479574680328,-0.03197796270251274
1739550877929647900,8.69764794921875,-0.14737340807914734,-0.241652712225914,-0.043003760278224945
1739550877939718000,8.7077177734375,-0.12102063000202179,-0.2527945637702942,-0.024933412671089172
1739550877949787000,8.717786865234375,-0.0913788303732872,-0.2412865161895752,0.01183454878628254
1739550877959855900,8.72785595703125,-0.07076330482959747,-0.21367967128753662,0.05077795311808586
1739550877969926000,8.73792578125,-0.06034691259264946,-0.17602935433387756,0.06927481293678284
1739550877979995000,8.747994873046874,-0.06293284147977829,-0.17127880454063416,0.047648876905441284
1739550877990065000,8.75806494140625,-0.08503847569227219,-0.18321740627288818,-0.02199430763721466
1739550878000133600,8.768133544921875,-0.11539078503847122,-0.2328890860080719,-0.14174200594425201
1739550878010204000,8.778203857421875,-0.1571923941373825,-0.30610090494155884,-0.2741871178150177
1739550878020273000,8.78827294921875,-0.1931605190038681,-0.3919907808303833,-0.3599446415901184
1739550878030343000,8.798343017578125,-0.2171093225479126,-0.4563872516155243,-0.37659743428230286
1739550878040412000,8.808411865234374,-0.22496937215328217,-0.4608096778392792,-0.3146669566631317
1739550878050482000,8.81848193359375,-0.21528403460979462,-0.3575837016105652,-0.21294640004634857
1739550878060551000,8.828551025390626,-0.21275056898593903,-0.21255114674568176,-0.09414970874786377
1739550878070620700,8.83862060546875,-0.19816917181015015,-0.06617727130651474,0.03511357307434082
1739550878080690000,8.84868994140625,-0.16558006405830383,0.0615074560046196,0.13976700603961945
1739550878090759000,8.858759033203125,-0.13440176844596863,0.15110743045806885,0.2296070009469986
1739550878100829000,8.868828857421875,-0.11931630223989487,0.22562986612319946,0.2741536796092987
1739550878110897700,8.878897705078124,-0.10052523016929626,0.25491803884506226,0.29485708475112915
1739550878120968000,8.888968017578126,-0.08785204589366913,0.26667720079421997,0.2979505956172943
1739550878131036700,8.89903662109375,-0.07387898117303848,0.2717821002006531,0.2660600244998932
1739550878141107000,8.90910693359375,-0.02813413366675377,0.2714585065841675,0.26923078298568726
1739550878151176000,8.919176025390625,0.009442608803510666,0.30912747979164124,0.2835381031036377
1739550878161245700,8.92924560546875,0.03472080081701279,0.32316848635673523,0.3024342656135559
1739550878171315000,8.93931494140625,0.06128731369972229,0.3016614019870758,0.32587897777557373
1739550878181384700,8.949384765625,0.09274190664291382,0.2636336088180542,0.3580835461616516
1739550878191454000,8.959453857421876,0.10396478325128555,0.22395171225070953,0.37316304445266724
1739550878201523000,8.96952294921875,0.10674698650836945,0.14722684025764465,0.3603210151195526
1739550878211593000,8.979593017578125,0.09547939896583557,0.11245328187942505,0.32892388105392456
1739550878221662000,8.989661865234375,0.07165902107954025,0.06111632287502289,0.2764625549316406
1739550878231732200,8.999732177734375,0.03173884004354477,-0.028477435931563377,0.21131537854671478
1739550878241801000,9.009801025390624,-0.021366456523537636,-0.1400497704744339,0.16272786259651184
1739550878251871200,9.019871337890624,-0.07690900564193726,-0.221357524394989,0.12173650413751602
1739550878261940000,9.02993994140625,-0.12778736650943756,-0.2706688642501831,0.0858144611120224
1739550878272010000,9.040010009765625,-0.16816852986812592,-0.27797412872314453,0.07621531933546066
1739550878282079000,9.050078857421875,-0.1852567046880722,-0.23684826493263245,0.09115725010633469
1739550878292149000,9.06014892578125,-0.18868571519851685,-0.12682732939720154,0.11253205686807632
1739550878302218000,9.070218017578124,-0.20654301345348358,0.02411104366183281,0.14356054365634918
1739550878312287000,9.080286865234376,-0.2134881168603897,0.13069002330303192,0.18871356546878815
1739550878322357200,9.090357177734376,-0.19552987813949585,0.18093721568584442,0.24430198967456818
1739550878332426000,9.100426025390625,-0.16780328750610352,0.20443998277187347,0.2867322564125061
1739550878342496300,9.110496337890625,-0.1385790854692459,0.20935404300689697,0.3098485469818115
1739550878352565000,9.12056494140625,-0.11513134092092514,0.18959082663059235,0.30810555815696716
1739550878362635000,9.130635009765625,-0.09669960290193558,0.17091381549835205,0.2889116108417511
1739550878372704000,9.1407041015625,-0.08454331755638123,0.14058348536491394,0.2516534924507141
1739550878382774000,9.15077392578125,-0.056375328451395035,0.14205700159072876,0.1832779049873352
1739550878392843000,9.160843017578125,-0.029745211824774742,0.1549980193376541,0.09593615680932999
1739550878402913000,9.1709130859375,-0.019705360755324364,0.1715969741344452,0.01433450449258089
1739550878412982000,9.18098193359375,-0.012210851535201073,0.19540955126285553,-0.042760394513607025
1739550878423051000,9.191051025390625,-0.0070184869691729546,0.2123674899339676,-0.07053130865097046
1739550878433121000,9.20112109375,-0.015317500568926334,0.20422975718975067,-0.07380273938179016
1739550878443190000,9.21118994140625,-0.032625652849674225,0.17184092104434967,-0.07632714509963989
1739550878453260300,9.22126025390625,-0.047937557101249695,0.15801124274730682,-0.10263404995203018
1739550878463329000,9.2313291015625,-0.07233157753944397,0.16386887431144714,-0.13205772638320923
1739550878473399000,9.24139892578125,-0.09419658035039902,0.1424272656440735,-0.1675884872674942
1739550878483468000,9.251468017578125,-0.11699856072664261,0.10392540693283081,-0.18784023821353912
1739550878493538000,9.2615380859375,-0.13534224033355713,0.08189010620117188,-0.1922302544116974
1739550878503607000,9.27160693359375,-0.14907881617546082,0.06730104237794876,-0.1800878345966339
1739550878513676300,9.28167626953125,-0.15553832054138184,0.06068628281354904,-0.14963290095329285
1739550878523746000,9.29174609375,-0.14309442043304443,0.05743269622325897,-0.10890170931816101
1739550878533815000,9.30181494140625,-0.12840567529201508,0.05264038220047951,-0.06712687760591507
1739550878543885000,9.311885009765625,-0.1079677864909172,0.0455063059926033,-0.0317840650677681
1739550878553954000,9.3219541015625,-0.0901220366358757,0.05384021997451782,-0.01904483139514923
1739550878564024000,9.332024169921874,-0.07183863967657089,0.07436839491128922,-0.012128069065511227
1739550878574093000,9.342093017578126,-0.051246438175439835,0.08683403581380844,-0.00500643253326416
1739550878584163000,9.3521630859375,-0.03016219101846218,0.0866345688700676,-0.004957430064678192
1739550878594232000,9.362232177734375,-0.012956751510500908,0.08830349147319794,-0.005348465405404568
1739550878604302000,9.372302001953125,0.002958033699542284,0.10951557010412216,-0.003033912740647793
1739550878614371000,9.38237109375,0.02301879972219467,0.12121348828077316,0.004736931994557381
1739550878624440000,9.392440185546874,0.035925544798374176,0.12272322922945023,0.014492090791463852
1739550878634510000,9.402510009765624,0.03763391077518463,0.12375571578741074,0.005908488295972347
1739550878644579000,9.4125791015625,0.03347538411617279,0.11710846424102783,-0.01668577268719673
1739550878654649000,9.422649169921876,0.02945876680314541,0.1018003299832344,-0.051124777644872665
1739550878664718000,9.432718017578125,0.02706538699567318,0.07111938297748566,-0.09450127184391022
1739550878674788000,9.4427880859375,0.021302374079823494,0.055030327290296555,-0.1346801221370697
1739550878684857000,9.452857177734375,0.025807110592722893,0.05752384290099144,-0.170500710606575
1739550878694927000,9.462927001953124,0.03215012326836586,0.06577253341674805,-0.18606722354888916
1739550878704996000,9.47299609375,0.03761759400367737,0.07862947136163712,-0.17011967301368713
1739550878715065000,9.483065185546875,0.042258962988853455,0.10107594728469849,-0.12235066294670105
1739550878725135000,9.493135009765625,0.03794863820075989,0.10994294285774231,-0.04633232578635216
1739550878735204000,9.5032041015625,0.03341048210859299,0.11608384549617767,0.021894991397857666
1739550878745274000,9.513274169921875,0.022384727373719215,0.11957178264856339,0.06614900380373001
1739550878755342800,9.5233427734375,0.008128631860017776,0.12026717513799667,0.08526159822940826
1739550878765413000,9.5334130859375,0.00163637800142169,0.10611727088689804,0.087167888879776
1739550878775482000,9.543482177734376,-0.004115215037018061,0.0963839739561081,0.06583764404058456
1739550878785552100,9.55355224609375,0.005597332958132029,0.11715316772460938,0.006200412288308144
1739550878795621000,9.56362109375,0.013207795098423958,0.151950404047966,-0.07104095816612244
1739550878805690000,9.573690185546875,0.029247213155031204,0.15921764075756073,-0.1905931830406189
1739550878815760100,9.583760009765625,0.04651619866490364,0.12632133066654205,-0.3250887095928192
1739550878825829000,9.5938291015625,0.047734327614307404,0.08574619889259338,-0.46782535314559937
1739550878835899100,9.603899169921876,0.03283606469631195,0.015606793574988842,-0.5923670530319214
1739550878845968100,9.613968017578125,0.023967204615473747,-0.07965048402547836,-0.6531540155410767
1739550878856038100,9.6240380859375,0.021030019968748093,-0.14738903939723969,-0.6526654958724976
1739550878866107000,9.63410693359375,0.022369323298335075,-0.20498283207416534,-0.5862616896629333
1739550878876177200,9.64417724609375,0.02938709408044815,-0.22273728251457214,-0.4671265780925751
1739550878886246000,9.654245849609374,0.04167092591524124,-0.2380504608154297,-0.3222256004810333
1739550878896315100,9.664315185546876,0.04312032833695412,-0.23878170549869537,-0.1958332657814026
1739550878906385200,9.67438525390625,0.03147459402680397,-0.22393564879894257,-0.10564345121383667
1739550878916454100,9.6844541015625,0.023203348740935326,-0.1743324100971222,-0.0614757277071476
1739550878926524200,9.694524169921875,0.022762063890695572,-0.13005097210407257,-0.03570671007037163
1739550878936593200,9.70459326171875,0.02981424517929554,-0.09878699481487274,-0.010467206127941608
1739550878946663200,9.7146630859375,0.03584551066160202,-0.07141662389039993,0.004289102740585804
1739550878956732200,9.724732177734374,0.03521755337715149,-0.07356005907058716,0.023960046470165253
1739550878966802200,9.73480224609375,0.041269853711128235,-0.10521253198385239,0.05841149762272835
1739550878976871000,9.744870849609375,0.06006573885679245,-0.12792138755321503,0.07462242245674133
1739550878986940200,9.754940185546875,0.07413442432880402,-0.12193033844232559,0.0758914202451706
1739550878997010000,9.765010009765625,0.09759922325611115,-0.1401977688074112,0.060285940766334534
1739550879007079200,9.7750791015625,0.1344539225101471,-0.18029245734214783,0.012330933474004269
1739550879017149000,9.78514892578125,0.1841161698102951,-0.20172975957393646,-0.0493854284286499
1739550879027218200,9.79521826171875,0.22818750143051147,-0.20191112160682678,-0.13044247031211853
1739550879037288000,9.805287841796876,0.2722061276435852,-0.15095071494579315,-0.2383314073085785
1739550879047357200,9.815357177734375,0.32706353068351746,-0.06883507966995239,-0.3441294729709625
1739550879057427200,9.82542724609375,0.3629875183105469,-0.03659560903906822,-0.4002991318702698
1739550879067496000,9.835495849609375,0.3850520849227905,-0.052310653030872345,-0.41721606254577637
1739550879077565000,9.84556494140625,0.3948875069618225,-0.04155968129634857,-0.37768611311912537
1739550879087635000,9.855635009765624,0.402203768491745,0.0031446749344468117,-0.2928931713104248
1739550879097704200,9.8657041015625,0.3977162539958954,0.029155461117625237,-0.1977727711200714
1739550879107774000,9.87577392578125,0.38630354404449463,0.02623610384762287,-0.11568082123994827
1739550879117843200,9.88584326171875,0.35126447677612305,0.02373453602194786,-0.08521171659231186
1739550879127913000,9.895912841796875,0.3156431019306183,0.023277271538972855,-0.10347167402505875
1739550879137982200,9.905982177734375,0.29150131344795227,-0.031859319657087326,-0.15793053805828094
1739550879148052000,9.916052001953124,0.26460978388786316,-0.10417346656322479,-0.20911116898059845
1739550879158121200,9.926121337890624,0.23773488402366638,-0.17497992515563965,-0.2330896407365799
1739550879168190000,9.93618994140625,0.21277759969234467,-0.23936690390110016,-0.24460062384605408
1739550879178260000,9.946260009765625,0.17557650804519653,-0.29897549748420715,-0.26461026072502136
1739550879188329000,9.956328857421875,0.1359124481678009,-0.37481939792633057,-0.29734742641448975
1739550879198399000,9.96639892578125,0.07601628452539444,-0.42653799057006836,-0.34619295597076416
1739550879208468000,9.976468017578124,0.0332493782043457,-0.44941243529319763,-0.38808581233024597
1739550879218538000,9.9865380859375,0.01603943482041359,-0.40684011578559875,-0.44138360023498535
1739550879228607200,9.996607177734376,0.012123256921768188,-0.37029409408569336,-0.4684807360172272
1739550879238676000,10.006676025390625,0.0003830944187939167,-0.33405718207359314,-0.46562233567237854
1739550879248746200,10.016746337890625,0.0010992186143994331,-0.3002110719680786,-0.46842050552368164
1739550879258815000,10.02681494140625,0.016910094767808914,-0.2478296309709549,-0.4689636826515198
1739550879268885200,10.03688525390625,0.027185633778572083,-0.18863049149513245,-0.44369080662727356
1739550879278954000,10.0469541015625,0.03411463648080826,-0.1295263022184372,-0.4353201687335968
1739550879289024000,10.05702392578125,0.035733841359615326,-0.10323771089315414,-0.45094946026802063
1739550879299093000,10.067093017578125,0.024239184334874153,-0.052466101944446564,-0.48270103335380554
1739550879309163000,10.0771630859375,0.02728184498846531,0.00683210976421833,-0.5245766043663025
1739550879319232300,10.087232177734375,0.042350031435489655,0.03181829676032066,-0.5323652029037476
1739550879329301000,10.097301025390625,0.0277513787150383,0.04515673965215683,-0.5204827785491943
1739550879339371300,10.107371337890624,0.014217202551662922,0.05747945234179497,-0.48515981435775757
1739550879349440000,10.11743994140625,0.015550381503999233,0.053557682782411575,-0.4138512909412384
1739550879359510300,10.12751025390625,0.03609499707818031,0.06076095998287201,-0.3126915693283081
1739550879369579000,10.1375791015625,0.04545281082391739,0.07694259285926819,-0.20022547245025635
1739550879379649300,10.147649169921875,0.03468308970332146,0.09482191503047943,-0.07935976982116699
1739550879389718000,10.157718017578125,0.016569864004850388,0.10632570087909698,0.014051667414605618
1739550879399788000,10.1677880859375,-0.00044037308543920517,0.11171828955411911,0.08641470968723297
1739550879409857000,10.17785693359375,-0.019777851179242134,0.09975776821374893,0.12751340866088867
1739550879419926300,10.18792626953125,-0.03816263750195503,0.06181841343641281,0.12622199952602386
1739550879429996000,10.19799609375,-0.04526928439736366,0.02938670478761196,0.09304088354110718
1739550879440065000,10.20806494140625,-0.056873220950365067,0.017093680799007416,0.04115854576230049
1739550879450135000,10.218135009765625,-0.066111721098423,-0.029128409922122955,-0.01219469029456377
1739550879460204000,10.2282041015625,-0.08283093571662903,-0.08224377036094666,-0.06588903069496155
1739550879470274300,10.2382744140625,-0.09722238779067993,-0.10332082211971283,-0.10078523308038712
1739550879480343000,10.248343017578126,-0.1017560288310051,-0.11562962830066681,-0.11198823153972626
1739550879490412000,10.258412109375,-0.10297416150569916,-0.12465640902519226,-0.11087051033973694
1739550879500482000,10.26848193359375,-0.10129458457231522,-0.11892479658126831,-0.08233630657196045
1739550879510551300,10.27855126953125,-0.09763486683368683,-0.1155063658952713,-0.03737282007932663
1739550879520621000,10.28862109375,-0.09310565143823624,-0.1128513365983963,-0.010699703358113766
1739550879530690300,10.298690185546874,-0.1010890081524849,-0.09653201699256897,-0.0022486941888928413
1739550879540760000,10.308760009765624,-0.11164864897727966,-0.06581468135118484,-0.006260025314986706
1739550879550829000,10.3188291015625,-0.12544114887714386,-0.05283203721046448,-0.025977540761232376
1739550879560898000,10.32889794921875,-0.13296397030353546,-0.06199486926198006,-0.05448058620095253
1739550879570968000,10.338968017578125,-0.13030347228050232,-0.05179363116621971,-0.0719357505440712
1739550879581037000,10.349037109375,-0.13621702790260315,-0.051278576254844666,-0.051309291273355484
1739550879591107000,10.359107177734375,-0.13861626386642456,-0.041170280426740646,-0.0017561232671141624
1739550879601176000,10.369176025390624,-0.13970014452934265,-0.04746691510081291,0.07167931646108627
1739550879611246000,10.37924609375,-0.13305635750293732,-0.06364508718252182,0.12459179759025574
1739550879621315000,10.389315185546875,-0.13365663588047028,-0.051934633404016495,0.14320649206638336
1739550879631385000,10.399385009765625,-0.1262626349925995,-0.03384697809815407,0.13367371261119843
1739550879641454300,10.409454345703125,-0.11743317544460297,-0.00479920394718647,0.09838633984327316
1739550879651523000,10.419523193359375,-0.11700253933668137,-0.0041065155528485775,0.014672267250716686
1739550879661593000,10.429593017578124,-0.1385684311389923,-0.045645371079444885,-0.13216707110404968
1739550879671662000,10.439662109375,-0.1773560345172882,-0.13758887350559235,-0.3107549250125885
1739550879681732000,10.449732177734376,-0.21452713012695312,-0.2280305027961731,-0.5143188834190369
1739550879691801000,10.459801025390625,-0.23104804754257202,-0.30662357807159424,-0.6914569139480591
1739550879701871000,10.46987109375,-0.2481803596019745,-0.3449147641658783,-0.7830830216407776
1739550879711940000,10.479940185546875,-0.2547605037689209,-0.3228062689304352,-0.7387238144874573
1739550879722009000,10.490009033203124,-0.2678772807121277,-0.2480137199163437,-0.5316211581230164
1739550879732079000,10.5000791015625,-0.2784827649593353,-0.1297193020582199,-0.17570434510707855
1739550879742148000,10.510148193359376,-0.261493980884552,0.026656171306967735,0.21607241034507751
1739550879752218000,10.520218017578125,-0.24025313556194305,0.1904136836528778,0.5547393560409546
1739550879762287000,10.530287109375,-0.22823242843151093,0.2840863764286041,0.8015462160110474
1739550879772357000,10.540357177734375,-0.24005180597305298,0.31447941064834595,0.9538718461990356
1739550879782426000,10.550426025390625,-0.25845104455947876,0.3171401917934418,1.0130367279052734
1739550879792495000,10.5604951171875,-0.27389684319496155,0.3008916974067688,0.9922783970832825
1739550879802565000,10.570565185546876,-0.28375500440597534,0.24466748535633087,0.9110701084136963
1739550879812634000,10.580634033203125,-0.2892988920211792,0.15560926496982574,0.772712230682373
1739550879822704000,10.5907041015625,-0.2820890247821808,0.08971434831619263,0.6133994460105896
1739550879832773000,10.600773193359375,-0.27361324429512024,0.009106061421334743,0.44011977314949036
1739550879842843100,10.610843017578125,-0.25833436846733093,-0.08864989131689072,0.25590652227401733
1739550879852912000,10.620912109375,-0.2537212371826172,0.0015021045692265034,0.09407234936952591
1739550879862981000,10.630981201171876,-0.2488420456647873,0.1840377002954483,0.004465476609766483
1739550879873051100,10.641051025390626,-0.24571417272090912,0.32291409373283386,-0.02254323661327362
1739550879883120000,10.6511201171875,-0.26303866505622864,0.36191830039024353,-0.00544355995953083
1739550879893190100,10.661190185546875,-0.2886710464954376,0.20409618318080902,0.021854374557733536
1739550879903259100,10.671259033203125,-0.30690962076187134,-0.0084330840036273,0.01799835078418255
1739550879913329200,10.6813291015625,-0.33683663606643677,-0.17881307005882263,-0.02207343652844429
1739550879923398100,10.691398193359374,-0.3661108613014221,-0.24941493570804596,-0.07292192429304123
1739550879933467100,10.701467041015626,-0.383712500333786,-0.21566042304039001,-0.11247599869966507
1739550879943537000,10.711536865234375,-0.3755713105201721,-0.0972941666841507,-0.11040304601192474
1739550879953606100,10.721606201171875,-0.35772043466567993,0.09436395019292831,-0.08283639699220657
1739550879963676200,10.73167626953125,-0.3184724748134613,0.2806183397769928,-0.04171838238835335
1739550879973745200,10.7417451171875,-0.27299875020980835,0.40411362051963806,-0.001755785197019577
1739550879983815200,10.751815185546874,-0.2382085919380188,0.45582592487335205,0.026437509804964066
1739550879993884200,10.76188427734375,-0.20422986149787903,0.4331645667552948,0.03707817196846008
1739550880003954200,10.7719541015625,-0.16359396278858185,0.3595253825187683,0.017111577093601227
1739550880014023200,10.782023193359375,-0.13168662786483765,0.25279679894447327,-0.017659984529018402
1739550880024092200,10.792092041015625,-0.10112578421831131,0.1486315280199051,-0.06752421706914902
1739550880034162000,10.802161865234375,-0.06715879589319229,0.08571458607912064,-0.12382964044809341
1739550880044231200,10.812231201171874,-0.03615999594330788,0.052439134567976,-0.17131204903125763
1739550880054301000,10.822301025390624,-0.003175147343426943,0.06993929296731949,-0.1977039873600006
1739550880064370200,10.8323701171875,0.02702477015554905,0.08547095209360123,-0.20560310781002045
1739550880074440000,10.84243994140625,0.04020822048187256,0.06815454363822937,-0.19361062347888947
1739550880084509200,10.85250927734375,0.04576743766665459,0.027348864823579788,-0.1834740787744522
1739550880094578000,10.862577880859375,0.0454808808863163,-0.0010601375252008438,-0.19631557166576385
1739550880104648200,10.872648193359375,0.028964567929506302,-0.012118345126509666,-0.2179674208164215
1739550880114717000,10.882717041015624,0.014432497322559357,-0.013862714171409607,-0.23714511096477509
1739550880124787200,10.892787109375,0.00856119953095913,-0.015900611877441406,-0.2413705736398697
1739550880134856200,10.902856201171875,0.01325741596519947,-0.011401734314858913,-0.2297501415014267
1739550880144925200,10.91292529296875,0.012437526136636734,-0.003957350738346577,-0.19144415855407715
1739550880154995200,10.9229951171875,0.009788746945559978,-0.00023318640887737274,-0.15074174106121063
1739550880165064200,10.933064208984375,0.014603756368160248,0.006306877359747887,-0.12506194412708282
1739550880175134200,10.94313427734375,0.019212624058127403,0.0024910997599363327,-0.10794954001903534
1739550880185203200,10.953203125,0.022833390161395073,-0.03197809308767319,-0.10283917933702469
1739550880195273200,10.963273193359376,0.02613384649157524,-0.07702279835939407,-0.10916445404291153
1739550880205342000,10.973342041015625,0.02836770936846733,-0.1116633340716362,-0.09732477366924286
1739550880215412200,10.983412109375,0.03251238912343979,-0.13498489558696747,-0.06444112956523895
1739550880225482000,10.99348193359375,0.044971778988838196,-0.1165817603468895,-0.017977364361286163
1739550880235551200,11.00355126953125,0.04956705868244171,-0.07279619574546814,0.01910076104104519
1739550880245621000,11.01362109375,0.05183499678969383,-0.009238935075700283,0.058774687349796295
1739550880255690000,11.02368994140625,0.05277056619524956,0.06623131781816483,0.09586825966835022
1739550880265760300,11.03376025390625,0.06859621405601501,0.13095922768115997,0.11726240068674088
1739550880275829000,11.0438291015625,0.08749718964099884,0.17221957445144653,0.11796680837869644
1739550880285898000,11.05389794921875,0.09982141852378845,0.19485507905483246,0.1037607491016388
1739550880295968000,11.063968017578125,0.1130829006433487,0.22023765742778778,0.08637669682502747
1739550880306037000,11.074037109375,0.11504138261079788,0.23137672245502472,0.07421272248029709
1739550880316107000,11.08410693359375,0.12087024003267288,0.21731284260749817,0.06566610187292099
1739550880326176300,11.09417626953125,0.1189199835062027,0.18342183530330658,0.06724952161312103
1739550880336246000,11.10424609375,0.12253868579864502,0.13617123663425446,0.06909163296222687
1739550880346315300,11.114315185546875,0.123648501932621,0.11054554581642151,0.07801297307014465
1739550880356384000,11.124384033203125,0.1326739490032196,0.1051073670387268,0.09259990602731705
1739550880366454000,11.1344541015625,0.15093576908111572,0.10066080838441849,0.11527768522500992
1739550880376523000,11.14452294921875,0.1673717349767685,0.11331881582736969,0.14151595532894135
1739550880386593000,11.154593017578126,0.17668205499649048,0.1324131041765213,0.1816319227218628
1739550880396662000,11.164662109375,0.18927641212940216,0.14659017324447632,0.23687653243541718
1739550880406732000,11.17473193359375,0.20706099271774292,0.14261206984519958,0.2924586236476898
1739550880416801000,11.184801025390625,0.2305263727903366,0.13451606035232544,0.3431159257888794
1739550880426870000,11.1948701171875,0.26424357295036316,0.15253594517707825,0.39035770297050476
1739550880436940000,11.20493994140625,0.29436951875686646,0.15360628068447113,0.4203856587409973
1739550880447009000,11.215009033203126,0.30953875184059143,0.1483931988477707,0.3926181197166443
1739550880457079300,11.225079345703126,0.3187487721443176,0.0850701555609703,0.30610451102256775
1739550880467148000,11.23514794921875,0.33659371733665466,0.03906359523534775,0.1495867371559143
1739550880477218000,11.245218017578125,0.3468615412712097,0.013198175467550755,-0.04378219321370125
1739550880487287000,11.255287109375,0.3347676396369934,-0.045201852917671204,-0.1986197829246521
1739550880497356300,11.265356201171874,0.33730003237724304,-0.06060371175408363,-0.29734131693840027
1739550880507426000,11.275426025390624,0.34028616547584534,-0.055853471159935,-0.3290398120880127
1739550880517495000,11.2854951171875,0.32804733514785767,-0.04546048492193222,-0.30874332785606384
1739550880527565000,11.29556494140625,0.310496062040329,-0.05015338212251663,-0.2571578919887543
1739550880537634000,11.305634033203125,0.29107388854026794,-0.09202013164758682,-0.15404455363750458
1739550880547704000,11.3157041015625,0.25992709398269653,-0.12873050570487976,0.0019096946343779564
1739550880557773000,11.32577294921875,0.2161092907190323,-0.12016258388757706,0.18076865375041962
1739550880567842000,11.335842041015624,0.18325941264629364,-0.10259174555540085,0.34691348671913147
1739550880577912000,11.345912109375,0.16090376675128937,-0.07660514861345291,0.5202943682670593
1739550880587981000,11.35598095703125,0.12487103044986725,-0.054585956037044525,0.6856995224952698
1739550880598051000,11.366051025390625,0.0946609303355217,-0.029926413670182228,0.8083149194717407
1739550880608120000,11.3761201171875,0.06255553662776947,0.00022766133770346642,0.888841986656189
1739550880618190000,11.386190185546875,0.03371589258313179,0.025388941168785095,0.9195272326469421
1739550880628259000,11.396259033203124,0.0017044506967067719,0.029535356909036636,0.8853921890258789
1739550880638328000,11.406328125,-0.022482911124825478,0.013561718165874481,0.7905628681182861
1739550880648398000,11.416398193359376,-0.03571148216724396,0.012612244114279747,0.6333940029144287
1739550880658467000,11.426467041015625,-0.029393665492534637,0.0021862336434423923,0.4554319679737091
1739550880668537000,11.436537109375,-0.003369552083313465,-0.05568786710500717,0.2612610161304474
1739550880678606000,11.446606201171875,0.03622419759631157,-0.13487322628498077,0.08150614798069
1739550880688675000,11.456675048828124,0.07874122262001038,-0.20326964557170868,-0.08624627441167831
1739550880698745000,11.4667451171875,0.13719654083251953,-0.21321015059947968,-0.2157062590122223
1739550880708814000,11.47681396484375,0.21489834785461426,-0.20085583627223969,-0.2896166741847992
1739550880718884000,11.486884033203125,0.2861805260181427,-0.15961332619190216,-0.30537939071655273
1739550880728953000,11.496953125,0.34477710723876953,-0.11062867194414139,-0.26336896419525146
1739550880739022800,11.50702294921875,0.3812277913093567,-0.06093701347708702,-0.1824200302362442
1739550880749092000,11.517092041015625,0.3973076045513153,-0.003350338898599148,-0.0946546196937561
1739550880759161000,11.5271611328125,0.40158170461654663,0.04299984872341156,-0.03678625822067261
1739550880769231000,11.537231201171876,0.3868541419506073,0.07654542475938797,-0.016778413206338882
1739550880779300000,11.547300048828125,0.3537084460258484,0.05824790894985199,-0.034600552171468735
1739550880789370000,11.5573701171875,0.32052868604660034,0.03513248264789581,-0.07080596685409546
1739550880799438800,11.56743896484375,0.26184728741645813,0.02819228358566761,-0.12469609081745148
1739550880809509000,11.577509033203125,0.19585396349430084,-0.002875574631616473,-0.1797126680612564
1739550880819578000,11.587578125,0.14573833346366882,-0.041287679225206375,-0.21340271830558777
1739550880829647000,11.597647216796876,0.11030305922031403,-0.048366647213697433,-0.20930957794189453
1739550880839717000,11.607717041015626,0.07866471260786057,-0.053439702838659286,-0.17774686217308044
1739550880849786000,11.6177861328125,0.056733082979917526,-0.06456583738327026,-0.1370997428894043
1739550880859856100,11.627856201171875,0.042107000946998596,-0.0866229385137558,-0.10921618342399597
1739550880869925000,11.637925048828125,0.030089259147644043,-0.09066426753997803,-0.10453052818775177
1739550880879994000,11.647994140625,0.02712808921933174,-0.08926530927419662,-0.11348060518503189
1739550880890064100,11.658064208984374,0.017881903797388077,-0.09826730191707611,-0.1259392648935318
1739550880900133000,11.668133056640626,0.017330894246697426,-0.11976700276136398,-0.15057003498077393
1739550880910203000,11.678202880859375,0.00992188137024641,-0.11923934519290924,-0.18388141691684723
1739550880920272100,11.688272216796875,0.0018634223379194736,-0.1144736185669899,-0.2142329216003418
1739550880930342000,11.698341796875,0.001954629085958004,-0.11004631221294403,-0.2309425175189972
1739550880940411100,11.7084111328125,0.006318219006061554,-0.10132472962141037,-0.2443792223930359
1739550880950480000,11.71847998046875,0.016405021771788597,-0.07036437094211578,-0.24664105474948883
1739550880960550100,11.728550048828126,0.028375931084156036,-0.02636176533997059,-0.2377684861421585
1739550880970619000,11.738618896484375,0.030147014185786247,0.007224996108561754,-0.21536360681056976
1739550880980689200,11.748689208984375,0.03449010103940964,0.037547748535871506,-0.187459796667099
1739550880990758100,11.758758056640625,0.034868571907281876,0.046138860285282135,-0.16363853216171265
1739550881000828000,11.768827880859375,0.026036996394395828,0.04190230369567871,-0.14873574674129486
1739550881010897200,11.778897216796874,0.011668611317873001,0.03711508587002754,-0.14226002991199493
1739550881020966100,11.788966064453126,-0.015748899430036545,0.020713476464152336,-0.14009806513786316
1739550881031036200,11.7990361328125,-0.0398099459707737,0.007713030092418194,-0.14058279991149902
1739550881041105200,11.809105224609375,-0.058395348489284515,-0.004411010537296534,-0.1308034062385559
1739550881051175200,11.819175048828125,-0.07661819458007812,0.005789611954241991,-0.1063142865896225
1739550881061244000,11.829243896484375,-0.09649869054555893,0.00443086726590991,-0.06878315657377243
1739550881071313200,11.839313232421874,-0.11067455261945724,-0.026406200602650642,-0.040452513843774796
1739550881081383000,11.8493828125,-0.12034688889980316,-0.06895606219768524,-0.033955466002225876
1739550881091452200,11.8594521484375,-0.1322951316833496,-0.08739697188138962,-0.042630892246961594
1739550881101522000,11.86952197265625,-0.13910403847694397,-0.10753632336854935,-0.058153122663497925
1739550881111591200,11.879591064453125,-0.15035751461982727,-0.14042198657989502,-0.0827387124300003
1739550881121660000,11.889659912109375,-0.16209591925144196,-0.16757477819919586,-0.09786813706159592
1739550881131730200,11.899730224609375,-0.15733499825000763,-0.16151076555252075,-0.09961916506290436
1739550881141799000,11.909798828125,-0.1457851231098175,-0.14865568280220032,-0.0895092710852623
1739550881151869200,11.919869140625,-0.1408279985189438,-0.1305396854877472,-0.06836502999067307
1739550881161938000,11.92993798828125,-0.1396476775407791,-0.1063866838812828,-0.04388551414012909
1739550881172008000,11.940008056640625,-0.13074591755867004,-0.07923527806997299,-0.013812103308737278
1739550881182077200,11.9500771484375,-0.11394190043210983,-0.05514565855264664,0.008837815374135971
1739550881192146200,11.960146240234375,-0.10616348683834076,-0.05067814886569977,0.03149445727467537
1739550881202216200,11.97021630859375,-0.11029857397079468,-0.052939172834157944,0.05265752971172333
1739550881212285000,11.980284912109376,-0.11129303276538849,-0.06302338093519211,0.061187487095594406
1739550881222355200,11.990355224609376,-0.10798804461956024,-0.04055003076791763,0.06342907249927521
1739550881232422700,12.000422607421875,-0.11277931183576584,-0.046392057090997696,0.074788399040699
1739550881242492700,12.01049267578125,-0.1248045489192009,-0.0742575153708458,0.09896457940340042
1739550881252562000,12.02056201171875,-0.12379680573940277,-0.08907774090766907,0.1349870264530182
1739550881262630700,12.030630615234376,-0.1125718504190445,-0.10483966022729874,0.169015035033226
1739550881272700700,12.04070068359375,-0.11071863770484924,-0.12811331450939178,0.16456308960914612
1739550881282769700,12.050769775390625,-0.12414469569921494,-0.16104809939861298,0.09540240466594696
1739550881292839700,12.060839599609375,-0.1561528593301773,-0.1827140748500824,-0.02778501808643341
1739550881302908700,12.07090869140625,-0.18742263317108154,-0.24370791018009186,-0.21561244130134583
1739550881312977700,12.080977783203124,-0.2304372936487198,-0.28818246722221375,-0.4080508351325989
1739550881323047700,12.091047607421874,-0.2973793148994446,-0.3367398679256439,-0.5529510378837585
1739550881333116700,12.10111669921875,-0.34828829765319824,-0.3498160243034363,-0.6286119818687439
1739550881343186700,12.111186767578126,-0.377035528421402,-0.31573793292045593,-0.5966351628303528
1739550881353255700,12.121255615234375,-0.40308529138565063,-0.2596700191497803,-0.4372590184211731
1739550881363325700,12.13132568359375,-0.40536123514175415,-0.15474629402160645,-0.15720713138580322
1739550881373394700,12.141394775390625,-0.3883790075778961,-0.003088422818109393,0.17858465015888214
1739550881383463700,12.151463623046874,-0.3399909436702728,0.1181812733411789,0.4660686254501343
1739550881393533700,12.16153369140625,-0.29590219259262085,0.19900988042354584,0.6864591240882874
1739550881403602700,12.171602783203125,-0.28330013155937195,0.28898370265960693,0.8027735352516174
