time,seconds_elapsed,z,y,x
1739550869259868700,0.02786865234375,-36.287445068359375,17.799156188964844,23.9891300201416
1739550869269938700,0.037938720703125,-36.755523681640625,17.867782592773438,23.925785064697266
1739550869280007700,0.048007568359375,-37.149871826171875,17.12389373779297,23.58761215209961
1739550869290076400,0.058076416015625,-37.048248291015625,16.86841583251953,23.531755447387695
1739550869300145700,0.068145751953125,-36.687103271484375,16.6630859375,23.77016830444336
1739550869310215700,0.078215576171875,-36.520599365234375,16.88524627685547,23.571203231811523
1739550869320284700,0.08828466796875,-36.753936767578125,16.71173858642578,23.547868728637695
1739550869330353400,0.098353515625,-36.061004638671875,17.149742126464844,23.66382598876953
1739550869340423700,0.108423583984375,-36.234954833984375,17.450965881347656,23.83086585998535
1739550869350492700,0.11849267578125,-36.181671142578125,17.11396026611328,23.865623474121094
1739550869360561700,0.128561767578125,-36.068756103515625,17.47203826904297,23.860136032104492
1739550869370631700,0.138631591796875,-35.834686279296875,17.299652099609375,23.923009872436523
1739550869380700700,0.14870068359375,-36.147064208984375,17.25914764404297,23.71410369873047
1739550869390769700,0.158769775390625,-36.076507568359375,17.26617431640625,23.513776779174805
1739550869400839700,0.168839599609375,-36.030181884765625,17.486778259277344,23.730588912963867
1739550869410908700,0.17890869140625,-36.342437744140625,17.375465393066406,23.71827507019043
1739550869420977700,0.188977783203125,-36.156097412109375,17.136024475097656,23.63580322265625
1739550869431047700,0.199047607421875,-35.986541748046875,17.23462677001953,23.934232711791992
1739550869441116700,0.20911669921875,-36.029510498046875,17.220733642578125,23.830507278442383
1739550869451185700,0.219185546875,-35.954559326171875,17.28520965576172,23.799436569213867
1739550869461254700,0.229254638671875,-36.164764404296875,17.262100219726562,23.53534507751465
1739550869471324700,0.23932470703125,-35.729095458984375,17.226333618164062,23.773296356201172
1739550869481393700,0.2493935546875,-36.272918701171875,17.460060119628906,23.704404830932617
1739550869491462700,0.259462646484375,-36.309173583984375,17.62945556640625,23.82035255432129
1739550869501532700,0.26953271484375,-36.287384033203125,17.739097595214844,23.67699432373047
1739550869511601700,0.2796015625,-35.957550048828125,17.545249938964844,23.864206314086914
1739550869521670700,0.289670654296875,-36.242279052734375,17.54761505126953,23.901769638061523
1739550869531740700,0.29974072265625,-36.199920654296875,17.893783569335938,24.00822639465332
1739550869541809700,0.3098095703125,-36.345733642578125,17.78582000732422,23.736446380615234
1739550869551878700,0.319878662109375,-36.395599365234375,17.663429260253906,23.793373107910156
1739550869561948400,0.329948486328125,-36.492462158203125,17.68975830078125,23.731252670288086
1739550869572017700,0.340017578125,-36.458892822265625,17.617645263671875,23.851747512817383
1739550869582086700,0.350086669921875,-36.451019287109375,17.450218200683594,23.698341369628906
1739550869592156700,0.36015673828125,-36.324127197265625,17.478843688964844,23.868873596191406
1739550869602225700,0.3702255859375,-36.269500732421875,17.62328338623047,23.585912704467773
1739550869612294700,0.380294677734375,-36.243927001953125,17.50707244873047,23.63736343383789
1739550869622364400,0.390364501953125,-36.438385009765625,17.621185302734375,23.635316848754883
1739550869632433700,0.40043359375,-36.573272705078125,17.43328094482422,23.730697631835938
1739550869642502700,0.410502685546875,-36.215423583984375,17.734542846679688,23.613283157348633
1739550869652571600,0.420571533203125,-36.316436767578125,17.523086547851562,23.577016830444336
1739550869662641400,0.430641357421875,-36.361724853515625,17.74182891845703,23.48371124267578
1739550869672710700,0.440710693359375,-36.247406005859375,17.63390350341797,23.510393142700195
1739550869682779600,0.450779541015625,-35.915374755859375,17.512924194335938,23.69410514831543
1739550869692849700,0.460849609375,-36.196929931640625,17.6815185546875,23.806833267211914
1739550869702918700,0.470918701171875,-36.503204345703125,17.8216552734375,23.634809494018555
1739550869712987600,0.480987548828125,-36.231842041015625,17.691879272460938,23.6657772064209
1739550869723057400,0.491057373046875,-36.685272216796875,17.76690673828125,23.65497398376465
1739550869733126700,0.501126708984375,-36.640106201171875,17.631851196289062,23.592342376708984
1739550869743195600,0.511195556640625,-36.043243408203125,17.614158630371094,23.6643009185791
1739550869753265700,0.521265625,-36.064178466796875,17.334152221679688,23.653757095336914
1739550869763334400,0.53133447265625,-36.568756103515625,17.550216674804688,23.4834041595459
1739550869773403600,0.541403564453125,-36.525848388671875,17.5491943359375,23.504192352294922
1739550869783473400,0.551473388671875,-36.724761962890625,17.48810577392578,23.62763023376465
1739550869793542700,0.561542724609375,-36.439056396484375,17.402557373046875,23.751300811767578
1739550869803611400,0.571611328125,-36.411956787109375,17.463897705078125,23.891794204711914
1739550869813680600,0.5816806640625,-36.756439208984375,17.42823028564453,23.75521469116211
1739550869823750400,0.59175048828125,-36.514251708984375,17.470016479492188,23.50630760192871
1739550869833819600,0.601819580078125,-36.516632080078125,17.5972900390625,23.700420379638672
1739550869843888600,0.611888671875,-36.400115966796875,17.656631469726562,23.783632278442383
1739550869853958700,0.621958740234375,-36.250274658203125,17.619644165039062,23.760944366455078
1739550869864027400,0.63202734375,-36.306976318359375,17.598602294921875,23.811426162719727
1739550869874096600,0.6420966796875,-36.580841064453125,17.55670166015625,23.85401153564453
1739550869884166700,0.652166748046875,-36.510162353515625,17.36389923095703,23.614036560058594
1739550869894235600,0.662235595703125,-36.142730712890625,17.391799926757812,23.35235023498535
1739550869904304400,0.672304443359375,-36.519317626953125,17.54199981689453,23.546831130981445
1739550869914374700,0.682374755859375,-36.075653076171875,17.22228240966797,23.5078125
1739550869924443600,0.692443603515625,-35.970611572265625,17.462661743164062,23.569660186767578
1739550869934512600,0.7025126953125,-36.532318115234375,17.408493041992188,23.61202049255371
1739550869944582700,0.712582763671875,-36.360076904296875,17.632949829101562,23.4671688079834
1739550869954651600,0.722651611328125,-36.196624755859375,17.440673828125,23.51595687866211
1739550869964720600,0.732720703125,-36.335845947265625,17.251853942871094,23.432504653930664
1739550869974790700,0.742790771484375,-36.197662353515625,17.41973114013672,23.477588653564453
1739550869984859600,0.752859619140625,-36.290618896484375,17.660667419433594,23.409379959106445
1739550869994928600,0.7629287109375,-36.327606201171875,17.456802368164062,23.55029296875
1739550870004998700,0.77299853515625,-36.603057861328125,17.400856018066406,23.36756706237793
1739550870015067600,0.783067626953125,-36.307830810546875,17.471206665039062,23.410181045532227
1739550870025136600,0.79313671875,-36.482147216796875,17.448165893554688,23.239315032958984
1739550870035206700,0.80320654296875,-36.702056884765625,17.543357849121094,23.23384666442871
1739550870045275600,0.813275634765625,-36.593170166015625,17.40765380859375,23.122234344482422
1739550870055344600,0.8233447265625,-36.538116455078125,17.29413604736328,23.265735626220703
1739550870065413600,0.83341357421875,-36.284149169921875,17.287567138671875,23.22511100769043
1739550870075483600,0.843483642578125,-36.270538330078125,17.45514678955078,23.485729217529297
1739550870085552600,0.853552734375,-36.686981201171875,17.546119689941406,23.418027877807617
1739550870095621600,0.86362158203125,-36.811004638671875,17.580337524414062,23.443090438842773
1739550870105691600,0.873691650390625,-36.785919189453125,17.414634704589844,23.467557907104492
1739550870115760600,0.8837607421875,-36.949127197265625,17.415008544921875,23.420246124267578
1739550870125829600,0.89382958984375,-36.880035400390625,17.37342071533203,23.18543815612793
1739550870135899600,0.903899658203125,-36.731597900390625,17.260604858398438,23.332006454467773
1739550870145968600,0.91396875,-36.299835205078125,17.37512969970703,23.329368591308594
1739550870156037600,0.92403759765625,-36.283172607421875,17.496360778808594,23.614791870117188
1739550870166107600,0.934107666015625,-36.818695068359375,17.547500610351562,23.58887481689453
1739550870176176600,0.9441767578125,-36.670867919921875,17.18335723876953,23.2416934967041
1739550870186245600,0.95424560546875,-36.367462158203125,17.43872833251953,22.98271369934082
1739550870196315600,0.964315673828125,-36.594940185546875,17.48431396484375,23.054777145385742
1739550870206384600,0.974384521484375,-36.838165283203125,17.430252075195312,22.950822830200195
1739550870216454100,0.9844541015625,-36.902679443359375,17.479164123535156,23.2219181060791
1739550870226524200,0.994524169921875,-37.047821044921875,17.586875915527344,23.131654739379883
1739550870236593000,1.004593017578125,-36.507843017578125,17.6815185546875,23.353713989257812
1739550870246662100,1.014662109375,-36.483795166015625,17.71246337890625,23.3103084564209
1739550870256732000,1.02473193359375,-36.763641357421875,17.51561737060547,23.2030086517334
1739550870266801200,1.03480126953125,-36.836334228515625,17.439064025878906,23.176977157592773
1739550870276870000,1.044869873046875,-36.532501220703125,17.54723358154297,23.119998931884766
1739550870286940200,1.054940185546875,-36.454498291015625,17.525894165039062,22.98101043701172
1739550870297009000,1.0650087890625,-36.843902587890625,17.565261840820312,23.211963653564453
1739550870307078100,1.075078125,-36.890167236328125,17.608436584472656,23.105003356933594
1739550870317148000,1.08514794921875,-36.852203369140625,17.60296630859375,23.229589462280273
1739550870327217200,1.095217041015625,-36.777130126953125,17.3677978515625,23.19102668762207
1739550870337286000,1.105285888671875,-37.198577880859375,17.590248107910156,22.92656135559082
1739550870347356200,1.115356201171875,-36.775238037109375,17.508834838867188,22.997249603271484
1739550870357425000,1.1254248046875,-36.582611083984375,17.518760681152344,22.98764419555664
1739550870367494100,1.135494140625,-36.982330322265625,17.5284423828125,23.132080078125
1739550870377564000,1.14556396484375,-36.711944580078125,17.56108856201172,23.10706901550293
1739550870387633200,1.155633056640625,-36.581512451171875,17.61316680908203,23.15133285522461
1739550870397702000,1.165701904296875,-36.721343994140625,17.385833740234375,23.199953079223633
1739550870407772200,1.175772216796875,-36.651580810546875,17.74504852294922,23.116561889648438
1739550870417841000,1.1858408203125,-36.518341064453125,17.877273559570312,23.283411026000977
1739550870427910100,1.19591015625,-36.442840576171875,17.716506958007812,23.42107391357422
1739550870437980200,1.205980224609375,-36.331024169921875,17.575424194335938,23.459304809570312
1739550870448049200,1.216049072265625,-36.388641357421875,17.62957000732422,23.53278923034668
1739550870458118000,1.226117919921875,-36.205230712890625,17.61083984375,23.36288070678711
1739550870468188200,1.236188232421875,-35.974151611328125,17.62993621826172,23.226255416870117
1739550870478257200,1.246257080078125,-36.328033447265625,17.68463897705078,23.19626808166504
1739550870488327000,1.256326904296875,-36.163421630859375,17.644371032714844,23.14154815673828
1739550870498396200,1.266396240234375,-36.339691162109375,17.67962646484375,23.268798828125
1739550870508465200,1.276465087890625,-36.052886962890625,17.923736572265625,23.155651092529297
1739550870518535200,1.28653515625,-36.242340087890625,18.01422119140625,23.125009536743164
1739550870528604000,1.29660400390625,-36.782012939453125,17.857460021972656,22.968399047851562
1739550870538673200,1.306673095703125,-36.705657958984375,17.464035034179688,23.20993423461914
1739550870548743000,1.316742919921875,-36.733306884765625,17.756996154785156,23.103431701660156
1739550870558812200,1.326812255859375,-36.644866943359375,17.866989135742188,23.050830841064453
1739550870568881200,1.336881103515625,-36.456329345703125,17.919097900390625,23.101093292236328
1739550870578951200,1.346951171875,-36.881927490234375,17.52104949951172,23.192312240600586
1739550870589020000,1.35702001953125,-36.672637939453125,17.6517333984375,23.26732063293457
1739550870599089200,1.367089111328125,-36.807769775390625,17.556541442871094,23.250364303588867
1739550870609159000,1.377158935546875,-36.349273681640625,17.731040954589844,23.406494140625
1739550870619228200,1.387228271484375,-36.558013916015625,17.585281372070312,23.33568000793457
1739550870629297000,1.397296875,-36.386871337890625,17.4844970703125,23.32889747619629
1739550870639367200,1.4073671875,-36.374664306640625,17.54461669921875,23.115577697753906
1739550870649436000,1.417435791015625,-36.082305908203125,17.66253662109375,22.997087478637695
1739550870659505200,1.427505126953125,-36.329010009765625,17.899612426757812,23.03701400756836
1739550870669575000,1.437574951171875,-36.282012939453125,17.67450714111328,23.111112594604492
1739550870679644200,1.44764404296875,-36.351348876953125,17.774375915527344,22.9179744720459
1739550870689714000,1.4577138671875,-36.983489990234375,17.46843719482422,23.236528396606445
1739550870699783200,1.467783203125,-36.708770751953125,17.59876251220703,23.1851863861084
1739550870709852000,1.477851806640625,-37.037628173828125,17.77989959716797,23.23782730102539
1739550870719922200,1.487922119140625,-37.183746337890625,17.76031494140625,23.242952346801758
1739550870729991000,1.497990966796875,-36.464324951171875,17.652687072753906,23.373950958251953
1739550870740060200,1.50806005859375,-36.892303466796875,17.79932403564453,23.21666717529297
1739550870750130200,1.518130126953125,-36.583404541015625,17.776840209960938,23.134450912475586
1739550870760199200,1.52819921875,-36.525360107421875,17.45758819580078,23.093706130981445
1739550870770268000,1.538267822265625,-36.600311279296875,17.6944580078125,23.15776824951172
1739550870780338200,1.548338134765625,-36.265106201171875,17.78577423095703,23.161001205444336
1739550870790407200,1.5584072265625,-36.254364013671875,17.68895721435547,23.19400405883789
1739550870800476200,1.56847607421875,-36.249603271484375,17.768165588378906,23.220470428466797
1739550870810546200,1.578546142578125,-36.519256591796875,17.464447021484375,23.054885864257812
1739550870820615200,1.588615234375,-36.212982177734375,17.822708129882812,23.168561935424805
1739550870830684000,1.598683837890625,-36.468475341796875,17.892967224121094,23.074148178100586
1739550870840754000,1.60875390625,-36.577484130859375,17.91039276123047,23.04320526123047
1739550870850823200,1.6188232421875,-36.740692138671875,17.709449768066406,23.196741104125977
1739550870860893000,1.628892822265625,-36.625885009765625,17.924484252929688,23.298707962036133
1739550870870962200,1.638962158203125,-36.583038330078125,18.01209259033203,23.269426345825195
1739550870881031000,1.649031005859375,-36.397979736328125,17.998382568359375,23.177814483642578
1739550870891101200,1.65910107421875,-36.580108642578125,17.812698364257812,23.167165756225586
1739550870901170000,1.669169921875,-36.491668701171875,17.70782470703125,23.24586296081543
1739550870911239200,1.6792392578125,-36.848236083984375,17.78955078125,23.25745391845703
1739550870921309000,1.689308837890625,-36.821868896484375,17.920982360839844,23.439382553100586
1739550870931378200,1.699378173828125,-36.748748779296875,18.02568817138672,23.608518600463867
1739550870941448000,1.709447998046875,-36.770660400390625,17.788978576660156,23.138965606689453
1739550870951517200,1.71951708984375,-36.419830322265625,17.564117431640625,23.064556121826172
1739550870961586000,1.7295859375,-36.415496826171875,17.818092346191406,23.031185150146484
1739550870971656200,1.73965625,-36.389373779296875,17.86945343017578,23.2735538482666
1739550870981725000,1.749724853515625,-36.740386962890625,17.668861389160156,23.113187789916992
1739550870991794200,1.759794189453125,-36.742950439453125,17.515625,23.181171417236328
1739550871001864000,1.769864013671875,-36.819488525390625,17.668922424316406,23.208576202392578
1739550871011933200,1.77993310546875,-36.746551513671875,17.647010803222656,23.344846725463867
1739550871022003200,1.790003173828125,-36.837432861328125,17.402626037597656,23.218339920043945
1739550871032072200,1.800072265625,-37.040802001953125,17.42388916015625,23.2231388092041
1739550871042141000,1.810140869140625,-36.849517822265625,17.615097045898438,23.03764533996582
1739550871052211000,1.8202109375,-36.764739990234375,17.94733428955078,23.038612365722656
1739550871062280200,1.8302802734375,-36.948150634765625,17.722267150878906,23.166343688964844
1739550871072349200,1.84034912109375,-36.831451416015625,17.696090698242188,23.16080093383789
1739550871082419200,1.850419189453125,-36.823516845703125,17.706016540527344,23.309831619262695
1739550871092488000,1.860488037109375,-36.667572021484375,17.440536499023438,23.146087646484375
1739550871102558200,1.87055810546875,-36.626007080078125,17.425331115722656,23.044403076171875
1739550871112627000,1.880626953125,-36.962738037109375,17.50426483154297,23.019216537475586
1739550871122696200,1.8906962890625,-36.581878662109375,17.586158752441406,23.232257843017578
1739550871132766000,1.900765869140625,-36.878448486328125,17.592308044433594,23.204832077026367
1739550871142835200,1.910835205078125,-36.615081787109375,17.523941040039062,23.119457244873047
1739550871152904000,1.920904052734375,-36.775299072265625,17.263275146484375,23.0760440826416
1739550871162974200,1.93097412109375,-36.687103271484375,17.57598876953125,23.22759246826172
1739550871173043000,1.94104296875,-36.925140380859375,17.65924072265625,23.326810836791992
1739550871183113200,1.95111328125,-36.535369873046875,17.61286163330078,23.21356773376465
1739550871193182000,1.961181884765625,-36.425872802734375,17.7286376953125,23.17991828918457
1739550871203251200,1.971251220703125,-37.141937255859375,17.679946899414062,23.047109603881836
1739550871213321200,1.9813212890625,-36.987823486328125,17.69524383544922,22.838748931884766
1739550871223390200,1.99139013671875,-36.963775634765625,17.5643310546875,22.734495162963867
1739550871233460200,2.001460205078125,-37.070281982421875,17.34722900390625,22.92160415649414
1739550871243529000,2.011529052734375,-36.891876220703125,17.357376098632812,22.886558532714844
1739550871253598200,2.02159814453125,-36.727325439453125,17.30731201171875,22.96152114868164
1739550871263668200,2.031668212890625,-36.892120361328125,17.275527954101562,22.657363891601562
1739550871273737200,2.0417373046875,-36.653472900390625,17.438026428222656,22.67645263671875
1739550871283806200,2.05180615234375,-36.413055419921875,17.26573944091797,22.851303100585938
1739550871293876200,2.061876220703125,-36.931549072265625,17.459693908691406,22.826946258544922
1739550871303945200,2.0719453125,-36.424407958984375,17.280662536621094,22.8865909576416
1739550871314015200,2.08201513671875,-36.931854248046875,17.415618896484375,22.90259552001953
1739550871324084200,2.092084228515625,-36.697845458984375,17.384689331054688,23.161460876464844
1739550871334153200,2.1021533203125,-36.832305908203125,17.365577697753906,23.06764030456543
1739550871344223200,2.11222314453125,-37.419525146484375,17.69403839111328,23.080913543701172
1739550871354292200,2.122292236328125,-37.438018798828125,17.674179077148438,23.030405044555664
1739550871364362200,2.1323623046875,-37.124664306640625,17.726287841796875,23.268789291381836
1739550871374431200,2.14243115234375,-37.386932373046875,17.75653839111328,23.303178787231445
1739550871384500200,2.152500244140625,-37.331451416015625,17.559165954589844,22.976360321044922
1739550871394570200,2.1625703125,-37.442291259765625,17.743026733398438,22.87296485900879
1739550871404639200,2.17263916015625,-36.953826904296875,17.734901428222656,22.994918823242188
1739550871414709000,2.182708984375,-36.617706298828125,17.736083984375,23.020252227783203
1739550871424778200,2.1927783203125,-37.087982177734375,17.896987915039062,23.02702522277832
1739550871434847200,2.20284716796875,-36.582244873046875,17.745643615722656,23.157337188720703
1739550871444917200,2.212917236328125,-36.584503173828125,17.54120635986328,23.156404495239258
1739550871454986000,2.222986083984375,-36.816009521484375,17.437088012695312,23.056781768798828
1739550871465056300,2.23305615234375,-36.387664794921875,17.596336364746094,23.07588005065918
1739550871475125000,2.243125,-36.733245849609375,17.68768310546875,22.9853515625
1739550871485194200,2.2531943359375,-36.564849853515625,17.593658447265625,23.020793914794922
1739550871495264300,2.26326416015625,-36.465057373046875,17.48285675048828,23.053728103637695
1739550871505333200,2.273333251953125,-36.529876708984375,17.813339233398438,23.06728172302246
1739550871515402000,2.283402099609375,-36.549285888671875,17.758445739746094,23.095273971557617
1739550871525472300,2.29347216796875,-36.476470947265625,17.85742950439453,23.044687271118164
1739550871535541200,2.303541259765625,-36.747589111328125,17.691574096679688,23.124605178833008
1739550871545611300,2.313611328125,-36.317596435546875,17.84461212158203,23.109821319580078
1739550871555680300,2.32368017578125,-36.065887451171875,17.808303833007812,23.149768829345703
1739550871565749200,2.333749267578125,-36.256195068359375,17.652297973632812,23.12891387939453
1739550871575819300,2.3438193359375,-36.412628173828125,17.631271362304688,23.00410270690918
1739550871585888300,2.35388818359375,-36.428131103515625,17.937042236328125,23.143388748168945
1739550871595958300,2.363958251953125,-36.389984130859375,17.778396606445312,23.04635238647461
1739550871606027000,2.374027099609375,-36.650054931640625,17.78215789794922,23.18331527709961
1739550871616096300,2.38409619140625,-36.810150146484375,17.697120666503906,23.149192810058594
1739550871626166000,2.394166015625,-36.590179443359375,17.900169372558594,23.322269439697266
1739550871636235300,2.4042353515625,-36.381988525390625,17.7864990234375,23.06866455078125
1739550871646305000,2.414304931640625,-36.485931396484375,17.996482849121094,23.15925407409668
1739550871656374300,2.424374267578125,-35.996124267578125,17.65589141845703,23.35611343383789
1739550871666443000,2.434443115234375,-36.239715576171875,17.786468505859375,23.187335968017578
1739550871676513300,2.44451318359375,-36.139373779296875,17.75525665283203,23.2642879486084
1739550871686582000,2.45458203125,-36.015777587890625,17.638893127441406,23.193883895874023
1739550871696652300,2.46465234375,-36.162139892578125,17.48279571533203,23.22699546813965
1739550871706721300,2.47472119140625,-36.236419677734375,17.457298278808594,23.312145233154297
1739550871716790300,2.484790283203125,-36.013092041015625,17.93871307373047,23.407867431640625
1739550871726860300,2.4948603515625,-36.476776123046875,17.770179748535156,23.343090057373047
1739550871736929300,2.50492919921875,-35.974212646484375,17.839263916015625,23.162866592407227
1739550871746999300,2.514999267578125,-36.021881103515625,17.924270629882812,23.30099868774414
1739550871757068000,2.525068115234375,-36.371490478515625,18.0469970703125,23.245452880859375
1739550871767138300,2.53513818359375,-36.777984619140625,17.652992248535156,23.152523040771484
1739550871777207000,2.54520703125,-36.603363037109375,17.679595947265625,23.087299346923828
1739550871787276300,2.5552763671875,-36.743804931640625,17.779342651367188,23.11567497253418
1739550871797346000,2.565345947265625,-36.161895751953125,17.754974365234375,23.387786865234375
1739550871807415300,2.575415283203125,-36.717010498046875,17.767662048339844,23.086109161376953
1739550871817485000,2.585485107421875,-36.692779541015625,17.758941650390625,23.03706932067871
1739550871827554300,2.59555419921875,-36.739288330078125,17.86408233642578,23.100778579711914
1739550871837623000,2.605623046875,-36.633636474609375,17.7586669921875,23.04780387878418
1739550871847693300,2.615693359375,-36.901641845703125,17.44806671142578,23.105831146240234
1739550871857762000,2.625761962890625,-36.964630126953125,17.618270874023438,23.082252502441406
1739550871867832000,2.63583203125,-37.052032470703125,17.341590881347656,23.013452529907227
1739550871877901000,2.645901123046875,-36.892608642578125,17.593345642089844,23.021072387695312
1739550871887970300,2.65597021484375,-36.612213134765625,17.827438354492188,23.247161865234375
1739550871898040300,2.666040283203125,-36.736846923828125,17.421714782714844,23.16385841369629
1739550871908109300,2.676109375,-36.871246337890625,17.490089416503906,23.13970184326172
1739550871918179300,2.686179443359375,-37.075836181640625,17.483253479003906,23.16394805908203
1739550871928248000,2.696248046875,-36.956268310546875,17.72570037841797,23.229469299316406
1739550871938317300,2.7063173828125,-37.066192626953125,17.58435821533203,23.175622940063477
1739550871948387000,2.716386962890625,-36.456085205078125,17.528831481933594,23.20719337463379
1739550871958456300,2.726456298828125,-36.877166748046875,17.345497131347656,23.206954956054688
1739550871968526000,2.736526123046875,-37.219024658203125,17.538360595703125,23.241424560546875
1739550871978595300,2.74659521484375,-36.961822509765625,17.47662353515625,22.826515197753906
1739550871988665000,2.7566650390625,-36.708221435546875,17.618873596191406,22.819019317626953
1739550871998734300,2.766734375,-36.704132080078125,17.587432861328125,23.116933822631836
1739550872008803000,2.776802978515625,-36.642547607421875,17.95789337158203,22.92047119140625
1739550872018873000,2.786873046875,-36.944244384765625,17.729652404785156,22.898242950439453
1739550872028942000,2.796942138671875,-36.900726318359375,17.79120635986328,22.678607940673828
1739550872039012000,2.80701220703125,-36.558868408203125,17.69586944580078,22.91080665588379
1739550872049081000,2.8170810546875,-36.742889404296875,17.58074951171875,22.63453483581543
1739550872059150300,2.827150390625,-36.997100830078125,17.701278686523438,22.565608978271484
1739550872069220400,2.837220458984375,-36.798614501953125,17.55291748046875,22.65932273864746
1739550872079289000,2.8472890625,-36.984527587890625,17.64704132080078,22.741939544677734
1739550872089359400,2.857359375,-36.970001220703125,17.679473876953125,22.65045166015625
1739550872099428000,2.867427978515625,-37.080474853515625,17.840133666992188,22.81753921508789
1739550872109498400,2.877498291015625,-36.741180419921875,17.767501831054688,22.70174789428711
1739550872119567000,2.887567138671875,-36.887054443359375,17.452232360839844,22.730161666870117
1739550872129636400,2.89763623046875,-36.662200927734375,17.824966430664062,22.921049118041992
1739550872139706000,2.9077060546875,-36.795928955078125,17.783523559570312,22.933317184448242
1739550872149775400,2.917775390625,-36.938323974609375,17.812850952148438,22.744304656982422
1739550872159845000,2.92784521484375,-37.148040771484375,17.477951049804688,22.601524353027344
1739550872169914400,2.937914306640625,-36.888336181640625,17.322296142578125,22.445755004882812
1739550872179983000,2.947983154296875,-36.976165771484375,17.84697723388672,22.252365112304688
1739550872190053000,2.95805322265625,-37.080291748046875,17.58612060546875,22.609336853027344
1739550872200122000,2.9681220703125,-36.973602294921875,17.49073028564453,22.64640998840332
1739550872210192100,2.978192138671875,-36.660247802734375,17.551475524902344,22.611528396606445
1739550872220261000,2.98826123046875,-36.498870849609375,17.543724060058594,22.347991943359375
1739550872230331100,2.9983310546875,-36.762786865234375,17.435577392578125,22.414281845092773
1739550872240400100,3.008400146484375,-36.762786865234375,17.435577392578125,22.414281845092773
1739550872250468900,3.01846875,-36.866119384765625,17.598602294921875,22.251445770263672
1739550872260539100,3.0285390625,-37.066497802734375,17.592254638671875,22.241840362548828
1739550872270608000,3.03860791015625,-36.849395751953125,17.585861206054688,22.092308044433594
1739550872280678100,3.04867822265625,-37.143829345703125,17.88946533203125,22.1970272064209
1739550872290747100,3.0587470703125,-36.929046630859375,17.763084411621094,22.383399963378906
1739550872300817000,3.06881689453125,-37.097808837890625,17.818328857421875,22.579431533813477
1739550872310886100,3.07888623046875,-36.667083740234375,17.880416870117188,22.691410064697266
1739550872320955100,3.088955078125,-36.860748291015625,18.061607360839844,22.419771194458008
1739550872331025200,3.099025146484375,-36.540618896484375,17.91931915283203,22.430639266967773
1739550872341094100,3.10909423828125,-36.107818603515625,17.83594512939453,22.786766052246094
1739550872351164200,3.1191640625,-36.420562744140625,18.102218627929688,22.516380310058594
1739550872361233000,3.12923291015625,-36.268890380859375,18.181312561035156,22.32404327392578
1739550872371303200,3.13930322265625,-37.032073974609375,18.142822265625,22.24308204650879
1739550872381372000,3.149371826171875,-36.982696533203125,18.155052185058594,22.316667556762695
1739550872391441200,3.159441162109375,-36.959259033203125,18.158111572265625,22.211891174316406
1739550872401511000,3.169510986328125,-36.984832763671875,17.809974670410156,22.152271270751953
1739550872411580200,3.179580078125,-37.240936279296875,17.988525390625,22.259199142456055
1739550872421650200,3.189650146484375,-36.891937255859375,18.175979614257812,22.365989685058594
1739550872431719200,3.19971923828125,-37.155731201171875,18.112716674804688,22.33050537109375
1739550872441789200,3.2097890625,-37.245513916015625,18.037841796875,21.91811752319336
1739550872451858000,3.21985791015625,-37.152557373046875,18.11688232421875,22.00863265991211
1739550872461927200,3.22992724609375,-36.963287353515625,18.297943115234375,22.08231544494629
1739550872471997000,3.239996826171875,-36.650115966796875,18.202728271484375,22.008459091186523
1739550872482066200,3.250066162109375,-36.873199462890625,18.091041564941406,21.865550994873047
1739550872492136000,3.260135986328125,-36.776824951171875,18.130020141601562,22.13964080810547
1739550872502205200,3.270205078125,-36.933929443359375,17.992027282714844,22.15935707092285
1739550872512275000,3.28027490234375,-37.058135986328125,18.016067504882812,21.94424819946289
1739550872522344200,3.29034423828125,-37.253387451171875,18.063766479492188,21.877206802368164
1739550872532413000,3.300412841796875,-36.911651611328125,18.125892639160156,22.11459732055664
1739550872542483200,3.310483154296875,-36.740325927734375,18.06963348388672,21.78529930114746
1739550872552552000,3.320552001953125,-36.712005615234375,18.082130432128906,21.682453155517578
1739550872562622000,3.3306220703125,-36.904327392578125,18.242332458496094,21.87223243713379
1739550872572691000,3.34069091796875,-37.131622314453125,18.059425354003906,21.758052825927734
1739550872582761000,3.350760986328125,-36.845672607421875,18.046478271484375,21.713613510131836
1739550872592830200,3.360830322265625,-36.930877685546875,17.959548950195312,21.64581871032715
1739550872602899200,3.370899169921875,-37.058563232421875,18.10242462158203,21.59804344177246
1739550872612969200,3.38096923828125,-36.861724853515625,17.93085479736328,21.77750587463379
1739550872623038000,3.391037841796875,-37.103851318359375,18.101470947265625,21.662015914916992
1739550872633108200,3.401108154296875,-37.025970458984375,18.18012237548828,21.854692459106445
1739550872643177000,3.411177001953125,-37.274810791015625,18.453407287597656,21.841108322143555
1739550872653247200,3.421247314453125,-37.340240478515625,18.330734252929688,21.736804962158203
1739550872663316000,3.43131591796875,-37.439117431640625,18.08867645263672,21.805438995361328
1739550872673385200,3.44138525390625,-36.941680908203125,18.11827850341797,21.94161033630371
1739550872683455000,3.451455078125,-36.461395263671875,18.242477416992188,21.738500595092773
1739550872693524200,3.461524169921875,-36.533599853515625,18.4306640625,21.84398651123047
1739550872703594000,3.471593994140625,-36.959686279296875,18.406776428222656,21.950889587402344
1739550872713663000,3.4816630859375,-37.215545654296875,18.127281188964844,21.933012008666992
1739550872723733000,3.49173291015625,-37.074920654296875,18.33063507080078,21.79425811767578
1739550872733802000,3.501802001953125,-36.901458740234375,18.315589904785156,21.723831176757812
1739550872743872300,3.511872314453125,-36.964691162109375,18.418014526367188,21.44503402709961
1739550872753941000,3.52194091796875,-36.601409912109375,18.566688537597656,21.823076248168945
1739550872764010000,3.532010009765625,-36.717437744140625,18.313865661621094,21.634553909301758
1739550872774080000,3.542080078125,-36.902008056640625,18.534027099609375,21.753528594970703
1739550872784149200,3.552149169921875,-36.983978271484375,18.577552795410156,21.51935386657715
1739550872794219000,3.562218994140625,-36.832733154296875,18.66722869873047,21.6412353515625
1739550872804288300,3.572288330078125,-36.908782958984375,18.718170166015625,21.395917892456055
1739550872814358000,3.58235791015625,-36.903106689453125,18.58782958984375,21.45414161682129
1739550872824427000,3.592427001953125,-37.286346435546875,18.733505249023438,21.196056365966797
1739550872834496000,3.60249609375,-37.119964599609375,18.86096954345703,21.33334732055664
1739550872844566000,3.61256591796875,-36.612091064453125,19.16669464111328,21.338340759277344
1739550872854635000,3.622635009765625,-36.610748291015625,19.0177001953125,21.18804168701172
1739550872864705000,3.632705078125,-36.554962158203125,19.055908203125,20.983806610107422
1739550872874774000,3.64277392578125,-36.498199462890625,19.16162109375,20.83966064453125
1739550872884844000,3.652843994140625,-36.784027099609375,19.563644409179688,20.80220603942871
1739550872894913000,3.6629130859375,-36.766632080078125,19.39795684814453,20.935832977294922
1739550872904983000,3.672983154296875,-36.515106201171875,19.29986572265625,21.023609161376953
1739550872915052300,3.68305224609375,-36.843902587890625,19.40380096435547,20.728740692138672
1739550872925121000,3.69312109375,-36.677581787109375,19.411346435546875,20.941591262817383
1739550872935191000,3.70319091796875,-36.378875732421875,19.631698608398438,20.96232795715332
1739550872945260000,3.713260009765625,-36.867889404296875,19.782913208007812,20.91787338256836
1739550872955330000,3.723330078125,-36.882232666015625,19.69671630859375,20.80236053466797
1739550872965399000,3.73339892578125,-36.264373779296875,20.02057647705078,20.87994384765625
1739550872975469000,3.743468994140625,-36.814117431640625,19.85401153564453,20.95581817626953
1739550872985538000,3.7535380859375,-36.976165771484375,19.74211883544922,21.01681900024414
1739550872995608000,3.763608154296875,-36.887237548828125,19.403785705566406,20.71550941467285
1739550873005677000,3.773677001953125,-36.983612060546875,19.605697631835938,20.690523147583008
1739550873015746000,3.78374609375,-37.018829345703125,19.419288635253906,20.616039276123047
1739550873025816000,3.793816162109375,-36.826751708984375,19.373558044433594,20.637052536010742
1739550873035885000,3.803885009765625,-36.582244873046875,19.53008270263672,20.71929168701172
1739550873045955000,3.813955078125,-36.496734619140625,19.75604248046875,20.660282135009766
1739550873056024000,3.824024169921875,-36.557098388671875,19.7227783203125,20.624908447265625
1739550873066094000,3.834093994140625,-36.589569091796875,19.463973999023438,20.628311157226562
1739550873076163000,3.8441630859375,-36.517791748046875,19.36224365234375,20.49761199951172
1739550873086232000,3.854232177734375,-36.144073486328125,19.556838989257812,20.61616325378418
1739550873096302000,3.864302001953125,-36.064544677734375,19.395530700683594,20.702486038208008
1739550873106371000,3.87437109375,-36.227264404296875,19.422698974609375,20.644790649414062
1739550873116441000,3.884441162109375,-36.068511962890625,19.257522583007812,20.923734664916992
1739550873126510000,3.894510009765625,-36.432952880859375,19.491127014160156,21.21611785888672
1739550873136580000,3.904580078125,-36.297821044921875,19.353759765625,21.019763946533203
1739550873146649000,3.914649169921875,-36.388397216796875,19.276870727539062,20.9636287689209
1739550873156718800,3.92471875,-36.462249755859375,19.120948791503906,21.022907257080078
1739550873166788000,3.9347880859375,-36.134979248046875,19.15526580810547,20.802114486694336
1739550873176857000,3.944857177734375,-36.054046630859375,19.37787628173828,21.169267654418945
1739550873186927000,3.954927001953125,-36.071014404296875,19.13446807861328,21.11431312561035
1739550873196996000,3.96499609375,-36.120697021484375,19.240921020507812,21.29048728942871
1739550873207066000,3.975066162109375,-36.141143798828125,18.89569854736328,21.13677215576172
1739550873217135400,3.98513525390625,-35.610504150390625,18.892333984375,21.426071166992188
1739550873227205400,3.995205322265625,-35.678985595703125,18.67406463623047,21.593170166015625
1739550873237274400,4.0052744140625,-36.030548095703125,18.917739868164062,21.642070770263672
1739550873247344000,4.01534423828125,-35.940948486328125,19.209312438964844,21.56886863708496
1739550873257413400,4.025413330078125,-35.877960205078125,18.9697265625,21.862098693847656
1739550873267483100,4.035483154296875,-36.020111083984375,19.135635375976562,22.152368545532227
1739550873277552400,4.045552490234375,-36.027984619140625,19.020172119140625,22.03800392150879
1739550873287621400,4.055621337890625,-36.193817138671875,19.121871948242188,21.86139488220215
1739550873297691400,4.06569140625,-35.819854736328125,18.93852996826172,21.864105224609375
1739550873307760000,4.075760009765625,-35.962127685546875,18.791473388671875,21.96527099609375
1739550873317830400,4.085830322265625,-35.790557861328125,18.833518981933594,21.893943786621094
1739550873327899100,4.095899169921875,-36.335418701171875,18.49327850341797,22.120384216308594
1739550873337969400,4.105969482421875,-36.049652099609375,18.443771362304688,22.59760093688965
1739550873348038100,4.1160380859375,-35.989959716796875,18.378082275390625,22.365793228149414
1739550873358108200,4.126108154296875,-35.867706298828125,18.191879272460938,22.348896026611328
1739550873368177400,4.136177490234375,-35.937164306640625,18.162185668945312,22.433881759643555
1739550873378246400,4.146246337890625,-35.926300048828125,17.93010711669922,22.50818634033203
1739550873388316400,4.15631640625,-35.521575927734375,17.71692657470703,22.911163330078125
1739550873398385400,4.166385498046875,-36.031768798828125,17.33758544921875,22.992538452148438
1739550873408455400,4.176455322265625,-35.899139404296875,17.32556915283203,23.056089401245117
1739550873418524200,4.186524169921875,-35.467010498046875,17.446243286132812,23.109663009643555
1739550873428594400,4.196594482421875,-35.678070068359375,17.83709716796875,23.228809356689453
1739550873438663200,4.2066630859375,-35.765716552734375,17.610137939453125,23.11371612548828
1739550873448733400,4.2167333984375,-35.440765380859375,17.53388214111328,23.0154972076416
1739550873458802200,4.22680224609375,-35.145355224609375,17.858963012695312,23.282012939453125
1739550873468872200,4.2368720703125,-34.948944091796875,18.052658081054688,23.551897048950195
1739550873478941200,4.246941162109375,-34.685455322265625,18.45128631591797,23.66998291015625
1739550873489010400,4.257010498046875,-34.792144775390625,18.617034912109375,23.268413543701172
1739550873499080400,4.26708056640625,-34.552947998046875,18.961273193359375,23.32288360595703
1739550873509149400,4.2771494140625,-34.329193115234375,19.205772399902344,23.485763549804688
1739550873519219500,4.287219482421875,-34.199188232421875,18.97541046142578,23.53632354736328
1739550873529288200,4.2972880859375,-34.079742431640625,18.817977905273438,23.52177619934082
1739550873539358500,4.3073583984375,-34.273468017578125,18.87493133544922,23.720476150512695
1739550873549427200,4.31742724609375,-34.846710205078125,18.657333374023438,23.61968421936035
1739550873559497500,4.32749755859375,-35.025848388671875,18.684051513671875,23.63767433166504
1739550873569566200,4.337566162109375,-34.911651611328125,18.355255126953125,23.857261657714844
1739550873579635500,4.347635498046875,-34.653106689453125,18.454696655273438,23.756444931030273
1739550873589705200,4.357705322265625,-34.792449951171875,18.445892333984375,23.618362426757812
1739550873599774500,4.3677744140625,-34.446807861328125,18.41289520263672,23.80411720275879
1739550873609844200,4.37784423828125,-34.676849365234375,18.314041137695312,23.65496253967285
1739550873619913200,4.387913330078125,-34.673614501953125,18.29090118408203,23.5744686126709
1739550873629983500,4.3979833984375,-34.990203857421875,18.174179077148438,23.301244735717773
1739550873640052200,4.40805224609375,-35.303314208984375,17.943801879882812,23.309959411621094
1739550873650122500,4.41812255859375,-35.065338134765625,18.062423706054688,23.19257164001465
1739550873660191200,4.428191162109375,-34.640594482421875,17.79851531982422,23.1730899810791
1739550873670261500,4.438261474609375,-35.262664794921875,17.76264190673828,23.0997257232666
1739550873680330200,4.448330322265625,-35.092559814453125,17.8162841796875,23.251262664794922
1739550873690399500,4.4583994140625,-35.512725830078125,18.149185180664062,23.421998977661133
1739550873700469200,4.46846923828125,-34.915252685546875,18.031272888183594,23.41272735595703
1739550873710538500,4.47853857421875,-34.989715576171875,18.007850646972656,23.56159210205078
1739550873720608300,4.488608154296875,-35.188629150390625,18.215408325195312,23.56971549987793
1739550873730677200,4.49867724609375,-35.007293701171875,18.351959228515625,23.431440353393555
1739550873740747300,4.508747314453125,-35.067169189453125,18.503585815429688,23.581762313842773
1739550873750816300,4.518816162109375,-34.970733642578125,18.089691162109375,23.619787216186523
1739550873760886500,4.528886474609375,-34.587615966796875,17.743988037109375,23.94043731689453
1739550873770955300,4.538955322265625,-34.540069580078125,17.47595977783203,23.982881546020508
1739550873781025500,4.549025634765625,-34.542327880859375,17.12512969970703,23.830305099487305
1739550873791094300,4.55909423828125,-35.000579833984375,17.076126098632812,23.947389602661133
1739550873801163300,4.569163330078125,-35.081329345703125,16.895713806152344,23.889204025268555
1739550873811233300,4.5792333984375,-35.440704345703125,16.839256286621094,23.892051696777344
1739550873821302500,4.589302490234375,-35.216400146484375,16.597007751464844,23.83717918395996
1739550873831372300,4.599372314453125,-35.329559326171875,16.49121856689453,23.776098251342773
1739550873841441300,4.609441162109375,-35.460357666015625,16.7650146484375,23.772422790527344
1739550873851511300,4.61951123046875,-35.316925048828125,16.826805114746094,23.75226402282715
1739550873861580300,4.629580322265625,-35.208831787109375,16.856956481933594,23.50119972229004
1739550873871650300,4.639650390625,-35.565582275390625,16.85028839111328,23.49161720275879
1739550873881719300,4.64971923828125,-35.354644775390625,16.920692443847656,23.152050018310547
1739550873891789300,4.659789306640625,-35.077484130859375,16.80945587158203,23.11516571044922
1739550873901858300,4.6698583984375,-35.007110595703125,16.546981811523438,23.051725387573242
1739550873911927300,4.67992724609375,-35.397308349609375,16.76380157470703,23.457592010498047
1739550873921997300,4.689997314453125,-35.393585205078125,16.937171936035156,23.227581024169922
1739550873932066300,4.70006640625,-35.235382080078125,17.068077087402344,23.193500518798828
1739550873942136300,4.71013623046875,-35.340301513671875,16.95379638671875,23.143651962280273
1739550873952205300,4.720205322265625,-35.356781005859375,16.827560424804688,23.129444122314453
1739550873962275300,4.730275390625,-35.525665283203125,17.01666259765625,23.29334259033203
1739550873972344300,4.74034423828125,-35.134246826171875,17.099105834960938,23.341266632080078
1739550873982414300,4.750414306640625,-35.410491943359375,17.109634399414062,23.16339683532715
1739550873992483300,4.7604833984375,-35.287445068359375,16.986907958984375,23.1225528717041
1739550874002553300,4.77055322265625,-35.676300048828125,17.156272888183594,23.117631912231445
1739550874012622300,4.780622314453125,-35.706756591796875,16.936355590820312,23.1992130279541
1739550874022692000,4.790692138671875,-35.240386962890625,17.195289611816406,23.366348266601562
1739550874032761300,4.80076123046875,-35.342926025390625,17.082603454589844,23.505895614624023
1739550874042830300,4.810830322265625,-34.912872314453125,16.81940460205078,23.635330200195312
1739550874052900400,4.820900390625,-35.374359130859375,16.806640625,23.473432540893555
1739550874062969000,4.830968994140625,-35.423553466796875,16.79106903076172,23.54768180847168
1739550874073039400,4.841039306640625,-35.213348388671875,16.652870178222656,23.894742965698242
1739550874083108400,4.8511083984375,-35.001556396484375,16.640907287597656,23.60031509399414
1739550874093178400,4.861178466796875,-35.201995849609375,16.559738159179688,23.446590423583984
1739550874103247400,4.871247314453125,-34.737274169921875,16.430747985839844,23.502992630004883
1739550874113317400,4.8813173828125,-34.991363525390625,16.503150939941406,23.528270721435547
1739550874123386400,4.891386474609375,-35.011932373046875,16.438156127929688,23.640640258789062
1739550874133456100,4.9014560546875,-35.096832275390625,16.650474548339844,23.6323299407959
1739550874143525400,4.911525390625,-35.040740966796875,16.38152313232422,23.634450912475586
1739550874153595100,4.92159521484375,-34.797821044921875,16.505722045898438,23.73753547668457
1739550874163664400,4.931664306640625,-34.998260498046875,16.563934326171875,23.72488021850586
1739550874173733000,4.941733154296875,-34.916595458984375,16.543121337890625,23.77457046508789
1739550874183803400,4.951803466796875,-35.731475830078125,16.340621948242188,23.544029235839844
1739550874193872100,4.9618720703125,-35.452362060546875,16.2615966796875,23.384952545166016
1739550874203942400,4.9719423828125,-35.435882568359375,16.4464111328125,23.49869155883789
1739550874214011400,4.982011474609375,-35.080474853515625,16.359909057617188,23.695642471313477
1739550874224081200,4.9920810546875,-34.901580810546875,16.347198486328125,23.607093811035156
1739550874234150100,5.002150146484375,-34.875091552734375,16.472496032714844,23.613689422607422
1739550874244220000,5.012219970703125,-35.230865478515625,16.6827392578125,23.332876205444336
1739550874254289200,5.0222890625,-35.258941650390625,16.716575622558594,23.095632553100586
1739550874264359000,5.03235888671875,-35.357818603515625,16.79163360595703,22.918174743652344
1739550874274428200,5.04242822265625,-35.447967529296875,16.653053283691406,22.679826736450195
1739550874284497000,5.052496826171875,-35.982208251953125,16.726539611816406,22.748199462890625
1739550874294567200,5.062567138671875,-36.122344970703125,16.52178955078125,22.899274826049805
1739550874304636000,5.072635986328125,-35.774444580078125,16.34027099609375,22.748403549194336
1739550874314706200,5.0827060546875,-35.743316650390625,16.346343994140625,22.676307678222656
1739550874324775200,5.092775146484375,-35.764739990234375,16.438003540039062,22.575937271118164
1739550874334845200,5.10284521484375,-35.862762451171875,16.24256134033203,22.6480712890625
1739550874344914200,5.1129140625,-35.936492919921875,16.41826629638672,22.45646095275879
1739550874354984000,5.12298388671875,-36.040130615234375,16.25084686279297,22.481416702270508
1739550874365053200,5.13305322265625,-35.945770263671875,16.287330627441406,22.65464973449707
1739550874375123000,5.143123046875,-36.026153564453125,16.38823699951172,22.670156478881836
1739550874385192200,5.153192138671875,-35.954498291015625,16.18072509765625,22.33133888244629
1739550874395262000,5.163261962890625,-35.845855712890625,16.040283203125,22.31400489807129
1739550874405331200,5.173331298828125,-35.843414306640625,16.32111358642578,22.286094665527344
1739550874415401200,5.183401123046875,-35.990692138671875,16.136947631835938,22.13223648071289
1739550874425470200,5.19347021484375,-36.269683837890625,16.34801483154297,22.131893157958984
1739550874435540200,5.203540283203125,-36.047210693359375,16.62097930908203,22.04826545715332
1739550874445609200,5.213609130859375,-35.468414306640625,16.903182983398438,21.996967315673828
1739550874455678200,5.22367822265625,-35.563995361328125,17.060989379882812,21.62858009338379
1739550874465748000,5.233748046875,-35.671112060546875,16.953948974609375,21.771875381469727
1739550874475817200,5.243817138671875,-35.387298583984375,17.66460418701172,21.8282470703125
1739550874485887000,5.253886962890625,-35.189300537109375,17.70879364013672,21.516876220703125
1739550874495956200,5.263956298828125,-35.409088134765625,17.577735900878906,21.589574813842773
1739550874506026000,5.27402587890625,-35.393035888671875,17.60943603515625,21.515655517578125
1739550874516095200,5.28409521484375,-35.675872802734375,17.50640869140625,21.489105224609375
1739550874526165000,5.2941650390625,-35.430084228515625,17.55328369140625,21.60624122619629
1739550874536234200,5.304234130859375,-35.887420654296875,17.468643188476562,21.387235641479492
1739550874546304300,5.31430419921875,-36.088287353515625,17.063697814941406,21.515356063842773
1739550874556373000,5.324373046875,-35.854705810546875,16.854965209960938,21.147905349731445
1739550874566443300,5.334443359375,-36.181549072265625,16.858749389648438,20.976116180419922
1739550874576512000,5.344511962890625,-36.029266357421875,16.405181884765625,20.890174865722656
1739550874586582300,5.354582275390625,-35.741973876953125,16.479469299316406,20.784761428833008
1739550874596651000,5.364651123046875,-36.394683837890625,16.640838623046875,20.704906463623047
1739550874606721300,5.37472119140625,-36.325042724609375,16.65326690673828,21.13966941833496
1739550874616790000,5.3847900390625,-36.503997802734375,16.744461059570312,21.187387466430664
1739550874626860000,5.394860107421875,-36.468170166015625,16.516510009765625,20.988269805908203
1739550874636929000,5.404928955078125,-36.278656005859375,16.419944763183594,20.951576232910156
1739550874646998300,5.414998291015625,-35.636871337890625,16.67828369140625,21.16331672668457
1739550874657068000,5.425068115234375,-35.873138427734375,16.739974975585938,21.052297592163086
1739550874667137000,5.435136962890625,-35.958892822265625,16.73943328857422,20.78612518310547
1739550874677207000,5.44520703125,-36.322296142578125,16.882118225097656,20.76066017150879
1739550874687276000,5.455276123046875,-36.491424560546875,17.058509826660156,20.152814865112305
1739550874697346300,5.46534619140625,-36.352508544921875,17.352989196777344,20.240097045898438
1739550874707415000,5.4754150390625,-36.235992431640625,17.475791931152344,19.824316024780273
1739550874717485300,5.4854853515625,-36.085296630859375,17.501419067382812,19.908788681030273
1739550874727554000,5.495553955078125,-36.317169189453125,17.85771942138672,19.930723190307617
1739550874737624000,5.5056240234375,-36.012786865234375,17.6212158203125,19.746864318847656
1739550874747693000,5.515693115234375,-36.285736083984375,17.616546630859375,19.704959869384766
1739550874757763000,5.52576318359375,-35.617828369140625,17.426071166992188,20.13219451904297
1739550874767832000,5.53583203125,-36.137420654296875,17.571205139160156,20.129140853881836
1739550874777902000,5.545902099609375,-35.955169677734375,17.60283660888672,20.069204330444336
1739550874787971000,5.55597119140625,-35.889801025390625,17.42626953125,20.17091178894043
1739550874798041000,5.566041015625,-35.886810302734375,17.356185913085938,20.056686401367188
1739550874808110000,5.576110107421875,-35.706573486328125,17.449195861816406,20.062402725219727
1739550874818180000,5.58618017578125,-35.886322021484375,17.70623779296875,19.957490921020508
1739550874828249300,5.596249267578125,-36.000640869140625,17.6533203125,19.718786239624023
1739550874838319000,5.606319091796875,-35.595855712890625,17.803245544433594,19.592449188232422
1739550874848388000,5.61638818359375,-35.678924560546875,18.045555114746094,19.822078704833984
1739550874858457000,5.62645703125,-35.705474853515625,18.262290954589844,19.850732803344727
1739550874868527000,5.636527099609375,-35.861114501953125,18.571998596191406,19.864946365356445
1739550874878596000,5.64659619140625,-35.747833251953125,18.723960876464844,19.785015106201172
1739550874888666000,5.656666015625,-35.766815185546875,18.696212768554688,19.780385971069336
1739550874898735000,5.666735107421875,-35.617340087890625,18.70904541015625,19.663326263427734
1739550874908805000,5.67680517578125,-35.548126220703125,18.763206481933594,19.542966842651367
1739550874918874000,5.6868740234375,-35.253265380859375,18.780899047851562,19.720382690429688
1739550874928944000,5.696944091796875,-35.418670654296875,18.82036590576172,19.761587142944336
1739550874939013000,5.70701318359375,-35.124114990234375,18.517295837402344,19.684480667114258
1739550874949083100,5.717083251953125,-35.234954833984375,18.49907684326172,19.90910530090332
1739550874959152000,5.727152099609375,-35.764801025390625,18.55109405517578,19.777629852294922
1739550874969222100,5.73722216796875,-35.213226318359375,18.40013885498047,20.03346824645996
1739550874979291100,5.747291015625,-35.445404052734375,18.57306671142578,19.960891723632812
1739550874989361200,5.757361083984375,-35.448577880859375,18.744155883789062,19.927474975585938
1739550874999430100,5.76743017578125,-35.608612060546875,18.434860229492188,20.134584426879883
1739550875009500000,5.7775,-35.594451904296875,18.38036346435547,20.159610748291016
1739550875019569200,5.787569091796875,-35.369720458984375,18.517349243164062,20.147117614746094
1739550875029639000,5.797638916015625,-35.258209228515625,18.46886444091797,20.136716842651367
1739550875039708200,5.807708251953125,-35.056365966796875,18.435218811035156,20.264280319213867
1739550875049778200,5.817778076171875,-34.951324462890625,18.225128173828125,20.168272018432617
1739550875059847200,5.82784716796875,-34.933197021484375,18.267105102539062,20.140783309936523
1739550875069917200,5.837917236328125,-35.152679443359375,18.2708740234375,20.276342391967773
1739550875079986200,5.847986083984375,-35.315216064453125,18.242279052734375,20.303647994995117
1739550875090056200,5.85805615234375,-35.633758544921875,18.288665771484375,20.21434211730957
1739550875100125200,5.868125244140625,-35.667083740234375,17.945701599121094,20.30721092224121
1739550875110195200,5.8781953125,-35.449005126953125,17.832733154296875,20.12108612060547
1739550875120264000,5.888263916015625,-35.399810791015625,18.006858825683594,20.188364028930664
1739550875130334200,5.898334228515625,-35.334503173828125,17.836143493652344,20.229944229125977
1739550875140403000,5.90840283203125,-34.830169677734375,18.063644409179688,20.19107437133789
1739550875150473200,5.91847314453125,-35.119049072265625,17.725852966308594,19.947784423828125
1739550875160542000,5.9285419921875,-35.404876708984375,17.864112854003906,20.02642059326172
1739550875170611200,5.938611083984375,-34.935516357421875,17.761924743652344,20.113433837890625
1739550875180681000,5.948680908203125,-35.466644287109375,17.827224731445312,20.016998291015625
1739550875190750200,5.958750244140625,-35.368743896484375,17.925933837890625,20.340730667114258
1739550875200820200,5.9688203125,-35.244720458984375,18.063560485839844,20.35259246826172
1739550875210889200,5.97888916015625,-35.010040283203125,17.91375732421875,20.371578216552734
1739550875220962600,5.988962646484375,-34.967315673828125,17.667701721191406,20.496807098388672
1739550875231031600,5.999031494140625,-34.782012939453125,17.660675048828125,20.62244987487793
1739550875241101600,6.0091015625,-34.557159423828125,17.625953674316406,20.632665634155273
1739550875251170600,6.019170654296875,-35.202606201171875,17.606979370117188,20.821266174316406
1739550875261240600,6.029240478515625,-34.764129638671875,17.389671325683594,20.69171714782715
1739550875271309600,6.0393095703125,-35.050262451171875,17.230072021484375,20.736356735229492
1739550875281379600,6.049379638671875,-35.189056396484375,17.301292419433594,20.7884464263916
1739550875291448600,6.059448486328125,-35.130645751953125,16.99506378173828,21.024505615234375
1739550875301518600,6.0695185546875,-35.051544189453125,16.812393188476562,21.0262393951416
1739550875311587600,6.079587646484375,-34.949676513671875,16.422805786132812,21.135181427001953
1739550875321657600,6.08965771484375,-35.049774169921875,16.315444946289062,21.320289611816406
1739550875331726600,6.0997265625,-34.956146240234375,16.251800537109375,21.242374420166016
1739550875341796600,6.109796630859375,-34.755950927734375,16.064910888671875,21.278806686401367
1739550875351865600,6.119865478515625,-35.092010498046875,16.11945343017578,21.329870223999023
1739550875361935600,6.129935546875,-34.926544189453125,16.210342407226562,21.424842834472656
1739550875372004600,6.140004638671875,-34.716888427734375,16.330284118652344,21.58205795288086
1739550875382074600,6.15007470703125,-34.427947998046875,16.55614471435547,21.759737014770508
1739550875392143400,6.160143310546875,-34.272003173828125,16.897178649902344,21.482620239257812
1739550875402213600,6.170213623046875,-34.524322509765625,17.174720764160156,21.275693893432617
1739550875412282400,6.180282470703125,-34.197479248046875,17.222137451171875,21.305219650268555
1739550875422352600,6.1903525390625,-34.157196044921875,17.433303833007812,21.295961380004883
1739550875432421600,6.200421630859375,-34.264434814453125,17.57281494140625,21.214000701904297
1739550875442491600,6.21049169921875,-34.043914794921875,17.462478637695312,21.299909591674805
1739550875452560600,6.220560546875,-34.337432861328125,17.39818572998047,21.508447647094727
1739550875462630400,6.23063037109375,-34.064056396484375,16.983322143554688,21.2862548828125
1739550875472699600,6.24069970703125,-34.266937255859375,16.73224639892578,21.225811004638672
1739550875482768600,6.2507685546875,-34.445159912109375,16.455184936523438,21.10588836669922
1739550875492838700,6.260838623046875,-34.585418701171875,16.136642456054688,21.015222549438477
1739550875502907400,6.270907470703125,-34.450653076171875,15.990829467773438,21.08353614807129
1739550875512977700,6.280977783203125,-34.981781005859375,15.993331909179688,21.241622924804688
1739550875523046400,6.29104638671875,-34.531646728515625,15.677558898925781,21.16995620727539
1739550875533116700,6.30111669921875,-34.252960205078125,15.815994262695312,21.024255752563477
1739550875543185400,6.311185302734375,-34.045440673828125,15.905174255371094,20.95211410522461
1739550875553255700,6.321255615234375,-33.944122314453125,15.976371765136719,20.853668212890625
1739550875563324400,6.331324462890625,-33.950469970703125,15.721916198730469,20.7226619720459
1739550875573394400,6.34139453125,-33.862945556640625,15.947044372558594,20.80030059814453
1739550875583463700,6.351463623046875,-33.855255126953125,16.000747680664062,21.09989356994629
1739550875593533400,6.361533447265625,-33.901641845703125,15.699295043945312,20.918569564819336
1739550875603602700,6.371602783203125,-34.169708251953125,15.571296691894531,21.203754425048828
1739550875613672400,6.38167236328125,-33.728546142578125,15.670021057128906,21.511459350585938
1739550875623741700,6.39174169921875,-34.046112060546875,15.556045532226562,21.57394027709961
1739550875633811500,6.4018115234375,-34.034820556640625,15.136474609375,21.583797454833984
1739550875643880700,6.411880615234375,-33.977447509765625,15.21868896484375,21.5859375
1739550875653950500,6.421950439453125,-33.523101806640625,14.883834838867188,21.37320327758789
1739550875664019700,6.432019775390625,-33.814361572265625,14.272285461425781,21.201881408691406
1739550875674089700,6.44208984375,-34.024383544921875,14.460060119628906,21.197561264038086
1739550875684158500,6.452158447265625,-34.462188720703125,14.375152587890625,21.02029037475586
1739550875694228700,6.462228759765625,-34.058135986328125,14.499794006347656,21.120445251464844
1739550875704297500,6.47229736328125,-34.108856201171875,14.306854248046875,21.037551879882812
1739550875714367700,6.48236767578125,-33.738433837890625,14.443122863769531,20.780433654785156
1739550875724436500,6.4924365234375,-34.265167236328125,14.133819580078125,20.731773376464844
1739550875734506500,6.502506591796875,-34.145721435546875,14.3538818359375,20.648269653320312
1739550875744575500,6.512575439453125,-34.435028076171875,14.217697143554688,20.608118057250977
1739550875754645500,6.5226455078125,-34.225677490234375,14.229522705078125,20.963773727416992
1739550875764714500,6.532714599609375,-33.994049072265625,14.422294616699219,20.97233009338379
1739550875774784500,6.542784423828125,-34.205230712890625,14.255043029785156,20.830522537231445
1739550875784853500,6.552853515625,-33.924835205078125,14.153663635253906,20.956806182861328
1739550875794922500,6.562922607421875,-34.086456298828125,14.182441711425781,20.739431381225586
1739550875804992800,6.57299267578125,-34.376678466796875,14.594062805175781,20.79347038269043
1739550875815061500,6.5830615234375,-34.412994384765625,14.334640502929688,20.680356979370117
1739550875825131800,6.5931318359375,-34.543792724609375,14.451980590820312,20.656078338623047
1739550875835200500,6.603200439453125,-34.456024169921875,14.556465148925781,20.646854400634766
1739550875845270500,6.6132705078125,-34.166595458984375,14.72412109375,20.800983428955078
1739550875855339500,6.623339599609375,-34.239410400390625,14.501373291015625,20.771778106689453
1739550875865409500,6.633409423828125,-34.137603759765625,14.82171630859375,20.7713680267334
1739550875875478500,6.643478515625,-34.166900634765625,14.77606201171875,20.79593276977539
1739550875885548500,6.653548583984375,-33.746307373046875,15.167808532714844,21.03885269165039
1739550875895617500,6.663617431640625,-33.982025146484375,14.922744750976562,20.97661590576172
1739550875905687600,6.6736875,-33.763641357421875,14.84771728515625,20.90207290649414
1739550875915756500,6.683756591796875,-33.459747314453125,14.949546813964844,21.07950782775879
1739550875925826600,6.69382666015625,-32.965057373046875,15.125526428222656,21.185546875
1739550875935895800,6.703895751953125,-33.497955322265625,14.801582336425781,20.97549819946289
1739550875945965600,6.713965576171875,-33.645111083984375,14.596328735351562,20.956083297729492
1739550875956034600,6.72403466796875,-33.668060302734375,14.910331726074219,20.838592529296875
1739550875966104600,6.7341044921875,-33.531402587890625,15.103294372558594,20.78789520263672
1739550875976173600,6.744173583984375,-33.639434814453125,14.974563598632812,20.730392456054688
1739550875986243600,6.75424365234375,-33.778228759765625,14.804336547851562,20.736513137817383
1739550875996312600,6.7643125,-33.455535888671875,14.959030151367188,20.862489700317383
1739550876006382600,6.774382568359375,-33.526519775390625,15.125099182128906,20.52007293701172
1739550876016451600,6.78445166015625,-33.521636962890625,15.018692016601562,20.72240447998047
1739550876026521600,6.794521484375,-33.631805419921875,15.21734619140625,20.69584846496582
1739550876036590600,6.804590576171875,-33.529510498046875,15.593650817871094,20.60011100769043
1739550876046660600,6.81466064453125,-33.672149658203125,15.66412353515625,20.464937210083008
1739550876056729600,6.8247294921875,-33.321197509765625,15.415153503417969,20.226625442504883
1739550876066798300,6.83479833984375,-33.416107177734375,15.325675964355469,20.001686096191406
1739550876076868600,6.84486865234375,-33.500762939453125,15.302749633789062,20.249120712280273
1739550876086937600,6.8549375,-33.211273193359375,15.34820556640625,20.224225997924805
1739550876097007600,6.865007568359375,-33.230072021484375,15.505966186523438,20.068605422973633
1739550876107076600,6.87507666015625,-33.240753173828125,15.458824157714844,20.17761993408203
1739550876117146400,6.885146484375,-33.735992431640625,15.35491943359375,20.225772857666016
1739550876127215600,6.895215576171875,-33.295928955078125,15.610305786132812,20.241409301757812
1739550876137285400,6.905285400390625,-33.218109130859375,15.42559814453125,20.09766387939453
1739550876147354600,6.915354736328125,-33.123321533203125,15.393119812011719,20.09253692626953
1739550876157424400,6.92542431640625,-32.900482177734375,15.387435913085938,20.122024536132812
1739550876167493600,6.93549365234375,-32.812774658203125,15.079574584960938,20.350482940673828
1739550876177563600,6.945563720703125,-32.770965576171875,14.866279602050781,20.259950637817383
1739550876187632600,6.955632568359375,-32.983673095703125,14.967864990234375,19.968608856201172
1739550876197702700,6.96570263671875,-33.080841064453125,14.982780456542969,20.01997947692871
1739550876207771600,6.975771728515625,-33.486541748046875,15.003303527832031,20.13945960998535
1739550876217841700,6.985841552734375,-33.200408935546875,15.075851440429688,19.853374481201172
1739550876227907300,6.9959072265625,-33.368072509765625,14.996681213378906,19.835002899169922
1739550876237977300,7.005977294921875,-33.216827392578125,14.936317443847656,19.593017578125
1739550876248046300,7.01604638671875,-33.198150634765625,15.279876708984375,19.717981338500977
1739550876258116400,7.026116455078125,-33.323394775390625,15.321922302246094,19.519365310668945
1739550876268185300,7.036185302734375,-32.964508056640625,15.663352966308594,19.415735244750977
1739550876278255400,7.04625537109375,-32.961578369140625,15.875419616699219,19.71432113647461
1739550876288324400,7.056324462890625,-32.527374267578125,15.891441345214844,19.520299911499023
1739550876298394400,7.066394287109375,-32.898590087890625,15.904281616210938,19.386167526245117
1739550876308463400,7.07646337890625,-32.884674072265625,15.967819213867188,19.446334838867188
1739550876318533400,7.086533447265625,-32.719390869140625,15.829063415527344,19.352191925048828
1739550876328602400,7.096602294921875,-33.252777099609375,15.48822021484375,19.51713752746582
1739550876338672400,7.10667236328125,-32.932769775390625,15.100471496582031,19.536968231201172
1739550876348741400,7.116741455078125,-33.104217529296875,14.949188232421875,19.363130569458008
1739550876358810400,7.126810302734375,-33.291168212890625,14.741065979003906,19.316057205200195
1739550876368880400,7.13688037109375,-33.184600830078125,14.575439453125,19.408283233642578
1739550876378949400,7.146949462890625,-33.129486083984375,14.067184448242188,19.112268447875977
1739550876389019100,7.15701904296875,-33.481903076171875,14.066238403320312,19.205951690673828
1739550876399088400,7.16708837890625,-33.591644287109375,14.120018005371094,19.283296585083008
1739550876409158400,7.177158447265625,-33.265106201171875,14.013710021972656,19.231300354003906
1739550876419227400,7.187227294921875,-33.240814208984375,14.171760559082031,19.292966842651367
1739550876429297400,7.19729736328125,-33.412506103515625,14.237159729003906,18.92848014831543
1739550876439366400,7.207366455078125,-33.246978759765625,13.969718933105469,18.837854385375977
1739550876449436400,7.2174365234375,-33.179107666015625,13.585105895996094,18.980003356933594
1739550876459505400,7.22750537109375,-33.600189208984375,13.594932556152344,18.811779022216797
1739550876469575400,7.237575439453125,-33.475494384765625,13.718055725097656,18.693798065185547
1739550876479644400,7.24764453125,-33.342254638671875,13.578399658203125,18.514896392822266
1739550876489714400,7.25771435546875,-32.988983154296875,13.802391052246094,18.70659828186035
1739550876499783200,7.267783203125,-32.973114013671875,13.630760192871094,18.722679138183594
1739550876509853400,7.277853515625,-33.272979736328125,13.97052001953125,18.778223037719727
1739550876519922200,7.287922119140625,-33.047332763671875,13.990020751953125,18.95399284362793
1739550876529992400,7.297992431640625,-33.297210693359375,14.085647583007812,18.753835678100586
1739550876540061400,7.3080615234375,-33.140472412109375,13.735862731933594,18.938364028930664
1739550876550131200,7.318131103515625,-33.157501220703125,14.027442932128906,19.136173248291016
1739550876560200400,7.328200439453125,-32.909942626953125,13.8255615234375,19.200496673583984
1739550876570270200,7.338270263671875,-33.133575439453125,13.581146240234375,19.34966278076172
1739550876580339500,7.34833935546875,-32.781524658203125,13.438072204589844,19.31505012512207
1739550876590409200,7.3584091796875,-33.344146728515625,13.651512145996094,19.541749954223633
1739550876600478500,7.368478515625,-32.967559814453125,13.457229614257812,19.37798500061035
1739550876610547200,7.378547119140625,-33.010772705078125,13.536018371582031,19.320709228515625
1739550876620617500,7.388617431640625,-32.760040283203125,13.730171203613281,19.399803161621094
1739550876630686200,7.398686279296875,-32.889495849609375,13.671859741210938,19.40880012512207
1739550876640756500,7.408756591796875,-33.027435302734375,13.795196533203125,19.51708221435547
1739550876650825200,7.4188251953125,-32.662200927734375,13.936729431152344,19.5411319732666
1739550876660895200,7.428895263671875,-32.430755615234375,14.044807434082031,19.93349838256836
1739550876670964200,7.438964111328125,-32.724700927734375,13.924674987792969,19.724822998046875
1739550876681034200,7.4490341796875,-32.704132080078125,13.844085693359375,19.465139389038086
1739550876691103500,7.459103515625,-32.755462646484375,13.955436706542969,19.401851654052734
1739550876701173200,7.46917333984375,-32.988250732421875,14.018196105957031,19.703285217285156
1739550876711242500,7.479242431640625,-32.654632568359375,13.840255737304688,19.785715103149414
1739550876721312300,7.489312255859375,-32.464447021484375,13.798080444335938,19.838987350463867
1739550876731381500,7.499381591796875,-32.310028076171875,13.929885864257812,19.97216033935547
1739550876741451300,7.509451171875,-32.402740478515625,13.797286987304688,19.6735782623291
1739550876751520500,7.5195205078125,-32.339324951171875,14.106575012207031,19.554420471191406
1739550876761590300,7.52959033203125,-32.476531982421875,14.257781982421875,20.017786026000977
1739550876771659300,7.5396591796875,-32.304779052734375,14.117919921875,20.263517379760742
1739550876781729500,7.5497294921875,-32.277008056640625,13.999824523925781,20.115779876708984
1739550876791798300,7.55979833984375,-32.033966064453125,13.861114501953125,20.098695755004883
1739550876801868500,7.56986865234375,-32.315216064453125,13.921379089355469,20.29132652282715
1739550876811937300,7.579937255859375,-31.850921630859375,14.224906921386719,20.198402404785156
1739550876822007300,7.59000732421875,-32.125823974609375,14.244918823242188,20.224897384643555
1739550876832076300,7.600076171875,-31.785186767578125,14.171424865722656,20.263254165649414
1739550876842145500,7.6101455078125,-31.979095458984375,14.168655395507812,20.157163619995117
1739550876852215300,7.62021533203125,-32.137115478515625,13.924964904785156,20.276212692260742
1739550876862284500,7.630284423828125,-31.931915283203125,14.176948547363281,20.15613555908203
1739550876872354300,7.640354248046875,-32.012664794921875,14.032096862792969,20.261510848999023
1739550876882423300,7.65042333984375,-31.708343505859375,14.123191833496094,20.225460052490234
1739550876892493300,7.660493408203125,-31.870513916015625,14.143264770507812,20.323659896850586
1739550876902562300,7.670562255859375,-31.724090576171875,14.202919006347656,19.951526641845703
1739550876912632600,7.680632568359375,-31.712127685546875,14.25628662109375,20.20094108581543
1739550876922701300,7.690701416015625,-31.807037353515625,14.333045959472656,20.575794219970703
1739550876932771300,7.700771240234375,-32.051666259765625,13.972457885742188,20.72260856628418
1739550876942840300,7.71084033203125,-31.845428466796875,13.910026550292969,20.843599319458008
1739550876952910300,7.720910400390625,-31.740264892578125,14.098777770996094,20.668262481689453
1739550876962979300,7.730979248046875,-31.818450927734375,14.1904296875,20.731252670288086
1739550876973049300,7.74104931640625,-31.913543701171875,14.043350219726562,20.598257064819336
1739550876983118300,7.751118408203125,-31.617706298828125,13.901275634765625,20.676136016845703
1739550876993188400,7.761188232421875,-31.430023193359375,13.671859741210938,20.9106502532959
1739550877003257300,7.77125732421875,-31.737945556640625,13.470191955566406,20.913711547851562
1739550877013327400,7.781327392578125,-31.440643310546875,13.4339599609375,20.93031120300293
1739550877023396400,7.791396240234375,-31.474334716796875,13.705940246582031,21.133586883544922
1739550877033466400,7.80146630859375,-31.282745361328125,13.52557373046875,21.12900161743164
1739550877043535400,7.811535400390625,-31.261260986328125,13.395164489746094,21.272748947143555
1739550877053604400,7.821604248046875,-31.236480712890625,12.98663330078125,21.33555793762207
1739550877063674400,7.83167431640625,-31.341033935546875,12.999618530273438,21.2559871673584
1739550877073743400,7.841743408203125,-31.086883544921875,13.029380798339844,21.319412231445312
1739550877083813400,7.8518134765625,-30.739044189453125,13.182510375976562,21.424421310424805
1739550877093882400,7.86188232421875,-30.676483154296875,13.228263854980469,21.635786056518555
1739550877103952400,7.871952392578125,-30.648284912109375,13.157943725585938,21.75309944152832
1739550877114021400,7.882021484375,-31.176910400390625,13.080673217773438,21.97107696533203
1739550877124091400,7.89209130859375,-30.667694091796875,13.284568786621094,22.227092742919922
1739550877134160400,7.902160400390625,-30.189971923828125,13.404739379882812,22.271957397460938
1739550877144230400,7.91223046875,-30.380828857421875,13.78900146484375,22.170883178710938
1739550877154299100,7.922299072265625,-30.021270751953125,13.910820007324219,22.374998092651367
1739550877164369400,7.932369384765625,-30.365325927734375,14.286491394042969,22.37557601928711
1739550877174438100,7.942438232421875,-30.406585693359375,13.973625183105469,22.275094985961914
1739550877184508400,7.95250830078125,-30.255218505859375,14.102508544921875,22.32971954345703
1739550877194577400,7.962577392578125,-30.155242919921875,13.786781311035156,22.398853302001953
1739550877204647400,7.9726474609375,-30.224029541015625,13.5908203125,22.50140380859375
1739550877214716400,7.98271630859375,-29.966094970703125,13.248184204101562,22.41261100769043
1739550877224785000,7.992784912109375,-30.336151123046875,13.334259033203125,22.382749557495117
1739550877234855000,8.00285498046875,-30.385955810546875,13.293365478515625,22.157245635986328
1739550877244924000,8.012923828125,-30.404876708984375,13.333106994628906,22.137340545654297
1739550877254994000,8.022993896484374,-30.566070556640625,13.150588989257812,21.936431884765625
1739550877265063000,8.03306298828125,-30.488494873046875,12.828857421875,21.898801803588867
1739550877275133000,8.0431328125,-30.981475830078125,12.940902709960938,21.697586059570312
1739550877285201700,8.05320166015625,-30.772613525390625,12.793304443359375,21.43187713623047
1739550877295272000,8.06327197265625,-30.554779052734375,12.934516906738281,21.399066925048828
1739550877305340700,8.073340576171875,-31.145050048828125,13.134124755859375,21.504039764404297
1739550877315411000,8.083410888671875,-30.930328369140625,13.246803283691406,21.47159767150879
1739550877325479700,8.093479736328124,-30.826263427734375,13.118515014648438,21.518625259399414
1739550877335550000,8.103550048828126,-30.714508056640625,13.217529296875,21.48137092590332
1739550877345619000,8.113618896484375,-30.561248779296875,13.344978332519531,21.241270065307617
1739550877355688700,8.123688720703125,-30.467193603515625,13.370361328125,21.371135711669922
1739550877365758000,8.133758056640625,-30.558074951171875,13.127967834472656,21.441499710083008
1739550877375827700,8.14382763671875,-30.425445556640625,12.939926147460938,21.478282928466797
1739550877385897000,8.15389697265625,-30.361724853515625,12.862380981445312,21.61126136779785
1739550877395965700,8.163965576171876,-30.185089111328125,12.932479858398438,21.935304641723633
1739550877406036000,8.174035888671876,-30.597259521484375,12.969085693359375,21.85710906982422
1739550877416104700,8.184104736328125,-30.546173095703125,12.901336669921875,21.660165786743164
1739550877426175000,8.194175048828125,-30.642425537109375,12.690223693847656,21.892187118530273
1739550877436243700,8.20424365234375,-30.912017822265625,12.71807861328125,21.90066146850586
1739550877446314000,8.21431396484375,-30.910125732421875,12.64910888671875,21.59851837158203
1739550877456382700,8.2243828125,-30.557403564453125,12.406028747558594,21.880165100097656
1739550877466452700,8.23445263671875,-30.614593505859375,12.529884338378906,21.50713539123535
1739550877476522000,8.24452197265625,-31.113800048828125,12.686088562011719,21.24418067932129
1739550877486591700,8.254591796875,-30.862518310546875,12.654037475585938,21.03485679626465
1739550877496661000,8.264660888671875,-30.817169189453125,12.677330017089844,21.112539291381836
1739550877506730800,8.274730712890625,-30.896514892578125,12.698532104492188,21.18307113647461
1739550877516800000,8.284800048828124,-31.077423095703125,12.890060424804688,20.97500228881836
1739550877526869800,8.294869873046874,-30.996673583984375,12.872657775878906,21.02549934387207
1739550877536939000,8.30493896484375,-31.343536376953125,12.89959716796875,20.942577362060547
1739550877547007700,8.3150078125,-31.275115966796875,12.696891784667969,21.23785400390625
1739550877557077800,8.325077880859375,-31.475189208984375,12.993423461914062,21.155118942260742
1739550877567146800,8.335146728515625,-31.447174072265625,13.060005187988281,21.06468963623047
1739550877577216800,8.345216796875,-31.312896728515625,13.034614562988281,20.96409034729004
1739550877587285800,8.35528564453125,-31.218536376953125,12.905372619628906,21.04901885986328
1739550877597355800,8.365355712890626,-31.295196533203125,12.987068176269531,21.045320510864258
1739550877607425000,8.375425048828125,-31.179534912109375,13.008003234863281,21.15477180480957
1739550877617494800,8.385494873046875,-31.172821044921875,12.948196411132812,21.15522575378418
1739550877627564000,8.39556396484375,-30.842010498046875,12.773872375488281,21.28211212158203
1739550877637633800,8.4056337890625,-31.192962646484375,12.816162109375,21.151865005493164
1739550877647703000,8.415703125,-31.538848876953125,12.653114318847656,20.989206314086914
1739550877657772800,8.425772705078124,-31.005096435546875,12.909126281738281,21.13686752319336
1739550877667841800,8.435841796875,-30.877655029296875,12.936592102050781,21.256898880004883
1739550877677911800,8.445911865234375,-30.875457763671875,12.720222473144531,21.148847579956055
1739550877687980800,8.455980712890625,-31.067535400390625,12.900550842285156,21.003150939941406
1739550877698049800,8.4660498046875,-30.979888916015625,13.251205444335938,20.968921661376953
1739550877708119800,8.476119873046875,-30.790802001953125,13.162704467773438,21.414779663085938
1739550877718188800,8.486188720703124,-30.586639404296875,13.156562805175781,21.398611068725586
1739550877728258800,8.4962587890625,-30.138519287109375,13.635383605957031,21.57613182067871
1739550877738327800,8.506327880859375,-30.224212646484375,13.159904479980469,21.42255973815918
1739550877748397800,8.516397705078125,-30.346649169921875,13.04541015625,21.43935775756836
1739550877758467000,8.526467041015625,-30.023162841796875,13.200004577636719,21.39349937438965
1739550877768536800,8.536536865234375,-30.227325439453125,13.214874267578125,21.312299728393555
1739550877778605800,8.546605712890624,-30.716339111328125,13.259819030761719,21.15695571899414
1739550877788675800,8.55667578125,-30.581451416015625,13.330413818359375,21.009431838989258
1739550877798744800,8.566744873046876,-30.644439697265625,13.343925476074219,21.12276840209961
1739550877808814800,8.57681494140625,-31.119171142578125,13.360244750976562,21.232824325561523
1739550877818883800,8.5868837890625,-30.957366943359375,13.3228759765625,21.115732192993164
1739550877828953900,8.596953857421875,-30.599212646484375,13.290557861328125,20.767044067382812
1739550877839022800,8.60702294921875,-30.761260986328125,13.546859741210938,20.752500534057617
1739550877849091800,8.617091796875,-30.363677978515625,13.619224548339844,20.870567321777344
1739550877859161900,8.627161865234376,-30.415374755859375,13.404220581054688,20.942211151123047
1739550877869230800,8.63723095703125,-30.410369873046875,13.472648620605469,20.923009872436523
1739550877879300900,8.64730078125,-30.362152099609375,13.324134826660156,20.772329330444336
1739550877889369900,8.657369873046875,-30.732452392578125,13.689315795898438,20.686925888061523
1739550877899439900,8.66743994140625,-30.742462158203125,13.4669189453125,20.829917907714844
1739550877909508900,8.6775087890625,-30.689727783203125,13.624504089355469,20.657840728759766
1739550877919579000,8.687578857421874,-30.541412353515625,13.836555480957031,20.828397750854492
1739550877929647900,8.69764794921875,-30.939971923828125,13.716072082519531,20.334163665771484
1739550877939718000,8.7077177734375,-31.362457275390625,13.694046020507812,20.194494247436523
1739550877949787000,8.717786865234375,-30.527984619140625,14.048538208007812,20.02182960510254
1739550877959855900,8.72785595703125,-30.611358642578125,13.874420166015625,19.97860336303711
1739550877969926000,8.73792578125,-31.169769287109375,13.83099365234375,19.88629722595215
1739550877979995000,8.747994873046874,-31.070892333984375,13.560073852539062,20.10811424255371
1739550877990065000,8.75806494140625,-30.940338134765625,13.701568603515625,20.01356315612793
1739550878000133600,8.768133544921875,-30.739105224609375,13.448280334472656,19.96126365661621
1739550878010204000,8.778203857421875,-30.830169677734375,13.4832763671875,19.896852493286133
1739550878020273000,8.78827294921875,-31.012969970703125,13.645462036132812,20.001117706298828
1739550878030343000,8.798343017578125,-30.931549072265625,13.866775512695312,19.811141967773438
1739550878040412000,8.808411865234374,-31.336944580078125,14.371055603027344,19.33216667175293
1739550878050482000,8.81848193359375,-31.250213623046875,14.453948974609375,19.30894660949707
1739550878060551000,8.828551025390626,-31.275115966796875,14.358100891113281,19.42854881286621
1739550878070620700,8.83862060546875,-31.311187744140625,14.588462829589844,19.078750610351562
1739550878080690000,8.84868994140625,-31.211517333984375,14.398208618164062,19.008535385131836
1739550878090759000,8.858759033203125,-30.942047119140625,14.479461669921875,19.09364128112793
1739550878100829000,8.868828857421875,-31.252532958984375,14.388282775878906,19.153154373168945
1739550878110897700,8.878897705078124,-31.184967041015625,14.528244018554688,19.402219772338867
1739550878120968000,8.888968017578126,-30.932830810546875,14.350013732910156,19.20450782775879
1739550878131036700,8.89903662109375,-31.273162841796875,14.229904174804688,19.14344596862793
1739550878141107000,8.90910693359375,-31.341522216796875,14.322311401367188,19.128402709960938
1739550878151176000,8.919176025390625,-30.951446533203125,14.020050048828125,19.275285720825195
1739550878161245700,8.92924560546875,-30.835174560546875,14.169197082519531,19.506166458129883
1739550878171315000,8.93931494140625,-31.027191162109375,13.932853698730469,19.543527603149414
1739550878181384700,8.949384765625,-30.925079345703125,13.884269714355469,19.70866584777832
1739550878191454000,8.959453857421876,-31.003448486328125,13.738510131835938,20.008142471313477
1739550878201523000,8.96952294921875,-30.663787841796875,13.406898498535156,20.103036880493164
1739550878211593000,8.979593017578125,-30.672515869140625,13.339210510253906,19.955585479736328
1739550878221662000,8.989661865234375,-30.672637939453125,13.402641296386719,20.051990509033203
1739550878231732200,8.999732177734375,-30.782806396484375,13.245567321777344,19.872678756713867
1739550878241801000,9.009801025390624,-30.608673095703125,13.077232360839844,19.90540313720703
1739550878251871200,9.019871337890624,-30.953521728515625,13.172943115234375,20.064102172851562
1739550878261940000,9.02993994140625,-31.146759033203125,13.028236389160156,19.968976974487305
1739550878272010000,9.040010009765625,-30.998809814453125,12.986953735351562,20.102041244506836
1739550878282079000,9.050078857421875,-31.238189697265625,12.905227661132812,19.56912612915039
1739550878292149000,9.06014892578125,-31.309051513671875,12.961448669433594,19.671184539794922
1739550878302218000,9.070218017578124,-31.338226318359375,13.068832397460938,19.524232864379883
1739550878312287000,9.080286865234376,-31.564239501953125,12.963226318359375,19.359779357910156
1739550878322357200,9.090357177734376,-31.351837158203125,12.998458862304688,19.506744384765625
1739550878332426000,9.100426025390625,-31.311798095703125,13.0130615234375,19.752155303955078
1739550878342496300,9.110496337890625,-31.001739501953125,12.832931518554688,19.738374710083008
1739550878352565000,9.12056494140625,-31.027313232421875,12.884307861328125,19.730499267578125
1739550878362635000,9.130635009765625,-30.881927490234375,12.653419494628906,19.78229331970215
1739550878372704000,9.1407041015625,-30.917938232421875,12.342796325683594,19.839824676513672
1739550878382774000,9.15077392578125,-30.801300048828125,12.240959167480469,19.779687881469727
1739550878392843000,9.160843017578125,-30.960723876953125,12.368820190429688,19.80175018310547
1739550878402913000,9.1709130859375,-30.804412841796875,12.520767211914062,19.957120895385742
1739550878412982000,9.18098193359375,-30.964385986328125,12.555244445800781,20.13030242919922
1739550878423051000,9.191051025390625,-30.734527587890625,12.535499572753906,20.14082908630371
1739550878433121000,9.20112109375,-30.845123291015625,12.363777160644531,20.20745277404785
1739550878443190000,9.21118994140625,-30.730255126953125,12.688987731933594,20.181800842285156
1739550878453260300,9.22126025390625,-30.676971435546875,12.551231384277344,20.45511817932129
1739550878463329000,9.2313291015625,-30.458709716796875,12.76092529296875,20.324159622192383
1739550878473399000,9.24139892578125,-30.666534423828125,12.848617553710938,20.403078079223633
1739550878483468000,9.251468017578125,-30.665924072265625,13.086624145507812,20.205156326293945
1739550878493538000,9.2615380859375,-30.738128662109375,13.071807861328125,20.39859390258789
1739550878503607000,9.27160693359375,-30.459930419921875,13.120903015136719,20.48911476135254
1739550878513676300,9.28167626953125,-30.683319091796875,13.154777526855469,20.29827117919922
1739550878523746000,9.29174609375,-30.706390380859375,13.309852600097656,20.5103816986084
1739550878533815000,9.30181494140625,-30.667816162109375,13.341293334960938,20.566133499145508
1739550878543885000,9.311885009765625,-30.154876708984375,13.338890075683594,20.482088088989258
1739550878553954000,9.3219541015625,-30.216888427734375,13.449172973632812,20.586517333984375
1739550878564024000,9.332024169921874,-30.465484619140625,13.292098999023438,20.582334518432617
1739550878574093000,9.342093017578126,-30.035797119140625,13.307411193847656,20.582595825195312
1739550878584163000,9.3521630859375,-30.452484130859375,13.216346740722656,20.659944534301758
1739550878594232000,9.362232177734375,-30.308197021484375,13.203216552734375,20.672876358032227
1739550878604302000,9.372302001953125,-30.576141357421875,13.33819580078125,20.738920211791992
1739550878614371000,9.38237109375,-30.478790283203125,13.220329284667969,20.738525390625
1739550878624440000,9.392440185546874,-30.440765380859375,13.420265197753906,20.799182891845703
1739550878634510000,9.402510009765624,-30.313018798828125,13.27886962890625,20.898523330688477
1739550878644579000,9.4125791015625,-30.600921630859375,13.422454833984375,21.035825729370117
1739550878654649000,9.422649169921876,-29.754119873046875,13.508323669433594,21.089073181152344
1739550878664718000,9.432718017578125,-30.071624755859375,13.332687377929688,20.984806060791016
1739550878674788000,9.4427880859375,-30.299835205078125,13.343193054199219,21.095172882080078
1739550878684857000,9.452857177734375,-29.686553955078125,13.331283569335938,21.0726375579834
1739550878694927000,9.462927001953124,-29.725799560546875,13.356033325195312,21.041378021240234
1739550878704996000,9.47299609375,-29.706085205078125,13.275436401367188,20.711748123168945
1739550878715065000,9.483065185546875,-30.125885009765625,13.362823486328125,21.22061538696289
1739550878725135000,9.493135009765625,-29.926239013671875,13.38812255859375,21.26502799987793
1739550878735204000,9.5032041015625,-29.815704345703125,13.388343811035156,21.321735382080078
1739550878745274000,9.513274169921875,-29.934539794921875,13.326484680175781,21.173555374145508
1739550878755342800,9.5233427734375,-29.598480224609375,13.317413330078125,21.165987014770508
1739550878765413000,9.5334130859375,-29.801971435546875,13.328811645507812,21.29157066345215
1739550878775482000,9.543482177734376,-29.155731201171875,13.423995971679688,21.1231746673584
1739550878785552100,9.55355224609375,-29.454071044921875,13.423271179199219,21.452775955200195
1739550878795621000,9.56362109375,-29.390472412109375,13.243156433105469,21.42161750793457
1739550878805690000,9.573690185546875,-29.619720458984375,13.168449401855469,21.400894165039062
1739550878815760100,9.583760009765625,-29.255035400390625,13.102851867675781,21.45547103881836
1739550878825829000,9.5938291015625,-29.428497314453125,13.329620361328125,21.44064712524414
1739550878835899100,9.603899169921876,-29.184967041015625,13.398933410644531,21.738887786865234
1739550878845968100,9.613968017578125,-29.353790283203125,13.677452087402344,21.733463287353516
1739550878856038100,9.6240380859375,-29.362152099609375,13.869194030761719,21.600698471069336
1739550878866107000,9.63410693359375,-29.157318115234375,14.121040344238281,21.437955856323242
1739550878876177200,9.64417724609375,-29.387481689453125,14.3211669921875,21.403013229370117
1739550878886246000,9.654245849609374,-29.161956787109375,14.348892211914062,21.425140380859375
1739550878896315100,9.664315185546876,-29.086700439453125,14.334922790527344,21.308969497680664
1739550878906385200,9.67438525390625,-29.197723388671875,14.446540832519531,21.397369384765625
1739550878916454100,9.6844541015625,-29.332977294921875,14.802230834960938,21.431785583496094
1739550878926524200,9.694524169921875,-29.423370361328125,14.692626953125,21.217966079711914
1739550878936593200,9.70459326171875,-29.428497314453125,14.545143127441406,21.42994499206543
1739550878946663200,9.7146630859375,-29.298492431640625,14.735038757324219,21.220651626586914
1739550878956732200,9.724732177734374,-28.996307373046875,14.711074829101562,21.065372467041016
1739550878966802200,9.73480224609375,-29.169647216796875,14.485557556152344,21.030065536499023
1739550878976871000,9.744870849609375,-29.179168701171875,14.319229125976562,21.046432495117188
1739550878986940200,9.754940185546875,-28.998382568359375,14.281227111816406,21.17504119873047
1739550878997010000,9.765010009765625,-29.109832763671875,14.660087585449219,21.150188446044922
1739550879007079200,9.7750791015625,-29.274505615234375,14.506935119628906,21.225814819335938
1739550879017149000,9.78514892578125,-29.418853759765625,14.373527526855469,20.966623306274414
1739550879027218200,9.79521826171875,-29.562835693359375,14.259834289550781,21.00027847290039
1739550879037288000,9.805287841796876,-29.411956787109375,13.957344055175781,21.10260009765625
1739550879047357200,9.815357177734375,-29.563568115234375,14.132766723632812,20.789636611938477
1739550879057427200,9.82542724609375,-29.853240966796875,14.040092468261719,20.83601951599121
1739550879067496000,9.835495849609375,-29.198699951171875,13.939773559570312,20.70028305053711
1739550879077565000,9.84556494140625,-29.164581298828125,14.260719299316406,20.854209899902344
1739550879087635000,9.855635009765624,-29.306549072265625,14.21807861328125,20.92607307434082
1739550879097704200,9.8657041015625,-29.275421142578125,14.332176208496094,21.131900787353516
1739550879107774000,9.87577392578125,-29.305633544921875,14.154891967773438,21.12987518310547
1739550879117843200,9.88584326171875,-29.429046630859375,13.999908447265625,21.06612777709961
1739550879127913000,9.895912841796875,-29.094573974609375,13.796539306640625,21.014352798461914
1739550879137982200,9.905982177734375,-29.150115966796875,14.026870727539062,21.06736183166504
1739550879148052000,9.916052001953124,-29.737152099609375,13.721939086914062,21.150575637817383
1739550879158121200,9.926121337890624,-29.395843505859375,14.017890930175781,21.08448600769043
1739550879168190000,9.93618994140625,-29.031219482421875,13.979316711425781,20.95741081237793
1739550879178260000,9.946260009765625,-29.242889404296875,14.219100952148438,21.091882705688477
1739550879188329000,9.956328857421875,-29.078155517578125,14.069908142089844,20.95810890197754
1739550879198399000,9.96639892578125,-29.618133544921875,14.171340942382812,20.701082229614258
1739550879208468000,9.976468017578124,-29.742767333984375,14.435188293457031,20.531476974487305
1739550879218538000,9.9865380859375,-29.147186279296875,14.316795349121094,20.570457458496094
1739550879228607200,9.996607177734376,-29.472991943359375,14.413192749023438,20.392147064208984
1739550879238676000,10.006676025390625,-29.654876708984375,14.632598876953125,19.999794006347656
1739550879248746200,10.016746337890625,-29.903167724609375,14.852691650390625,20.081274032592773
1739550879258815000,10.02681494140625,-29.603729248046875,14.986305236816406,19.881330490112305
1739550879268885200,10.03688525390625,-29.355621337890625,14.996635437011719,19.74588394165039
1739550879278954000,10.0469541015625,-29.039825439453125,15.291969299316406,19.849231719970703
1739550879289024000,10.05702392578125,-29.389862060546875,15.348777770996094,19.83867073059082
1739550879299093000,10.067093017578125,-29.643951416015625,15.60009765625,19.55463218688965
1739550879309163000,10.0771630859375,-29.557891845703125,15.699577331542969,19.562047958374023
1739550879319232300,10.087232177734375,-29.646514892578125,16.008399963378906,19.51250457763672
1739550879329301000,10.097301025390625,-29.447601318359375,16.080970764160156,19.66896629333496
1739550879339371300,10.107371337890624,-29.110137939453125,16.100448608398438,19.66739845275879
1739550879349440000,10.11743994140625,-29.128143310546875,16.425445556640625,19.771265029907227
1739550879359510300,10.12751025390625,-29.215972900390625,16.518478393554688,19.743431091308594
1739550879369579000,10.1375791015625,-29.245208740234375,16.62348175048828,19.969579696655273
1739550879379649300,10.147649169921875,-29.248260498046875,16.552383422851562,20.212726593017578
1739550879389718000,10.157718017578125,-28.995086669921875,16.389869689941406,20.017467498779297
1739550879399788000,10.1677880859375,-28.967437744140625,16.35112762451172,20.001617431640625
1739550879409857000,10.17785693359375,-28.928558349609375,16.56976318359375,19.928531646728516
1739550879419926300,10.18792626953125,-28.585968017578125,16.123130798339844,20.117765426635742
1739550879429996000,10.19799609375,-28.591827392578125,16.328689575195312,20.177026748657227
1739550879440065000,10.20806494140625,-28.604217529296875,16.45477294921875,19.969316482543945
1739550879450135000,10.218135009765625,-28.514251708984375,16.432518005371094,20.03465461730957
1739550879460204000,10.2282041015625,-28.587615966796875,16.459686279296875,19.95748519897461
1739550879470274300,10.2382744140625,-28.503448486328125,16.7667236328125,20.187463760375977
1739550879480343000,10.248343017578126,-28.621612548828125,16.711700439453125,20.258102416992188
1739550879490412000,10.258412109375,-28.204742431640625,16.45831298828125,19.924354553222656
1739550879500482000,10.26848193359375,-28.435089111328125,16.36530303955078,19.89857292175293
1739550879510551300,10.27855126953125,-28.862152099609375,16.64105224609375,19.912729263305664
1739550879520621000,10.28862109375,-29.043548583984375,16.669418334960938,19.864591598510742
1739550879530690300,10.298690185546874,-29.204010009765625,16.663124084472656,19.606143951416016
1739550879540760000,10.308760009765624,-29.210845947265625,16.48040008544922,19.615875244140625
1739550879550829000,10.3188291015625,-28.439239501953125,16.560203552246094,19.455604553222656
1739550879560898000,10.32889794921875,-28.615570068359375,16.631492614746094,19.405502319335938
1739550879570968000,10.338968017578125,-28.535125732421875,16.440269470214844,19.302616119384766
1739550879581037000,10.349037109375,-28.765594482421875,16.68877410888672,19.144765853881836
1739550879591107000,10.359107177734375,-28.963409423828125,16.707618713378906,19.13090705871582
1739550879601176000,10.369176025390624,-28.826446533203125,16.812225341796875,19.3863582611084
1739550879611246000,10.37924609375,-29.006805419921875,16.90277862548828,19.177616119384766
1739550879621315000,10.389315185546875,-29.181915283203125,17.02342987060547,19.00641441345215
1739550879631385000,10.399385009765625,-28.739532470703125,17.007789611816406,19.21084213256836
1739550879641454300,10.409454345703125,-28.640960693359375,17.0477294921875,18.8934383392334
1739550879651523000,10.419523193359375,-28.790924072265625,16.8955078125,19.019020080566406
1739550879661593000,10.429593017578124,-29.105743408203125,16.84131622314453,18.883468627929688
1739550879671662000,10.439662109375,-29.561309814453125,16.789932250976562,18.959867477416992
1739550879681732000,10.449732177734376,-29.042388916015625,17.135940551757812,19.078359603881836
1739550879691801000,10.459801025390625,-29.122100830078125,17.1175537109375,18.765674591064453
1739550879701871000,10.46987109375,-28.972930908203125,17.222694396972656,18.57562255859375
1739550879711940000,10.479940185546875,-29.069488525390625,17.462974548339844,18.6258544921875
1739550879722009000,10.490009033203124,-28.873199462890625,17.742340087890625,18.52361297607422
1739550879732079000,10.5000791015625,-28.773162841796875,18.26860809326172,18.28583335876465
1739550879742148000,10.510148193359376,-28.684234619140625,18.28211212158203,18.114139556884766
1739550879752218000,10.520218017578125,-28.612396240234375,18.289215087890625,18.146827697753906
1739550879762287000,10.530287109375,-28.481475830078125,18.155410766601562,18.201923370361328
1739550879772357000,10.540357177734375,-28.065338134765625,17.892807006835938,17.9946231842041
1739550879782426000,10.550426025390625,-28.409454345703125,17.66620635986328,18.17323112487793
1739550879792495000,10.5604951171875,-28.701385498046875,17.58154296875,18.17597007751465
1739550879802565000,10.570565185546876,-28.817596435546875,17.298301696777344,18.071725845336914
1739550879812634000,10.580634033203125,-29.009124755859375,17.120086669921875,18.12582778930664
1739550879822704000,10.5907041015625,-28.729522705078125,16.773902893066406,18.09722328186035
1739550879832773000,10.600773193359375,-29.028839111328125,16.972137451171875,18.03959846496582
1739550879842843100,10.610843017578125,-29.140411376953125,16.84552764892578,17.805696487426758
1739550879852912000,10.620912109375,-29.171966552734375,16.681556701660156,18.034141540527344
1739550879862981000,10.630981201171876,-28.843719482421875,16.58612060546875,17.880643844604492
1739550879873051100,10.641051025390626,-28.969818115234375,16.67198944091797,17.67701530456543
1739550879883120000,10.6511201171875,-28.879547119140625,16.635452270507812,17.73007583618164
1739550879893190100,10.661190185546875,-28.690216064453125,16.61980438232422,17.536104202270508
1739550879903259100,10.671259033203125,-28.708404541015625,16.792884826660156,17.483539581298828
1739550879913329200,10.6813291015625,-28.477203369140625,16.676353454589844,17.41583251953125
1739550879923398100,10.691398193359374,-29.301605224609375,16.787086486816406,17.5352840423584
1739550879933467100,10.701467041015626,-28.782928466796875,16.793174743652344,17.60808753967285
1739550879943537000,10.711536865234375,-29.115142822265625,17.165451049804688,17.552940368652344
1739550879953606100,10.721606201171875,-28.882171630859375,17.15528106689453,17.557571411132812
1739550879963676200,10.73167626953125,-28.755218505859375,17.36254119873047,17.091466903686523
1739550879973745200,10.7417451171875,-28.857208251953125,17.375938415527344,17.41114616394043
1739550879983815200,10.751815185546874,-28.602996826171875,17.314041137695312,17.518470764160156
1739550879993884200,10.76188427734375,-28.675506591796875,17.40758514404297,17.699052810668945
1739550880003954200,10.7719541015625,-28.567108154296875,17.56421661376953,17.79157257080078
1739550880014023200,10.782023193359375,-28.685943603515625,17.637466430664062,17.746917724609375
1739550880024092200,10.792092041015625,-28.529388427734375,17.84300994873047,17.87202262878418
1739550880034162000,10.802161865234375,-28.554901123046875,17.80046844482422,17.784648895263672
1739550880044231200,10.812231201171874,-28.368377685546875,17.866172790527344,17.84407615661621
1739550880054301000,10.822301025390624,-28.662445068359375,17.99262237548828,17.542253494262695
1739550880064370200,10.8323701171875,-28.530975341796875,17.765708923339844,17.6502742767334
1739550880074440000,10.84243994140625,-28.402313232421875,17.881263732910156,17.67668342590332
1739550880084509200,10.85250927734375,-28.156463623046875,18.072784423828125,17.514991760253906
1739550880094578000,10.862577880859375,-28.136444091796875,18.06407928466797,17.566211700439453
1739550880104648200,10.872648193359375,-28.050872802734375,18.27764892578125,17.939117431640625
1739550880114717000,10.882717041015624,-28.214813232421875,18.386215209960938,17.6624813079834
1739550880124787200,10.892787109375,-27.800506591796875,18.462379455566406,17.6781063079834
1739550880134856200,10.902856201171875,-27.830657958984375,18.183380126953125,17.578075408935547
1739550880144925200,10.91292529296875,-28.040008544921875,18.26392364501953,17.608989715576172
1739550880154995200,10.9229951171875,-28.040985107421875,18.388999938964844,17.511499404907227
1739550880165064200,10.933064208984375,-28.161590576171875,18.44353485107422,17.348011016845703
1739550880175134200,10.94313427734375,-27.874298095703125,18.48157501220703,17.361923217773438
1739550880185203200,10.953203125,-27.937286376953125,18.309371948242188,17.511404037475586
1739550880195273200,10.963273193359376,-27.959808349609375,18.34429931640625,17.672157287597656
1739550880205342000,10.973342041015625,-27.938934326171875,18.383163452148438,17.282752990722656
1739550880215412200,10.983412109375,-27.956512451171875,18.501495361328125,17.47189712524414
1739550880225482000,10.99348193359375,-27.675689697265625,18.35643768310547,17.313270568847656
1739550880235551200,11.00355126953125,-28.012115478515625,18.50188446044922,17.22225570678711
1739550880245621000,11.01362109375,-27.828094482421875,18.562721252441406,17.330224990844727
1739550880255690000,11.02368994140625,-28.359283447265625,18.59589385986328,17.326744079589844
1739550880265760300,11.03376025390625,-28.182769775390625,18.436180114746094,17.298845291137695
1739550880275829000,11.0438291015625,-28.266754150390625,18.175888061523438,17.318925857543945
1739550880285898000,11.05389794921875,-28.563568115234375,18.2279052734375,17.192602157592773
1739550880295968000,11.063968017578125,-28.400970458984375,18.226402282714844,17.233028411865234
1739550880306037000,11.074037109375,-28.228668212890625,18.076637268066406,17.515960693359375
1739550880316107000,11.08410693359375,-27.764739990234375,18.044227600097656,17.32352066040039
1739550880326176300,11.09417626953125,-27.993560791015625,18.001220703125,17.69978904724121
1739550880336246000,11.10424609375,-27.646453857421875,17.949813842773438,17.623239517211914
1739550880346315300,11.114315185546875,-27.915191650390625,17.844406127929688,17.760149002075195
1739550880356384000,11.124384033203125,-28.044158935546875,17.93035125732422,17.699342727661133
1739550880366454000,11.1344541015625,-27.815643310546875,17.74962615966797,17.977510452270508
1739550880376523000,11.14452294921875,-27.755279541015625,17.8607177734375,17.758827209472656
1739550880386593000,11.154593017578126,-27.593414306640625,18.00121307373047,17.469993591308594
1739550880396662000,11.164662109375,-27.948883056640625,17.929534912109375,17.705781936645508
1739550880406732000,11.17473193359375,-27.762664794921875,17.80133056640625,18.001251220703125
1739550880416801000,11.184801025390625,-27.785980224609375,17.671401977539062,18.239620208740234
1739550880426870000,11.1948701171875,-27.701080322265625,17.67438507080078,18.303260803222656
1739550880436940000,11.20493994140625,-27.782012939453125,17.71070098876953,18.195205688476562
1739550880447009000,11.215009033203126,-27.707916259765625,17.4093017578125,18.255754470825195
1739550880457079300,11.225079345703126,-27.439300537109375,17.173316955566406,18.16034507751465
1739550880467148000,11.23514794921875,-27.818695068359375,16.92639923095703,18.247905731201172
1739550880477218000,11.245218017578125,-27.937042236328125,17.013816833496094,18.235931396484375
1739550880487287000,11.255287109375,-27.736175537109375,16.700164794921875,18.09804916381836
1739550880497356300,11.265356201171874,-27.766082763671875,16.703323364257812,18.330364227294922
1739550880507426000,11.275426025390624,-27.916656494140625,17.070884704589844,18.39457130432129
1739550880517495000,11.2854951171875,-27.782440185546875,17.183120727539062,18.52745246887207
1739550880527565000,11.29556494140625,-27.667938232421875,17.041656494140625,18.346908569335938
1739550880537634000,11.305634033203125,-27.745635986328125,17.033615112304688,18.45068359375
1739550880547704000,11.3157041015625,-27.805877685546875,17.179893493652344,18.280303955078125
1739550880557773000,11.32577294921875,-27.898651123046875,17.074447631835938,18.08754539489746
1739550880567842000,11.335842041015624,-27.974090576171875,17.02434539794922,18.073762893676758
1739550880577912000,11.345912109375,-27.974090576171875,17.02434539794922,18.073762893676758
1739550880587981000,11.35598095703125,-28.412689208984375,17.061264038085938,18.23192596435547
1739550880598051000,11.366051025390625,-27.952301025390625,17.100624084472656,18.586437225341797
1739550880608120000,11.3761201171875,-28.449737548828125,16.444931030273438,18.173540115356445
1739550880618190000,11.386190185546875,-28.367401123046875,16.04302978515625,18.3580379486084
1739550880628259000,11.396259033203124,-28.804107666015625,15.885177612304688,18.3228816986084
1739550880638328000,11.406328125,-28.735137939453125,15.587043762207031,18.16643714904785
1739550880648398000,11.416398193359376,-28.867767333984375,15.3944091796875,18.149988174438477
1739550880658467000,11.426467041015625,-28.626190185546875,15.375869750976562,18.179244995117188
1739550880668537000,11.436537109375,-28.774200439453125,15.183219909667969,18.19298553466797
1739550880678606000,11.446606201171875,-29.073944091796875,15.031982421875,18.11514663696289
1739550880688675000,11.456675048828124,-29.276214599609375,14.988822937011719,18.11592674255371
1739550880698745000,11.4667451171875,-29.232513427734375,15.068901062011719,18.242238998413086
1739550880708814000,11.47681396484375,-29.127471923828125,15.005989074707031,18.166683197021484
1739550880718884000,11.486884033203125,-29.044036865234375,15.034820556640625,18.116186141967773
1739550880728953000,11.496953125,-28.817962646484375,15.140625,18.160083770751953
1739550880739022800,11.50702294921875,-28.992523193359375,15.018806457519531,17.96474838256836
1739550880749092000,11.517092041015625,-28.919525146484375,15.32379150390625,17.865991592407227
1739550880759161000,11.5271611328125,-28.848236083984375,15.373771667480469,18.075950622558594
1739550880769231000,11.537231201171876,-28.750579833984375,15.330718994140625,18.09993553161621
1739550880779300000,11.547300048828125,-28.981353759765625,15.252937316894531,18.501047134399414
1739550880789370000,11.5573701171875,-29.147430419921875,15.215644836425781,18.41333770751953
1739550880799438800,11.56743896484375,-29.398590087890625,15.061935424804688,18.23600959777832
1739550880809509000,11.577509033203125,-28.917022705078125,15.175643920898438,18.389516830444336
1739550880819578000,11.587578125,-29.013153076171875,15.314361572265625,18.58028793334961
1739550880829647000,11.597647216796876,-28.749786376953125,15.34710693359375,18.37425994873047
1739550880839717000,11.607717041015626,-28.984100341796875,15.35601806640625,18.477506637573242
1739550880849786000,11.6177861328125,-28.874664306640625,15.304435729980469,18.68543243408203
1739550880859856100,11.627856201171875,-28.687591552734375,15.341835021972656,18.48179817199707
1739550880869925000,11.637925048828125,-28.932281494140625,15.491058349609375,18.464622497558594
1739550880879994000,11.647994140625,-28.967132568359375,15.502288818359375,18.432674407958984
1739550880890064100,11.658064208984374,-28.432464599609375,15.214508056640625,18.424869537353516
1739550880900133000,11.668133056640626,-28.402191162109375,15.08880615234375,18.44146728515625
1739550880910203000,11.678202880859375,-28.971466064453125,15.288314819335938,18.441574096679688
1739550880920272100,11.688272216796875,-28.791961669921875,15.635467529296875,18.191431045532227
1739550880930342000,11.698341796875,-28.860931396484375,16.034103393554688,18.223896026611328
1739550880940411100,11.7084111328125,-28.584381103515625,15.762519836425781,18.283775329589844
1739550880950480000,11.71847998046875,-28.652008056640625,15.65472412109375,18.13385772705078
1739550880960550100,11.728550048828126,-28.681793212890625,15.939376831054688,18.15934944152832
1739550880970619000,11.738618896484375,-28.839447021484375,15.857902526855469,18.10692596435547
1739550880980689200,11.748689208984375,-28.761444091796875,15.973274230957031,18.104482650756836
1739550880990758100,11.758758056640625,-28.917572021484375,16.173316955566406,18.200176239013672
1739550881000828000,11.768827880859375,-28.708770751953125,15.969535827636719,18.210491180419922
1739550881010897200,11.778897216796874,-28.464996337890625,16.147781372070312,18.25948143005371
1739550881020966100,11.788966064453126,-28.253570556640625,16.045494079589844,18.282136917114258
1739550881031036200,11.7990361328125,-28.365936279296875,16.123443603515625,18.195655822753906
1739550881041105200,11.809105224609375,-28.311370849609375,16.071380615234375,18.21159553527832
1739550881051175200,11.819175048828125,-28.087188720703125,16.3636474609375,18.1209659576416
1739550881061244000,11.829243896484375,-28.288055419921875,16.584495544433594,18.43302345275879
1739550881071313200,11.839313232421874,-28.415191650390625,16.28459930419922,18.175745010375977
1739550881081383000,11.8493828125,-28.342864990234375,16.51215362548828,18.32705307006836
1739550881091452200,11.8594521484375,-28.557586669921875,16.538253784179688,18.21444320678711
1739550881101522000,11.86952197265625,-28.401336669921875,16.602027893066406,18.31035041809082
1739550881111591200,11.879591064453125,-28.249786376953125,16.45849609375,17.995542526245117
1739550881121660000,11.889659912109375,-28.456756591796875,16.59521484375,18.011587142944336
1739550881131730200,11.899730224609375,-28.594512939453125,16.72650909423828,18.122486114501953
1739550881141799000,11.909798828125,-29.029327392578125,16.73565673828125,18.120187759399414
1739550881151869200,11.919869140625,-28.667694091796875,17.25438690185547,18.142850875854492
1739550881161938000,11.92993798828125,-28.713043212890625,17.05316925048828,17.931821823120117
1739550881172008000,11.940008056640625,-28.279327392578125,17.079833984375,17.978944778442383
1739550881182077200,11.9500771484375,-28.691009521484375,16.89600372314453,17.73723793029785
1739550881192146200,11.960146240234375,-28.610504150390625,16.977149963378906,17.679929733276367
1739550881202216200,11.97021630859375,-28.494110107421875,16.89038848876953,17.775344848632812
1739550881212285000,11.980284912109376,-28.660064697265625,17.003662109375,17.91182518005371
1739550881222355200,11.990355224609376,-28.608428955078125,16.896072387695312,17.690595626831055
1739550881232422700,12.000422607421875,-28.986968994140625,16.90167999267578,17.46929359436035
1739550881242492700,12.01049267578125,-28.724212646484375,16.893699645996094,17.54209327697754
1739550881252562000,12.02056201171875,-28.686492919921875,16.81268310546875,17.36408805847168
1739550881262630700,12.030630615234376,-28.718475341796875,16.76923370361328,17.356544494628906
1739550881272700700,12.04070068359375,-28.680206298828125,16.82648468017578,17.596742630004883
1739550881282769700,12.050769775390625,-28.933624267578125,16.917739868164062,17.478988647460938
1739550881292839700,12.060839599609375,-28.941619873046875,16.84870147705078,17.32147979736328
1739550881302908700,12.07090869140625,-29.163848876953125,16.979759216308594,17.15220832824707
1739550881312977700,12.080977783203124,-29.122528076171875,16.9876708984375,17.111902236938477
1739550881323047700,12.091047607421874,-29.488800048828125,17.3128662109375,16.784957885742188
1739550881333116700,12.10111669921875,-29.211578369140625,17.290512084960938,16.938716888427734
1739550881343186700,12.111186767578126,-29.323638916015625,17.574302673339844,16.65302276611328
1739550881353255700,12.121255615234375,-28.690704345703125,17.776611328125,16.67976951599121
1739550881363325700,12.13132568359375,-28.880523681640625,17.87017059326172,16.58478355407715
1739550881373394700,12.141394775390625,-28.734527587890625,17.856101989746094,16.31501007080078
1739550881383463700,12.151463623046874,-28.941497802734375,17.68518829345703,16.108341217041016
1739550881393533700,12.16153369140625,-29.186798095703125,17.489410400390625,15.977398872375488
1739550881403602700,12.171602783203125,-29.414398193359375,17.67224884033203,16.11458969116211
1739550881413672700,12.181672607421875,-29.313079833984375,17.497100830078125,16.429418563842773
1739550881423741700,12.19174169921875,-29.639801025390625,17.228668212890625,16.08342933654785
1739550881433810700,12.201810791015625,-29.499359130859375,16.92157745361328,16.37574005126953
1739550881443880700,12.211880615234374,-29.879119873046875,16.744857788085938,16.177705764770508
1739550881453949700,12.22194970703125,-30.185577392578125,16.547569274902344,16.12704086303711
1739550881464019700,12.232019775390626,-29.930694580078125,16.44945526123047,16.35102653503418
1739550881474088700,12.242088623046875,-30.065032958984375,16.423179626464844,16.10967254638672
1739550881484158700,12.25215869140625,-30.403594970703125,16.250946044921875,15.952322959899902
1739550881494227700,12.262227783203125,-30.295501708984375,15.922859191894531,15.922898292541504
1739550881504296700,12.272296630859374,-30.389434814453125,15.824432373046875,15.675353050231934
1739550881514366700,12.28236669921875,-30.682586669921875,15.807853698730469,15.919880867004395
1739550881524435700,12.292435791015626,-30.428741455078125,15.560073852539062,16.0152587890625
1739550881534505700,12.302505615234375,-30.527008056640625,15.324378967285156,16.026575088500977
1739550881544574700,12.31257470703125,-30.447601318359375,15.49957275390625,15.988524436950684
1739550881554643700,12.322643798828125,-30.190155029296875,15.611137390136719,16.294158935546875
1739550881564713700,12.332713623046875,-30.353118896484375,15.489707946777344,16.28190803527832
1739550881574782700,12.34278271484375,-30.570281982421875,15.655105590820312,16.319421768188477
1739550881584852700,12.352852783203126,-30.716156005859375,15.639678955078125,16.1566104888916
1739550881594921500,12.36292138671875,-30.546478271484375,15.815315246582031,15.77539348602295
1739550881604991700,12.37299169921875,-30.432830810546875,15.631744384765625,15.313969612121582
1739550881615060700,12.383060791015625,-30.284942626953125,15.505409240722656,15.734436988830566
1739550881625129700,12.393129638671875,-30.654937744140625,15.954414367675781,15.64400577545166
1739550881635199700,12.40319970703125,-30.259674072265625,16.01374053955078,15.752579689025879
1739550881645268700,12.413268798828126,-30.467193603515625,16.323936462402344,15.747883796691895
1739550881655338800,12.4233388671875,-30.754608154296875,16.281585693359375,15.921988487243652
1739550881665407700,12.43340771484375,-30.823211669921875,16.482391357421875,15.689183235168457
1739550881675476700,12.443476806640625,-30.588348388671875,16.31505584716797,15.750897407531738
1739550881685546800,12.453546630859375,-30.362762451171875,16.20482635498047,15.76014232635498
1739550881695615700,12.46361572265625,-30.328643798828125,16.489669799804688,15.845780372619629
1739550881705685500,12.473685546875,-30.402130126953125,16.49378204345703,16.043651580810547
1739550881715754800,12.483754638671876,-29.949676513671875,16.598411560058594,16.20406150817871
1739550881725823700,12.49382373046875,-29.929168701171875,16.678329467773438,16.08241844177246
1739550881735893800,12.503893798828125,-29.849029541015625,16.853408813476562,16.110870361328125
1739550881745962500,12.51396240234375,-29.982757568359375,17.14128875732422,16.15667152404785
1739550881756032800,12.52403271484375,-29.995391845703125,17.308303833007812,16.014820098876953
1739550881766101500,12.5341015625,-29.770660400390625,17.238876342773438,16.18566131591797
1739550881776171800,12.544171875,-29.840911865234375,16.902069091796875,15.909096717834473
1739550881786240500,12.554240478515625,-30.034759521484375,17.181045532226562,16.248367309570312
1739550881796309800,12.564309814453125,-30.266204833984375,17.322128295898438,16.392793655395508
1739550881806379800,12.5743798828125,-30.322479248046875,17.326278686523438,16.24996566772461
1739550881816448800,12.58444873046875,-29.926055908203125,17.43262481689453,16.20734977722168
1739550881826518800,12.594518798828124,-30.136260986328125,17.632781982421875,16.347793579101562
1739550881836587800,12.604587890625,-29.814300537109375,17.36565399169922,16.121578216552734
1739550881846656800,12.61465673828125,-29.681671142578125,17.43579864501953,15.973864555358887
1739550881856726500,12.6247265625,-29.593841552734375,17.756698608398438,15.990473747253418
1739550881866795800,12.634795654296875,-29.483734130859375,17.717208862304688,16.117197036743164
1739550881876865500,12.644865478515625,-29.446807861328125,17.5440673828125,16.035066604614258
1739550881886934800,12.654934814453124,-29.388153076171875,17.70581817626953,15.907269477844238
1739550881897003800,12.665003662109376,-29.828704833984375,17.71820831298828,15.858834266662598
1739550881907073800,12.67507373046875,-29.986053466796875,17.425918579101562,15.76611614227295
1739550881917142500,12.685142578125,-29.908172607421875,17.431427001953125,15.729020118713379
1739550881927212800,12.695212890625,-29.692779541015625,17.448341369628906,15.641535758972168
1739550881937281500,12.705281494140625,-29.825103759765625,17.62439727783203,15.897015571594238
1739550881947350800,12.715350830078124,-29.470611572265625,17.386253356933594,15.897648811340332
1739550881957420500,12.725420654296874,-29.592071533203125,17.543006896972656,16.08812713623047
1739550881967489800,12.73548974609375,-29.430877685546875,17.397422790527344,16.206186294555664
1739550881977559800,12.745559814453125,-29.453826904296875,17.438064575195312,16.22779083251953
1739550881987628800,12.75562890625,-29.463897705078125,17.408309936523438,16.077808380126953
1739550881997698800,12.76569873046875,-29.439727783203125,17.33293914794922,16.04493522644043
1739550882007767600,12.775767578125,-29.588470458984375,17.114791870117188,16.131879806518555
1739550882017836800,12.7858369140625,-29.359771728515625,16.954551696777344,16.119848251342773
1739550882027906600,12.795906494140626,-29.424591064453125,16.924911499023438,16.088512420654297
1739550882037975800,12.805975830078125,-29.483734130859375,16.95905303955078,16.34428596496582
1739550882048045600,12.816045654296875,-30.160064697265625,16.729759216308594,16.42166519165039
