time,seconds_elapsed,z,y,x
1738005772250720800,0.017720703125,0.024071797728538513,0.01229088008403778,-0.010191704146564007
1738005772260789800,0.027789794921875,0.012249225750565529,-0.0236990787088871,-0.010292106308043003
1738005772270858800,0.037858642578125,0.011789031326770782,-0.04825741797685623,-0.004588679410517216
1738005772280926700,0.0479267578125,0.00523890508338809,-0.0507119782269001,0.0040872832760214806
1738005772290995700,0.05799560546875,0.001738712191581726,-0.050199318677186966,0.0016036191955208778
1738005772301064700,0.068064697265625,0.005493892822414637,-0.0366990864276886,-0.013999542221426964
1738005772311134000,0.078134033203125,0.007013225462287664,-0.008291147649288177,-0.023933399468660355
1738005772321202000,0.088201904296875,0.010564692318439484,0.008710100315511227,-0.02202456444501877
1738005772331270700,0.098270751953125,0.007184075191617012,0.005604587495326996,-0.01733367145061493
1738005772341340000,0.10833984375,0.010746465064585209,0.006268044002354145,-0.0045378440991044044
1738005772351408600,0.11840869140625,0.011977110989391804,0.003764139488339424,0.0067172059789299965
1738005772361476600,0.1284765625,0.006070772651582956,-0.0001602708362042904,0.015427188947796822
1738005772371545900,0.1385458984375,-0.002122175646945834,-0.004155012778937817,0.015176053158938885
1738005772381614600,0.148614501953125,-0.004830590914934874,-0.005594195798039436,0.006572111509740353
1738005772391683800,0.158683837890625,-0.013583069667220116,-0.013335738331079483,0.00010675471276044846
1738005772401752800,0.1687529296875,-0.01907956786453724,-0.007563336752355099,-0.0130950678139925
1738005772411820500,0.178820556640625,-0.024169666692614555,0.00876956433057785,-0.021471507847309113
1738005772421889800,0.188889892578125,-0.026075076311826706,0.02776315249502659,-0.023884516209363937
1738005772431958800,0.198958740234375,-0.01894393190741539,0.042432911694049835,-0.027821466326713562
1738005772442027800,0.20902783203125,-0.019846146926283836,0.050116799771785736,-0.019986391067504883
1738005772452095700,0.219095703125,-0.02143339067697525,0.04725949466228485,-0.01858503744006157
1738005772462164700,0.229164794921875,-0.018360022455453873,0.03672531992197037,-0.01165070105344057
1738005772472233700,0.239233642578125,-0.017639636993408203,0.031827233731746674,-0.010702616535127163
1738005772482302700,0.249302734375,-0.025279588997364044,0.021038373932242393,-0.017630530521273613
1738005772492371000,0.259370849609375,-0.030997129157185555,0.004904144909232855,-0.03921838104724884
1738005772502439700,0.269439697265625,-0.034116677939891815,-0.01063314825296402,-0.05274166166782379
1738005772512509000,0.279509033203125,-0.03696945682168007,-0.02103652060031891,-0.05795985460281372
1738005772522577700,0.28957763671875,-0.03802262991666794,-0.02478017285466194,-0.04954513534903526
1738005772532645600,0.299645751953125,-0.035473719239234924,-0.020902609452605247,-0.03781311213970184
1738005772542715000,0.30971484375,-0.031229868531227112,-0.007514451630413532,-0.02722516469657421
1738005772552783600,0.31978369140625,-0.027630340307950974,0.0035280794836580753,-0.015286747366189957
1738005772562852900,0.329852783203125,-0.02339857816696167,0.001656409353017807,-0.00033602770417928696
1738005772572920800,0.3399208984375,-0.018069326877593994,0.011126609519124031,0.007337870541960001
1738005772582989600,0.349989501953125,-0.015090007334947586,0.02366015873849392,0.007099020294845104
1738005772593058800,0.360058837890625,-0.009082449600100517,0.01837298460304737,0.006922186352312565
1738005772603127800,0.3701279296875,-0.01158430427312851,0.01673947460949421,-0.003840796649456024
1738005772613195800,0.38019580078125,-0.010887089185416698,-0.003131968667730689,-0.019087394699454308
1738005772623261000,0.390260986328125,-0.011515021324157715,-0.01333269290626049,-0.03255593031644821
1738005772633330200,0.400330078125,-0.00958849024027586,-0.020037733018398285,-0.03235646337270737
1738005772643399000,0.41039892578125,-0.007334309630095959,-0.015811871737241745,-0.012511119246482849
1738005772653467100,0.420467041015625,-0.008966827765107155,-0.011838434264063835,0.01263631135225296
1738005772663536000,0.4305361328125,-0.006292275153100491,-0.012833094224333763,0.031825654208660126
1738005772673605000,0.440605224609375,-0.008673939853906631,-0.013469323515892029,0.036991387605667114
1738005772683674000,0.450674072265625,-0.01057308167219162,-0.017987055703997612,0.02957533299922943
1738005772693743000,0.4607431640625,-0.012942761182785034,-0.027209049090743065,0.0151519188657403
1738005772703811000,0.47081103515625,-0.013146288692951202,-0.032765936106443405,-0.0019161645323038101
1738005772713880000,0.480880126953125,-0.015576690435409546,-0.04098258912563324,-0.018554531037807465
1738005772723949300,0.49094921875,-0.014024129137396812,-0.052716415375471115,-0.040581949055194855
1738005772734018000,0.50101806640625,-0.015550119802355766,-0.05949549004435539,-0.05354435741901398
1738005772744086000,0.5110859375,-0.013939565978944302,-0.03885503485798836,-0.06884113699197769
1738005772754155300,0.5211552734375,-0.01889863796532154,-0.02357567846775055,-0.07314587384462357
1738005772764224000,0.53122412109375,-0.020658597350120544,-0.0005890633910894394,-0.07156987488269806
1738005772774293200,0.541293212890625,-0.01653389260172844,0.029890015721321106,-0.057891879230737686
1738005772784361200,0.551361328125,-0.010966204106807709,0.04927642270922661,-0.025830266997218132
1738005772794430000,0.561429931640625,-0.008590131998062134,0.053349725902080536,0.003900463692843914
1738005772804499200,0.571499267578125,-0.01078353263437748,0.032737936824560165,0.017829395830631256
1738005772814568000,0.58156787109375,-0.024225838482379913,-0.012433003634214401,0.013349691405892372
1738005772824636000,0.591635986328125,-0.035686854273080826,-0.06237727403640747,-0.0014573177322745323
1738005772834705200,0.601705078125,-0.0419229120016098,-0.09230854362249374,-0.03318808227777481
1738005772844774000,0.61177392578125,-0.04363784193992615,-0.09070625901222229,-0.06154172122478485
1738005772854843100,0.621843017578125,-0.039900630712509155,-0.07108861207962036,-0.08202249556779861
1738005772864911000,0.6319111328125,-0.040103811770677567,-0.053005464375019073,-0.08532550930976868
1738005772874980000,0.64197998046875,-0.02621782198548317,-0.03958100080490112,-0.07336337864398956
1738005772885049000,0.652049072265625,-0.019915472716093063,-0.02893047407269478,-0.04775622487068176
1738005772895118000,0.6621181640625,-0.012658890336751938,-0.012820480391383171,-0.01669551059603691
1738005772905187000,0.67218701171875,-0.010928470641374588,-0.01786685362458229,0.01591389998793602
1738005772915255000,0.682255126953125,-0.013968202285468578,-0.035518284887075424,0.04403501749038696
1738005772925324300,0.69232421875,-0.019579976797103882,-0.04967110604047775,0.05256570130586624
1738005772935393000,0.70239306640625,-0.02438192069530487,-0.048540595918893814,0.038688767701387405
1738005772945462000,0.7124619140625,-0.024958433583378792,-0.05311490595340729,0.013311655260622501
1738005772955530200,0.7225302734375,-0.035085901618003845,-0.0627257227897644,-0.016834795475006104
1738005772965599000,0.732598876953125,-0.03995278850197792,-0.06314495950937271,-0.038092464208602905
1738005772975668200,0.742668212890625,-0.0427967794239521,-0.04648102447390556,-0.05127324163913727
1738005772985737000,0.752737060546875,-0.040134232491254807,-0.027510158717632294,-0.05401114001870155
1738005772995805000,0.762804931640625,-0.04166794568300247,-0.019320139661431313,-0.052152786403894424
1738005773005874200,0.772874267578125,-0.034125469624996185,-0.008708618581295013,-0.055825941264629364
1738005773015943200,0.782943115234375,-0.03684988245368004,0.0031869234517216682,-0.059012413024902344
1738005773026012200,0.79301220703125,-0.033697459846735,0.016367388889193535,-0.0533955916762352
1738005773036080000,0.803080078125,-0.0314156636595726,0.01881376840174198,-0.04797765612602234
1738005773046149000,0.813149169921875,-0.03705526888370514,0.018291311338543892,-0.035430096089839935
1738005773056218000,0.823218017578125,-0.04230941832065582,-0.0109286243095994,-0.03505432605743408
1738005773066287000,0.833287109375,-0.04767865687608719,-0.038840364664793015,-0.03310298174619675
1738005773076356000,0.843356201171875,-0.05046219378709793,-0.051054418087005615,-0.02307910844683647
1738005773086424000,0.853424072265625,-0.05219806730747223,-0.060134157538414,-0.015910429880023003
1738005773096493000,0.8634931640625,-0.04897084832191467,-0.054623812437057495,-0.006904153153300285
1738005773106562000,0.87356201171875,-0.04016775265336037,-0.029316071420907974,0.0032192543148994446
1738005773116631000,0.883631103515625,-0.029500192031264305,0.021334057673811913,0.010620711371302605
1738005773126699000,0.893698974609375,-0.019483448937535286,0.0535808764398098,-0.0011124936863780022
1738005773136768000,0.90376806640625,-0.010316582396626472,0.06396561115980148,-0.009144586510956287
1738005773146837000,0.9138369140625,-0.005974137224256992,0.052168719470500946,-0.0020122118294239044
1738005773156906200,0.92390625,-0.0037850188091397285,0.011869766749441624,0.0015178089961409569
1738005773166974000,0.933973876953125,-0.011238321661949158,-0.007079261355102062,0.008359106257557869
1738005773177043200,0.944043212890625,-0.009727244265377522,-0.029944095760583878,0.014414869248867035
1738005773187112200,0.9541123046875,-0.013434450142085552,-0.04563427343964577,0.013884197920560837
1738005773197181000,0.964180908203125,-0.01585419848561287,-0.04120650142431259,0.010525684803724289
1738005773207250200,0.974250244140625,-0.009977638721466064,-0.023777445778250694,0.00889587216079235
1738005773217318100,0.984318115234375,-0.0017463406547904015,0.004839019384235144,0.011199505999684334
1738005773227387100,0.99438720703125,-0.0027428618632256985,0.028915531933307648,0.024042975157499313
1738005773237456100,1.0044560546875,0.001692100428044796,0.044853486120700836,0.035914283245801926
1738005773247524900,1.01452490234375,0.002463974989950657,0.030232401564717293,0.03730464726686478
1738005773257593000,1.024593017578125,-0.0005102432332932949,0.008777974173426628,0.030365511775016785
1738005773267662000,1.034662109375,-0.010207431390881538,-0.024713370949029922,0.01325406413525343
1738005773277731000,1.04473095703125,-0.013174725696444511,-0.04848314821720123,0.0039585670456290245
1738005773287800000,1.054800048828125,-0.015340792015194893,-0.044221922755241394,0.004751112312078476
1738005773297869300,1.064869384765625,-0.013166321441531181,-0.0281918253749609,0.015024255961179733
1738005773307937000,1.07493701171875,-0.011215077713131905,-0.011028511449694633,0.03699927031993866
1738005773318006000,1.085006103515625,-0.007565481588244438,0.01642761379480362,0.04735869914293289
1738005773328075300,1.0950751953125,-0.0043367356993258,0.0412486270070076,0.0431503988802433
1738005773338144000,1.10514404296875,-0.0029811866115778685,0.05093055218458176,0.025042500346899033
1738005773348212000,1.1152119140625,-0.0038871143478900194,0.050126731395721436,0.0013585593551397324
1738005773358281200,1.12528125,-0.004752109292894602,0.04703373461961746,-0.023362765088677406
1738005773368350000,1.135349853515625,-0.0033748196437954903,0.03198616951704025,-0.024722058326005936
1738005773378419200,1.145419189453125,-0.009487306699156761,0.004819795023649931,-0.02384507656097412
1738005773388488000,1.155488037109375,-0.018272515386343002,-0.02359617128968239,-0.017386890947818756
1738005773398556000,1.165555908203125,-0.02156817726790905,-0.04641413688659668,-0.00751455407589674
1738005773408625200,1.175625244140625,-0.019900692626833916,-0.029528971761465073,0.00487934798002243
1738005773418694100,1.185694091796875,-0.01854168064892292,-0.003807894652709365,0.01225124392658472
1738005773428763100,1.19576318359375,-0.012956695631146431,0.00242624431848526,0.01616528443992138
1738005773438832000,1.20583203125,-0.0074998787604272366,0.009143003262579441,0.0010089678689837456
1738005773448900000,1.215900146484375,-0.00502167409285903,0.012654498219490051,-0.007907970808446407
1738005773458969000,1.225968994140625,-0.0023161687422543764,0.008041104301810265,-0.0043704928830266
1738005773469038000,1.2360380859375,0.002426192630082369,0.010098609142005444,0.010274220257997513
1738005773479107000,1.246107177734375,-0.0010212692432105541,-0.001571629662066698,0.023702677339315414
1738005773489175000,1.256175048828125,-0.004600201733410358,-0.023764649406075478,0.026916220784187317
1738005773499244000,1.266244140625,-0.011702319607138634,-0.044508274644613266,0.007161157671362162
1738005773509313000,1.27631298828125,-0.016588244587183,-0.05512300506234169,-0.01014050655066967
1738005773519382000,1.286382080078125,-0.015074504539370537,-0.05452379584312439,-0.022339381277561188
1738005773529451000,1.296450927734375,-0.008516736328601837,-0.03449442610144615,-0.013714203611016273
1738005773539519000,1.30651904296875,0.00005384907126426697,0.008108162321150303,0.0116388238966465
1738005773549588200,1.316588134765625,0.0023290147073566914,0.034843865782022476,0.040740005671978
1738005773559657200,1.3266572265625,0.00826280377805233,0.03782154619693756,0.06152491271495819
1738005773569726000,1.336725830078125,0.007730541285127401,0.044728633016347885,0.06540179252624512
1738005773579795200,1.346795166015625,0.008584083989262581,0.038534387946128845,0.04736846685409546
1738005773589863200,1.35686328125,0.0018310733139514923,0.01589515432715416,0.013628751039505005
1738005773599932200,1.36693212890625,-0.0009772302582859993,-0.010623805224895477,-0.01792544685304165
1738005773610001200,1.377001220703125,-0.006585989147424698,-0.01936975307762623,-0.047605812549591064
1738005773620070000,1.38706982421875,-0.01138314139097929,-0.030519608408212662,-0.0520988330245018
1738005773630139100,1.39713916015625,-0.011283942498266697,-0.039941463619470596,-0.039378099143505096
1738005773640207400,1.407207275390625,-0.014386525377631187,-0.037214651703834534,-0.02212720550596714
1738005773650276000,1.417276123046875,-0.01653137244284153,-0.030928056687116623,-0.001950947567820549
1738005773660345300,1.427345458984375,-0.012571519240736961,-0.023286115378141403,0.007256398443132639
1738005773670414300,1.437414306640625,-0.007938308641314507,-0.0028986630495637655,0.006606691516935825
1738005773680483000,1.447483154296875,-0.003337698057293892,0.01628967747092247,-0.005633994936943054
1738005773690551300,1.45755126953125,-0.0022099411580711603,0.020718611776828766,-0.011401509866118431
1738005773700620300,1.467620361328125,-0.0025529561098665,0.023670725524425507,-0.015099043026566505
1738005773710689300,1.477689208984375,-0.0012288950383663177,0.03095186874270439,-0.007087236270308495
1738005773720758300,1.48775830078125,-0.0053498707711696625,0.033315956592559814,-0.013582952320575714
1738005773730827000,1.497826904296875,-0.0031835453119128942,0.013613514602184296,-0.031183680519461632
1738005773740895200,1.507895263671875,-0.011388478800654411,-0.006819321308284998,-0.0346660315990448
1738005773750964200,1.517964111328125,-0.01763199269771576,-0.02265074849128723,-0.04055427759885788
1738005773761033200,1.528033203125,-0.021931666880846024,-0.03252201899886131,-0.03447774052619934
1738005773771102200,1.538102294921875,-0.02304815873503685,-0.03130246698856354,-0.014161031693220139
1738005773781171200,1.548171142578125,-0.01864728331565857,-0.03131098672747612,0.0012967539951205254
1738005773791239200,1.5582392578125,-0.01732126623392105,-0.023074926808476448,-0.005195211619138718
1738005773801308200,1.56830810546875,-0.020775385200977325,-0.0032460950314998627,-0.013472847640514374
1738005773811377400,1.57837744140625,-0.019025156274437904,0.010870255529880524,-0.01944594830274582
1738005773821446100,1.588446044921875,-0.01527089811861515,0.02006535232067108,-0.016340170055627823
1738005773831515400,1.598515380859375,-0.016343258321285248,0.023215513676404953,-0.012629679404199123
1738005773841583400,1.608583251953125,-0.02425284869968891,0.015310184098780155,-0.013220901601016521
1738005773851652000,1.618652099609375,-0.027504753321409225,-0.009031986817717552,-0.015511034987866879
1738005773861721300,1.628721435546875,-0.0310978926718235,-0.029563359916210175,-0.0218682661652565
1738005773871790000,1.6387900390625,-0.03559540584683418,-0.03248327970504761,-0.02331247739493847
1738005773881859300,1.648859375,-0.03159454092383385,-0.01023310236632824,-0.01700185053050518
1738005773891928300,1.65892822265625,-0.02936442382633686,0.016494126990437508,0.0022268788889050484
1738005773901996000,1.66899609375,-0.018203383311629295,0.03686438128352165,0.0177906583994627
1738005773912065300,1.679065185546875,-0.013362554833292961,0.055642593652009964,0.018781088292598724
1738005773922134300,1.68913427734375,-0.012196889147162437,0.06262194365262985,0.01664017327129841
1738005773932203300,1.699203369140625,-0.010222784243524075,0.04930809140205383,0.026349082589149475
1738005773942272300,1.709272216796875,-0.007292774505913258,0.03723464906215668,0.030789904296398163
1738005773952340200,1.71934033203125,-0.006784657947719097,0.022637348622083664,0.034817472100257874
1738005773962409200,1.7294091796875,-0.01839151233434677,0.013516554608941078,0.02950446680188179
1738005773972478200,1.739478271484375,-0.02919158525764942,-0.007600555196404457,0.011359390802681446
1738005773982547200,1.749547119140625,-0.04068472608923912,-0.023108409717679024,-0.0069991108030080795
1738005773992616200,1.7596162109375,-0.043132707476615906,-0.02443626895546913,-0.02654368430376053
1738005774002684200,1.76968408203125,-0.04248795658349991,-0.013884024694561958,-0.04039664939045906
1738005774012753200,1.779753173828125,-0.041650574654340744,0.007097883615642786,-0.04365930333733559
1738005774022822100,1.789822265625,-0.035032354295253754,0.026649747043848038,-0.03465995192527771
1738005774032891400,1.799891357421875,-0.021985769271850586,0.033086031675338745,-0.02183154970407486
1738005774042960100,1.809960205078125,-0.021209456026554108,0.028383685275912285,-0.009741063229739666
1738005774053029400,1.820029296875,-0.021153714507818222,0.025448814034461975,0.0005347253754734993
1738005774063097300,1.830097412109375,-0.025490671396255493,0.007158489432185888,-0.0035747988149523735
1738005774073166000,1.840166015625,-0.030842512845993042,-0.01911230757832527,-0.014367037452757359
1738005774083235300,1.8502353515625,-0.03887993097305298,-0.034661971032619476,-0.025797322392463684
1738005774093304000,1.860303955078125,-0.04169893637299538,-0.03517565131187439,-0.03290179744362831
1738005774103373300,1.870373291015625,-0.04423320293426514,-0.01598677784204483,-0.027611158788204193
1738005774113442300,1.8804423828125,-0.03914192318916321,-0.0002899463288486004,-0.014532268978655338
1738005774123510000,1.890510009765625,-0.039549387991428375,0.021043838933110237,0.0007417593151330948
1738005774133579300,1.900579345703125,-0.031848467886447906,0.035511862486600876,0.017638318240642548
1738005774143648300,1.910648193359375,-0.027522964403033257,0.040557753294706345,0.030682748183608055
1738005774153717200,1.92071728515625,-0.02228906936943531,0.04202223941683769,0.04323456436395645
1738005774163786200,1.9307861328125,-0.02149944193661213,0.03461039811372757,0.048546504229307175
1738005774173855200,1.940855224609375,-0.016158506274223328,0.03242716193199158,0.039337798953056335
1738005774183923200,1.950923095703125,-0.01111554354429245,0.022730860859155655,0.029054801911115646
1738005774193992200,1.9609921875,-0.013080157339572906,0.012256648391485214,0.013929378241300583
1738005774204061200,1.971061279296875,-0.017225367948412895,-0.0025981978978961706,-0.0029971404001116753
1738005774214130200,1.981130126953125,-0.020826663821935654,-0.01346531417220831,-0.02710735984146595
1738005774224199200,1.99119921875,-0.027634767815470695,-0.0008075758814811707,-0.04801583290100098
1738005774234267100,2.00126708984375,-0.028671830892562866,0.012539690360426903,-0.06317600607872009
1738005774244336000,2.011336181640625,-0.0326244942843914,0.02040560357272625,-0.06221220642328262
1738005774254405400,2.0214052734375,-0.03288523852825165,0.013252892531454563,-0.053501639515161514
1738005774264474000,2.03147412109375,-0.03217630460858345,0.006004301831126213,-0.043267909437417984
1738005774274543400,2.04154345703125,-0.03365079313516617,-0.003308890387415886,-0.0384599007666111
1738005774284612000,2.051612060546875,-0.028703439980745316,-0.008751858957111835,-0.04332203418016434
1738005774294680000,2.06168017578125,-0.028442302718758583,-0.02236606925725937,-0.053197164088487625
1738005774304749300,2.071749267578125,-0.025395913049578667,-0.02695363014936447,-0.0650453045964241
1738005774314818000,2.081818115234375,-0.020798727869987488,-0.013643709942698479,-0.0656823068857193
1738005774324887300,2.09188720703125,-0.02130313217639923,0.0040444727055728436,-0.06361702084541321
1738005774334956300,2.101956298828125,-0.01946287974715233,0.02509620040655136,-0.05303812399506569
1738005774345025300,2.112025390625,-0.017411978915333748,0.03503991290926933,-0.05092383548617363
1738005774355093200,2.12209326171875,-0.01929491013288498,0.034291110932826996,-0.05413462966680527
1738005774365162200,2.132162353515625,-0.023950383067131042,0.019053833559155464,-0.058796226978302
1738005774375231200,2.142231201171875,-0.031647905707359314,-0.0020070564933121204,-0.06355361640453339
1738005774385300200,2.15230029296875,-0.03505542129278183,-0.037942953407764435,-0.05401177331805229
1738005774395369200,2.162369140625,-0.034513503313064575,-0.05460473150014877,-0.04824952036142349
1738005774405438200,2.172438232421875,-0.03134886920452118,-0.06369276344776154,-0.051092714071273804
1738005774415506200,2.182506103515625,-0.02891773357987404,-0.0562899149954319,-0.05883786827325821
1738005774425575200,2.1925751953125,-0.016493286937475204,-0.05020832270383835,-0.06110101938247681
1738005774435644200,2.20264404296875,-0.009908340871334076,-0.044887080788612366,-0.05932449549436569
1738005774445713400,2.21271337890625,-0.009921124204993248,-0.03431006893515587,-0.056029364466667175
1738005774455782100,2.2227822265625,-0.014079207554459572,-0.02726191096007824,-0.060567934066057205
1738005774465851400,2.232851318359375,-0.019324835389852524,-0.02324613183736801,-0.06710758805274963
1738005774475919400,2.24291943359375,-0.030002247542142868,-0.02106739953160286,-0.06876860558986664
1738005774485988000,2.252988037109375,-0.03830092400312424,-0.02196701429784298,-0.06733262538909912
1738005774496057300,2.263057373046875,-0.04281901940703392,-0.009189113043248653,-0.07014471292495728
1738005774506126000,2.2731259765625,-0.04298040643334389,0.0022089495323598385,-0.0767994225025177
1738005774516195300,2.2831953125,-0.03138488531112671,0.021427514031529427,-0.08778829127550125
1738005774526264000,2.29326416015625,-0.020004399120807648,0.05424085631966591,-0.09725289791822433
1738005774536333300,2.303333251953125,-0.008774429559707642,0.08167997747659683,-0.09266769886016846
1738005774546401300,2.3134013671875,-0.0015125223435461521,0.08212047070264816,-0.08722072839736938
1738005774556470300,2.32347021484375,-0.0003215488977730274,0.05438818782567978,-0.08141805976629257
1738005774566539300,2.333539306640625,-0.0033263936638832092,0.016126815229654312,-0.07613968104124069
1738005774576608300,2.343608154296875,-0.002333561424165964,-0.014994118362665176,-0.07911840081214905
1738005774586677200,2.35367724609375,0.004790660459548235,-0.028964795172214508,-0.09770487248897552
1738005774596746200,2.363746337890625,0.010411802679300308,-0.03199492394924164,-0.11305542290210724
1738005774606814200,2.373814208984375,0.020186670124530792,-0.023867757990956306,-0.1198190450668335
1738005774616883200,2.38388330078125,0.029003996402025223,-0.0026331995613873005,-0.11382394284009933
1738005774626951700,2.39395166015625,0.028229549527168274,-0.08433844894170761,-0.11107530444860458
1738005774637021000,2.40402099609375,0.013253730721771717,-0.09719479084014893,-0.13037165999412537
1738005774647089700,2.414089599609375,0.021440021693706512,-0.05322680622339249,-0.1354180872440338
1738005774657159000,2.424158935546875,0.034095119684934616,-0.026251118630170822,-0.11367219686508179
1738005774667227000,2.434226806640625,0.033975277096033096,-0.022793537005782127,-0.07612642645835876
1738005774677295600,2.444295654296875,0.038092225790023804,-0.015609675087034702,-0.05257503315806389
1738005774687364900,2.45436474609375,0.04041476920247078,0.011439519934356213,-0.04916059598326683
1738005774697433600,2.46443359375,0.046808354556560516,0.051422782242298126,-0.054134368896484375
1738005774707502800,2.4745029296875,0.04954182356595993,0.09003116190433502,-0.05412851274013519
1738005774717571800,2.48457177734375,0.048529163002967834,0.10536124557256699,-0.04613719880580902
1738005774727640800,2.494640869140625,0.04175035282969475,0.11697395890951157,-0.05060705170035362
1738005774737708800,2.504708740234375,0.036474667489528656,0.11061643809080124,-0.07201351225376129
1738005774747777800,2.51477783203125,0.032848238945007324,0.10748535394668579,-0.09962702542543411
1738005774757846800,2.5248466796875,0.0415102019906044,0.11825620383024216,-0.13274970650672913
1738005774767915800,2.534915771484375,0.05546276643872261,0.12288371473550797,-0.1672040969133377
1738005774777984800,2.54498486328125,0.06412637233734131,0.10081508010625839,-0.1982402205467224
1738005774788053800,2.5550537109375,0.07305274903774261,0.0937366709113121,-0.20772746205329895
1738005774798121700,2.565121826171875,0.08336640149354935,0.08579964190721512,-0.19260913133621216
1738005774808190700,2.575190673828125,0.08662930876016617,0.06915435940027237,-0.1561129093170166
1738005774818259700,2.585259765625,0.09340745955705643,0.054587483406066895,-0.11599931865930557
1738005774828329000,2.595328857421875,0.09517206996679306,0.03923249617218971,-0.07683674246072769
1738005774838397700,2.605397705078125,0.10166832059621811,0.02518831379711628,-0.04679681733250618
1738005774848466700,2.615466796875,0.10932836681604385,0.033038780093193054,-0.03464774042367935
1738005774858535700,2.62553564453125,0.10788396745920181,0.045718271285295486,-0.04105219617486
1738005774868603600,2.635603759765625,0.10256323963403702,0.055631089955568314,-0.06891818344593048
1738005774878673000,2.6456728515625,0.09547565877437592,0.05582480505108833,-0.09925436228513718
1738005774888741600,2.65574169921875,0.09028834849596024,0.06213702633976936,-0.12511365115642548
1738005774898811000,2.665810791015625,0.08464757353067398,0.08216416835784912,-0.14408504962921143
1738005774908880000,2.6758798828125,0.09391804039478302,0.12132622301578522,-0.13633310794830322
1738005774918948600,2.685948486328125,0.11115643382072449,0.16513791680335999,-0.11727997660636902
1738005774929017900,2.696017822265625,0.13573315739631653,0.21488310396671295,-0.07681164890527725
1738005774939085800,2.7060859375,0.16830076277256012,0.2560890018939972,-0.031152982264757156
1738005774949154800,2.71615478515625,0.19885042309761047,0.2936939299106598,-0.00041664112359285355
1738005774959223800,2.726223876953125,0.2192160189151764,0.3004906475543976,0.019843246787786484
1738005774969292500,2.73629248046875,0.23288284242153168,0.24675686657428741,0.022094950079917908
1738005774979361800,2.74636181640625,0.24243541061878204,0.13104353845119476,-0.002020181156694889
1738005774989430800,2.7564306640625,0.23689550161361694,0.00958927720785141,-0.06876059621572495
1738005774999498800,2.766498779296875,0.22689707577228546,-0.10127373784780502,-0.15735803544521332
1738005775009567700,2.776567626953125,0.2016918659210205,-0.1922244280576706,-0.23255132138729095
1738005775019637000,2.786636962890625,0.16570687294006348,-0.26760193705558777,-0.2879428267478943
1738005775029705700,2.796705810546875,0.13732290267944336,-0.3212321400642395,-0.3072611391544342
1738005775039774700,2.806774658203125,0.10072321444749832,-0.3364327847957611,-0.30075588822364807
1738005775049843700,2.81684375,0.060443438589572906,-0.30923205614089966,-0.27429208159446716
1738005775059912700,2.82691259765625,0.024610480293631554,-0.2879919409751892,-0.2159254401922226
1738005775069981000,2.83698095703125,-0.0028288678731769323,-0.2460745871067047,-0.1288222372531891
1738005775080049700,2.847049560546875,-0.018228774890303612,-0.1717631220817566,-0.025997865945100784
1738005775090118700,2.85711865234375,-0.01713288389146328,-0.05830846354365349,0.0565878264605999
1738005775100188000,2.86718798828125,-0.002640645718201995,0.06638378649950027,0.10720372200012207
1738005775110256600,2.877256591796875,0.024464208632707596,0.17595529556274414,0.13362441956996918
1738005775120326000,2.887325927734375,0.04899051412940025,0.25897541642189026,0.13244348764419556
1738005775130394600,2.89739453125,0.06034969910979271,0.30413731932640076,0.11612523347139359
1738005775140462600,2.907462646484375,0.07051113247871399,0.3089739978313446,0.09896637499332428
1738005775150531800,2.91753173828125,0.0646979957818985,0.2741158604621887,0.08698854595422745
1738005775160600600,2.9276005859375,0.05312567949295044,0.21411839127540588,0.08195775747299194
1738005775170669800,2.937669921875,0.04634900018572807,0.13439719378948212,0.08070553839206696
1738005775180738600,2.947738525390625,0.033756282180547714,0.04593042656779289,0.08013911545276642
1738005775190807800,2.957807861328125,0.024237345904111862,-0.010534713976085186,0.08392906188964844
1738005775200876800,2.967876708984375,0.017525799572467804,-0.04596908017992973,0.09837768226861954
1738005775210945800,2.97794580078125,0.006348778028041124,-0.06494144350290298,0.10405421257019043
1738005775221013800,2.988013671875,-0.0046656387858092785,-0.058024752885103226,0.10193631798028946
1738005775231082800,2.998082763671875,-0.02269124425947666,-0.0395946130156517,0.09552262723445892
1738005775241151700,3.00815185546875,-0.05463537946343422,-0.004797711968421936,0.0824875608086586
1738005775251220700,3.018220703125,-0.09273962676525116,0.011624937877058983,0.059109803289175034
1738005775261289700,3.028289794921875,-0.1331033706665039,-0.011094208806753159,0.03711798042058945
1738005775271358700,3.038358642578125,-0.1784796416759491,-0.06177069991827011,0.015057683922350407
1738005775281428000,3.048427978515625,-0.22136135399341583,-0.10197560489177704,-0.00633667316287756
1738005775291495700,3.05849560546875,-0.25487619638442993,-0.12273281067609787,-0.02904331684112549
1738005775301564700,3.068564697265625,-0.2868177890777588,-0.12185722589492798,-0.05769398808479309
1738005775311634000,3.078634033203125,-0.30747726559638977,-0.09695880115032196,-0.08076521754264832
1738005775321702700,3.08870263671875,-0.3184891939163208,-0.0586279034614563,-0.09584236145019531
1738005775331772000,3.09877197265625,-0.32245808839797974,-0.031412526965141296,-0.10096335411071777
1738005775341840600,3.108840576171875,-0.32718992233276367,-0.009994935244321823,-0.08950716257095337
1738005775351909600,3.11890966796875,-0.3243986666202545,0.00934307649731636,-0.06201987341046333
1738005775361979000,3.128978759765625,-0.327698290348053,0.051735520362854004,-0.023577112704515457
1738005775372046600,3.139046630859375,-0.33326029777526855,0.08668471872806549,0.013120980933308601
1738005775382115800,3.14911572265625,-0.34297698736190796,0.11761851608753204,0.03389802575111389
1738005775392184800,3.159184814453125,-0.35270658135414124,0.14960680902004242,0.006470927968621254
1738005775402253800,3.16925390625,-0.37661075592041016,0.18019422888755798,-0.07719601690769196
1738005775412322800,3.17932275390625,-0.41320738196372986,0.18968786299228668,-0.22905771434307098
1738005775422391600,3.1893916015625,-0.4613017737865448,0.14646905660629272,-0.430910587310791
1738005775432460800,3.199460693359375,-0.5170960426330566,0.056485366076231,-0.6564151048660278
1738005775442529800,3.20952978515625,-0.575427770614624,-0.009141841903328896,-0.8693460822105408
1738005775452597800,3.21959765625,-0.6045006513595581,0.006222999654710293,-1.0159070491790771
1738005775462666800,3.229666748046875,-0.6252284049987793,0.0844789370894432,-1.043176293373108
1738005775472735700,3.23973583984375,-0.6145249009132385,0.22151800990104675,-0.9135800004005432
1738005775482804700,3.2498046875,-0.5567167401313782,0.3594924807548523,-0.6523217558860779
1738005775492873700,3.259873779296875,-0.45445430278778076,0.4796609580516815,-0.3161400258541107
1738005775502942700,3.269942626953125,-0.32227346301078796,0.5980256795883179,0.029931828379631042
1738005775513011700,3.28001171875,-0.19692805409431458,0.6568858027458191,0.3331233859062195
1738005775523080000,3.290079833984375,-0.11888666450977325,0.6222129464149475,0.6004998087882996
1738005775533148700,3.300148681640625,-0.08385197818279266,0.5735066533088684,0.8033522367477417
1738005775543217700,3.3102177734375,-0.051372598856687546,0.4779239594936371,1.0038342475891113
1738005775553287000,3.320286865234375,-0.044084593653678894,0.4341684877872467,1.1029168367385864
1738005775563355600,3.330355712890625,-0.06529361754655838,0.3499496281147003,1.167330265045166
1738005775573425000,3.3404248046875,-0.11101982742547989,0.23404860496520996,1.131397008895874
1738005775583493600,3.35049365234375,-0.20763744413852692,0.07520810514688492,0.9999529123306274
1738005775593563000,3.36056298828125,-0.337290495634079,-0.11994034796953201,0.7976821064949036
1738005775603630800,3.370630859375,-0.48721784353256226,-0.35615459084510803,0.5685251951217651
1738005775613699600,3.380699462890625,-0.6275635361671448,-0.594917356967926,0.34370747208595276
1738005775623768800,3.390768798828125,-0.721900999546051,-0.7512462139129639,0.14613480865955353
1738005775633838300,3.40083837890625,-0.7836802005767822,-0.8254599571228027,0.004006966017186642
1738005775643907300,3.4109072265625,-0.8099367022514343,-0.8683860301971436,-0.07981220632791519
1738005775653976300,3.420976318359375,-0.768261194229126,-0.841171145439148,-0.1067410260438919
1738005775664045300,3.43104541015625,-0.6646645069122314,-0.7008278965950012,-0.08816148340702057
1738005775674114300,3.4411142578125,-0.5165940523147583,-0.46279004216194153,-0.020081233233213425
1738005775684183300,3.451183349609375,-0.35794830322265625,-0.18377909064292908,0.08968007564544678
1738005775694251300,3.461251220703125,-0.2268427610397339,0.033948712050914764,0.2327328324317932
1738005775704320500,3.471320556640625,-0.1326790153980255,0.155103400349617,0.40962615609169006
1738005775714389200,3.48138916015625,-0.06394390016794205,0.16282683610916138,0.577640175819397
1738005775724458200,3.491458251953125,-0.008207553997635841,0.11126501113176346,0.7022402882575989
1738005775734527200,3.50152734375,0.028458580374717712,0.060026854276657104,0.7869356870651245
1738005775744596200,3.51159619140625,0.04197731986641884,0.01331368088722229,0.8135508298873901
1738005775754665500,3.52166552734375,0.05047732964158058,-0.035645075142383575,0.7810570597648621
1738005775764734200,3.531734130859375,0.048556070774793625,-0.06428205966949463,0.6945491433143616
1738005775774803500,3.541803466796875,0.02553490921854973,-0.07913770526647568,0.5634547472000122
1738005775784871400,3.551871337890625,-0.012114448472857475,-0.0912638008594513,0.4279535710811615
1738005775794940200,3.561940185546875,-0.05866970121860504,-0.09375811368227005,0.297911673784256
1738005775805009400,3.572009521484375,-0.10615868866443634,-0.06630148738622665,0.19366194307804108
1738005775815078100,3.582078125,-0.13990120589733124,-0.04005363956093788,0.12396436184644699
1738005775825147400,3.5921474609375,-0.16938719153404236,-0.012388188391923904,0.08386727422475815
1738005775835216400,3.60221630859375,-0.19227972626686096,-0.0006319303065538406,0.07631108909845352
1738005775845285400,3.612285400390625,-0.19966371357440948,0.016761591657996178,0.09008270502090454
1738005775855354400,3.622354248046875,-0.19512729346752167,0.05390656366944313,0.11951515823602676
1738005775865422300,3.63242236328125,-0.18069477379322052,0.07760778814554214,0.14386965334415436
1738005775875491300,3.6424912109375,-0.15962916612625122,0.08524253219366074,0.1561388373374939
1738005775885560300,3.652560302734375,-0.13245205581188202,0.0843183845281601,0.14970232546329498
1738005775895629300,3.66262939453125,-0.09324526786804199,0.07854811102151871,0.13740277290344238
1738005775905698300,3.6726982421875,-0.06150365248322487,0.05607770383358002,0.12190543115139008
1738005775915767600,3.682767578125,-0.023639092221856117,0.03196438029408455,0.10244758427143097
1738005775925836300,3.692836181640625,0.021496519446372986,0.025678196921944618,0.08781030774116516
1738005775935905300,3.7029052734375,0.06808505952358246,0.029623137786984444,0.08171939849853516
1738005775945974300,3.712974365234375,0.12156061828136444,0.05600856989622116,0.07903173565864563
1738005775956043300,3.723043212890625,0.1777525246143341,0.09783537685871124,0.06765177845954895
1738005775966111500,3.733111572265625,0.229228213429451,0.13449722528457642,0.05324096605181694
1738005775976180200,3.74318017578125,0.27989378571510315,0.15553006529808044,0.02712627686560154
1738005775986249500,3.75324951171875,0.3150733411312103,0.1554190069437027,-0.00038071442395448685
1738005775996318500,3.763318359375,0.3393869400024414,0.1302313655614853,-0.03243185952305794
1738005776006387200,3.77338720703125,0.3484020233154297,0.09328986704349518,-0.056448932737112045
1738005776016456400,3.78345654296875,0.3519107401371002,0.05760830268263817,-0.06081544980406761
1738005776026525200,3.793525146484375,0.3531835377216339,0.025270573794841766,-0.03747384250164032
1738005776036594400,3.803594482421875,0.3492923974990845,0.0025210529565811157,0.000616283155977726
1738005776046663200,3.8136630859375,0.3390866219997406,0.008478782139718533,0.04973331466317177
1738005776056731100,3.823731201171875,0.32672396302223206,0.013076462782919407,0.08678720891475677
1738005776066800400,3.83380029296875,0.3035699427127838,-0.0050133466720581055,0.1072966605424881
1738005776076869400,3.843869384765625,0.2898067235946655,0.004948473535478115,0.1108434647321701
1738005776086938400,3.8539384765625,0.2900528907775879,0.06405829638242722,0.10949377715587616
1738005776097007400,3.86400732421875,0.30116039514541626,0.13907048106193542,0.12378297001123428
1738005776107076400,3.874076416015625,0.3174927234649658,0.1963449865579605,0.14871369302272797
1738005776117145300,3.884145263671875,0.330964058637619,0.20806530117988586,0.1640755981206894
1738005776127214300,3.89421435546875,0.34403884410858154,0.2270507663488388,0.1301088035106659
1738005776137283300,3.904283447265625,0.372847318649292,0.2524479925632477,0.01522802747786045
1738005776147351300,3.914351318359375,0.4237889051437378,0.32793405652046204,-0.19081377983093262
1738005776157420300,3.924420166015625,0.5018331408500671,0.4305635094642639,-0.5155245065689087
1738005776167489300,3.9344892578125,0.5662392377853394,0.4875812232494354,-0.8815962672233582
1738005776177558500,3.94455859375,0.5755640268325806,0.4301866292953491,-1.1721724271774292
1738005776187627300,3.954627197265625,0.5405606031417847,0.2447967827320099,-1.2844977378845215
1738005776197696500,3.964696533203125,0.489429235458374,0.002785202581435442,-1.170814871788025
1738005776207765200,3.97476513671875,0.4161125123500824,-0.2319440394639969,-0.851664125919342
1738005776217834200,3.984834228515625,0.33093076944351196,-0.4054205119609833,-0.4185236394405365
1738005776227903500,3.994903564453125,0.25767815113067627,-0.4840785264968872,-0.003044337034225464
1738005776237972200,4.00497216796875,0.1941620111465454,-0.42385992407798767,0.29340410232543945
1738005776248040400,4.01504052734375,0.1202317476272583,-0.3088216781616211,0.4648228883743286
1738005776258109400,4.025109375,0.047309596091508865,-0.20528115332126617,0.5275350213050842
1738005776268178200,4.03517822265625,-0.018493777140975,-0.1416727751493454,0.5230198502540588
1738005776278247400,4.045247314453125,-0.07309284061193466,-0.12197788804769516,0.49350109696388245
1738005776288316200,4.055316162109375,-0.10771478712558746,-0.11353962868452072,0.4471197724342346
1738005776298385400,4.065385498046875,-0.11277319490909576,-0.12355364114046097,0.3841554522514343
1738005776308454400,4.075454345703125,-0.10256616771221161,-0.12889505922794342,0.3094028830528259
1738005776318523400,4.0855234375,-0.06617114692926407,-0.1271190047264099,0.206592857837677
1738005776328592400,4.09559228515625,-0.006566138938069344,-0.12169786542654037,0.09787090867757797
1738005776338661400,4.105661376953125,0.06522629410028458,-0.10015076398849487,0.0028447918593883514
1738005776348729300,4.115729248046875,0.1524612307548523,-0.08478774130344391,-0.05720282718539238
1738005776358798300,4.12579833984375,0.2554835081100464,-0.06373065710067749,-0.059768516570329666
1738005776368867300,4.135867431640625,0.36204439401626587,-0.07289307564496994,0.005782183259725571
1738005776378936300,4.145936279296875,0.4700145423412323,-0.05945848673582077,0.11233632266521454
1738005776389005300,4.15600537109375,0.5460808873176575,-0.028772367164492607,0.2102520763874054
1738005776399074300,4.16607421875,0.5685915350914001,-0.029498346149921417,0.2597341537475586
1738005776409143600,4.1761435546875,0.561876654624939,-0.0414370559155941,0.25494810938835144
1738005776419212300,4.18621240234375,0.5346850156784058,-0.08657390624284744,0.19884541630744934
1738005776429281300,4.19628125,0.4768616259098053,-0.1590101569890976,0.1080198660492897
1738005776439350300,4.206350341796875,0.39249560236930847,-0.23150619864463806,-0.009197037667036057
1738005776449418200,4.216418212890625,0.3084474205970764,-0.2838686406612396,-0.10805512964725494
1738005776459487500,4.226487548828125,0.2374531477689743,-0.32797592878341675,-0.16943088173866272
1738005776469556200,4.23655615234375,0.18273940682411194,-0.3455542325973511,-0.18453752994537354
1738005776479625200,4.246625244140625,0.12792755663394928,-0.3496254086494446,-0.1635132133960724
1738005776489694500,4.256694580078125,0.08143321424722672,-0.32665127515792847,-0.11495180428028107
1738005776499763200,4.26676318359375,0.046469371765851974,-0.27907389402389526,-0.0684620663523674
1738005776509832400,4.27683251953125,0.025420743972063065,-0.22985360026359558,-0.023607924580574036
1738005776519901200,4.286901123046875,0.013033849187195301,-0.19787701964378357,0.02474149689078331
1738005776529970400,4.296970458984375,0.0019799573346972466,-0.17447508871555328,0.08647143840789795
1738005776540039400,4.307039306640625,-0.007263874635100365,-0.15688782930374146,0.15336844325065613
1738005776550107100,4.317107177734375,-0.010052256286144257,-0.16421069204807281,0.22449778020381927
1738005776560176400,4.32717626953125,-0.011987042613327503,-0.18409252166748047,0.293164998292923
1738005776570245400,4.337245361328125,-0.009088434278964996,-0.20172536373138428,0.34909364581108093
1738005776580314400,4.347314453125,-0.006992525886744261,-0.21230264008045197,0.3845251202583313
1738005776590383400,4.35738330078125,-0.002270317170768976,-0.22392073273658752,0.39197757840156555
1738005776600452400,4.367452392578125,0.008411088958382607,-0.21457037329673767,0.3784513771533966
1738005776610521300,4.377521240234375,0.021357905119657516,-0.17712411284446716,0.3403621315956116
1738005776620590300,4.38759033203125,0.05104655772447586,-0.11636035889387131,0.2953144907951355
1738005776630659300,4.397659423828125,0.09422597289085388,-0.03902240842580795,0.2560976445674896
1738005776640728300,4.407728271484375,0.13803310692310333,0.04368099197745323,0.2284793257713318
1738005776650796300,4.41779638671875,0.18386411666870117,0.12809421122074127,0.20924140512943268
1738005776660865300,4.427865234375,0.23584848642349243,0.18972241878509521,0.20556198060512543
1738005776670934300,4.437934326171875,0.29682037234306335,0.22887474298477173,0.19243869185447693
1738005776681003300,4.448003173828125,0.3546338677406311,0.26023319363594055,0.1764775812625885
1738005776691072300,4.458072265625,0.4130408465862274,0.2674787938594818,0.1581335961818695
1738005776701141200,4.468141357421875,0.47626909613609314,0.2620334327220917,0.12793627381324768
1738005776711210200,4.478210205078125,0.5462415814399719,0.24760591983795166,0.07683687657117844
1738005776721279200,4.488279296875,0.6218799352645874,0.22247420251369476,-0.00467529334127903
1738005776731348200,4.49834814453125,0.7019677758216858,0.19638726115226746,-0.1075136736035347
1738005776741417200,4.508417236328125,0.789226233959198,0.19257999956607819,-0.23827463388442993
1738005776751485400,4.5184853515625,0.8743932247161865,0.1877957433462143,-0.365154892206192
1738005776761554200,4.52855419921875,0.9448570013046265,0.16957519948482513,-0.4554555118083954
1738005776771623200,4.538623046875,1.0080212354660034,0.12370602786540985,-0.4815293550491333
1738005776781692200,4.548692138671875,1.068863868713379,0.07397309690713882,-0.44206368923187256
1738005776791761200,4.55876123046875,1.1254549026489258,0.06926761567592621,-0.3404565453529358
1738005776801830400,4.568830322265625,1.181618571281433,0.08294454962015152,-0.217743918299675
1738005776811899100,4.578899169921875,1.2403818368911743,0.06609547138214111,-0.10047786682844162
1738005776821968400,4.588968505859375,1.2972298860549927,0.03145865723490715,-0.010060887783765793
1738005776832037000,4.599037109375,1.3571722507476807,0.011458104476332664,0.03276035189628601
1738005776842106400,4.6091064453125,1.4283696413040161,0.044138554483652115,0.002459702081978321
1738005776852174300,4.61917431640625,1.5127981901168823,0.09713646024465561,-0.08131904900074005
1738005776862243000,4.6292431640625,1.590729832649231,0.13211815059185028,-0.18522733449935913
1738005776872312300,4.639312255859375,1.6640305519104004,0.1369936317205429,-0.28991377353668213
1738005776882381300,4.64938134765625,1.733019471168518,0.15940625965595245,-0.3775938153266907
1738005776892450300,4.6594501953125,1.7990708351135254,0.1858658492565155,-0.4252457916736603
1738005776902519300,4.669519287109375,1.8747434616088867,0.2198789417743683,-0.4329271614551544
1738005776912588300,4.67958837890625,1.9491820335388184,0.25149527192115784,-0.4102691113948822
1738005776922657300,4.6896572265625,2.0233981609344482,0.28164198994636536,-0.36488407850265503
1738005776932726300,4.699726318359375,2.0789482593536377,0.32254934310913086,-0.3228492736816406
1738005776942794200,4.709794189453125,2.107492208480835,0.3629734516143799,-0.28724148869514465
1738005776952863200,4.71986328125,2.1117238998413086,0.3757478594779968,-0.27000296115875244
1738005776962932200,4.72993212890625,2.088900327682495,0.34349191188812256,-0.2477240115404129
1738005776973001200,4.740001220703125,2.04038405418396,0.27123600244522095,-0.2144235372543335
1738005776983070200,4.7500703125,1.9799216985702515,0.17429454624652863,-0.16088920831680298
1738005776993139200,4.76013916015625,1.9165114164352417,0.10479941964149475,-0.10590143501758575
1738005777003208200,4.770208251953125,1.8639917373657227,0.06324797868728638,-0.05317723751068115
1738005777013277200,4.780277099609375,1.8335500955581665,0.04401708394289017,-0.0006526624783873558
1738005777023346200,4.79034619140625,1.8184757232666016,0.06017821282148361,0.051252346485853195
1738005777033415400,4.80041552734375,1.8151829242706299,0.1076541543006897,0.09264856576919556
1738005777043483100,4.810483154296875,1.8208857774734497,0.14498049020767212,0.136533722281456
1738005777053552000,4.82055224609375,1.8340106010437012,0.15151576697826385,0.17797809839248657
1738005777063621400,4.830621337890625,1.849848985671997,0.13065417110919952,0.2126186341047287
1738005777073690000,4.840690185546875,1.8722575902938843,0.1048683226108551,0.2259415239095688
1738005777083759400,4.85075927734375,1.8973493576049805,0.09365721791982651,0.2171166092157364
1738005777093828000,4.860828125,1.92771315574646,0.1026221290230751,0.18439561128616333
1738005777103897300,4.8708974609375,1.960483431816101,0.11321059614419937,0.13374893367290497
1738005777113966300,4.88096630859375,1.9951400756835938,0.14837373793125153,0.07401522248983383
1738005777124035300,4.891035400390625,2.026090145111084,0.22900226712226868,0.019624948501586914
1738005777134104300,4.901104248046875,2.053206443786621,0.3188507854938507,-0.024349238723516464
1738005777144172300,4.91117236328125,2.0741348266601562,0.3980284333229065,-0.042404938489198685
1738005777154241300,4.9212412109375,2.0945539474487305,0.4714542031288147,-0.03456824645400047
1738005777164310300,4.931310302734375,2.111959218978882,0.5566847324371338,-0.01153190340846777
1738005777174379300,4.941379150390625,2.137646436691284,0.6240949630737305,0.028144748881459236
1738005777184448300,4.9514482421875,2.154533624649048,0.6262824535369873,0.05808719992637634
1738005777194517200,4.961517333984375,2.1614110469818115,0.5692515969276428,0.0848151370882988
1738005777204586200,4.971586181640625,2.1636807918548584,0.49614620208740234,0.0706404596567154
1738005777214655200,4.9816552734375,2.1633059978485107,0.4261021018028259,0.014617064036428928
1738005777224724200,4.99172412109375,2.15505313873291,0.37096214294433594,-0.07524119317531586
1738005777234792200,5.001792236328125,2.143584728240967,0.3118411898612976,-0.16801369190216064
1738005777244861400,5.011861328125,2.1364502906799316,0.2567704916000366,-0.23563535511493683
1738005777254930200,5.02193017578125,2.1334800720214844,0.22577419877052307,-0.25558722019195557
1738005777264999200,5.031999267578125,2.133431911468506,0.2255116105079651,-0.23454399406909943
1738005777275068200,5.042068115234375,2.1395463943481445,0.25677490234375,-0.19307753443717957
1738005777285137200,5.05213720703125,2.149955987930298,0.31496521830558777,-0.15578822791576385
1738005777295206400,5.062206298828125,2.156416654586792,0.36631083488464355,-0.14497864246368408
1738005777305275100,5.072275146484375,2.1448781490325928,0.39169636368751526,-0.15701453387737274
1738005777315344400,5.082344482421875,2.1226446628570557,0.36483630537986755,-0.17246322333812714
1738005777325413000,5.0924130859375,2.0975608825683594,0.3145832419395447,-0.1888030469417572
1738005777335481000,5.102481201171875,2.0674641132354736,0.24147385358810425,-0.20653828978538513
1738005777345550300,5.11255029296875,2.0315728187561035,0.16823984682559967,-0.22592876851558685
1738005777355619000,5.122619140625,1.9846223592758179,0.10317379236221313,-0.24975241720676422
1738005777365688300,5.132688232421875,1.9320447444915771,0.05119022727012634,-0.26861637830734253
1738005777375757300,5.14275732421875,1.8852852582931519,0.021229654550552368,-0.275005966424942
1738005777385826300,5.152826416015625,1.8436890840530396,0.003838679753243923,-0.2557547688484192
1738005777395895300,5.162895263671875,1.7952083349227905,-0.004732361063361168,-0.22059272229671478
1738005777405964000,5.172964111328125,1.742889165878296,-0.015083801932632923,-0.19191420078277588
1738005777416033300,5.183033203125,1.6819524765014648,-0.044550999999046326,-0.1783221811056137
1738005777426102300,5.193102294921875,1.6139841079711914,-0.09402268379926682,-0.1864059418439865
1738005777436170200,5.203170166015625,1.5359580516815186,-0.1344727873802185,-0.1982310563325882
1738005777446239200,5.2132392578125,1.449117660522461,-0.1298157125711441,-0.2121862918138504
1738005777456308500,5.22330859375,1.362190842628479,-0.12690410017967224,-0.21447762846946716
1738005777466377200,5.233377197265625,1.2691552639007568,-0.1273786723613739,-0.2060127705335617
1738005777476446200,5.2434462890625,1.1664891242980957,-0.13478593528270721,-0.19898869097232819
1738005777486515200,5.25351513671875,1.061262607574463,-0.15948542952537537,-0.18354181945323944
1738005777496584200,5.263584228515625,0.9606583714485168,-0.17846988141536713,-0.17009058594703674
1738005777506653200,5.273653076171875,0.8554965257644653,-0.18287448585033417,-0.15208254754543304
1738005777516721200,5.28372119140625,0.7490128874778748,-0.18273615837097168,-0.13991697132587433
1738005777526790100,5.2937900390625,0.6504628658294678,-0.17137911915779114,-0.12811784446239471
1738005777536859400,5.303859375,0.5659103989601135,-0.14520637691020966,-0.1142035722732544
1738005777546928000,5.31392822265625,0.4909130930900574,-0.11257226765155792,-0.08872750401496887
1738005777556997400,5.323997314453125,0.43166038393974304,-0.0630381777882576,-0.044378384947776794
1738005777567066000,5.334066162109375,0.386309951543808,0.008223749697208405,0.0037505310028791428
1738005777577135400,5.34413525390625,0.35844308137893677,0.08837064355611801,0.04274167865514755
1738005777587204000,5.3542041015625,0.33269190788269043,0.15773746371269226,0.06031721085309982
1738005777597273300,5.3642734375,0.30102190375328064,0.2168763279914856,0.050566546618938446
1738005777607342300,5.37434228515625,0.27279213070869446,0.2370031625032425,0.000025874003767967224
1738005777617410300,5.384410400390625,0.24934914708137512,0.22118636965751648,-0.07635807991027832
1738005777627479300,5.394479248046875,0.23041142523288727,0.16751834750175476,-0.14595766365528107
1738005777637548500,5.404548583984375,0.2082923948764801,0.11787904053926468,-0.1933685541152954
1738005777647617300,5.4146171875,0.1977955400943756,0.0747174546122551,-0.20698769390583038
1738005777657686300,5.424686279296875,0.19432862102985382,0.059345412999391556,-0.20334406197071075
1738005777667755300,5.43475537109375,0.19780191779136658,0.07280690222978592,-0.1871778815984726
1738005777677824300,5.44482421875,0.19416189193725586,0.10276668518781662,-0.15978239476680756
1738005777687893500,5.4548935546875,0.1899205446243286,0.1182529628276825,-0.12410908937454224
1738005777697962200,5.464962158203125,0.1755729466676712,0.12730881571769714,-0.08773437142372131
1738005777708030200,5.4750302734375,0.14493007957935333,0.13313287496566772,-0.054598260670900345
1738005777718099500,5.485099365234375,0.10483221709728241,0.129013791680336,-0.024405550211668015
1738005777728168200,5.495168212890625,0.05355438217520714,0.10803314298391342,0.006712423637509346
1738005777738237400,5.505237548828125,-0.01128113828599453,0.06770788878202438,0.059533145278692245
1738005777748306200,5.51530615234375,-0.0840967521071434,-0.012545938603579998,0.129734069108963
1738005777758375400,5.52537548828125,-0.15309961140155792,-0.09175702929496765,0.20952025055885315
1738005777768444400,5.5354443359375,-0.21277625858783722,-0.15155404806137085,0.2938028872013092
1738005777778513400,5.545513427734375,-0.254250168800354,-0.178531676530838,0.36556366086006165
1738005777788582400,5.55558251953125,-0.2813877761363983,-0.17116351425647736,0.41653764247894287
1738005777798651100,5.565651123046875,-0.30034273862838745,-0.14090073108673096,0.4306287169456482
1738005777808719400,5.57571923828125,-0.3062584102153778,-0.09674738347530365,0.39945533871650696
1738005777818788400,5.585788330078125,-0.3143717646598816,-0.05609207600355148,0.32152092456817627
1738005777828857300,5.595857421875,-0.326823353767395,-0.05141902714967728,0.21398168802261353
1738005777838926300,5.60592626953125,-0.33352982997894287,-0.07050447165966034,0.07979872822761536
1738005777848995300,5.615995361328125,-0.3322344720363617,-0.09281057864427567,-0.050892967730760574
1738005777859064300,5.626064208984375,-0.33158475160598755,-0.11581810563802719,-0.15505531430244446
1738005777869133300,5.63613330078125,-0.3114680349826813,-0.1255655437707901,-0.2237960398197174
1738005777879202300,5.646202392578125,-0.27825406193733215,-0.12742768228054047,-0.2617546319961548
1738005777889271300,5.656271240234375,-0.23212891817092896,-0.11863312125205994,-0.2921048104763031
1738005777899339500,5.666339599609375,-0.17297108471393585,-0.09161349385976791,-0.2996427118778229
1738005777909408300,5.676408203125,-0.11547130346298218,-0.048410095274448395,-0.27173277735710144
1738005777919477200,5.686477294921875,-0.04954753816127777,-0.015471946448087692,-0.210876926779747
1738005777929546200,5.696546142578125,-0.0018103776965290308,0.002631157636642456,-0.11261507868766785
1738005777939615200,5.706615234375,0.028084874153137207,0.0004301159642636776,0.0072059789672493935
1738005777949684500,5.7166845703125,0.05591810494661331,-0.0023470285814255476,0.1169484555721283
1738005777959753200,5.726753173828125,0.07139156758785248,-0.0027534114196896553,0.18488353490829468
1738005777969822500,5.736822509765625,0.08126389980316162,-0.005286610219627619,0.22384637594223022
1738005777979891200,5.74689111328125,0.08598923683166504,-0.017838994041085243,0.2193072885274887
1738005777989960400,5.75696044921875,0.08156412839889526,-0.006992737762629986,0.17072297632694244
1738005778000028400,5.7670283203125,0.08347634971141815,0.006973326671868563,0.0912918746471405
1738005778010097200,5.77709716796875,0.08339352160692215,0.02235255017876625,0.012373621575534344
1738005778020166400,5.78716650390625,0.08372959494590759,0.04593062773346901,-0.047752149403095245
1738005778030235400,5.7972353515625,0.0867653340101242,0.05654146149754524,-0.07586900889873505
1738005778040304400,5.807304443359375,0.08803121000528336,0.06812559813261032,-0.057959169149398804
1738005778050373400,5.817373291015625,0.08686847239732742,0.07636168599128723,-0.013916345313191414
1738005778060442400,5.8274423828125,0.0833965614438057,0.06670369952917099,0.027920279651880264
1738005778070511400,5.837511474609375,0.08217683434486389,0.048365697264671326,0.04288511350750923
1738005778080580400,5.847580322265625,0.08420281112194061,0.038366444408893585,0.023158930242061615
1738005778090649300,5.8576494140625,0.08502333611249924,0.046540483832359314,-0.01851794309914112
1738005778100717300,5.86771728515625,0.08178606629371643,0.06226029619574547,-0.07651539146900177
1738005778110786600,5.87778662109375,0.0774666890501976,0.07364104688167572,-0.12983295321464539
1738005778120855300,5.887855224609375,0.06898900866508484,0.0811925083398819,-0.17103475332260132
1738005778130924300,5.89792431640625,0.06043946370482445,0.08162233978509903,-0.17996512353420258
1738005778140993300,5.9079931640625,0.05456172674894333,0.05183205008506775,-0.16190806031227112
1738005778151062300,5.918062255859375,0.05756737291812897,0.03425438702106476,-0.13032829761505127
1738005778161131300,5.92813134765625,0.066597580909729,0.045398447662591934,-0.09226377308368683
1738005778171200300,5.9382001953125,0.0798870250582695,0.0626022070646286,-0.05866532772779465
1738005778181269500,5.94826953125,0.09022509306669235,0.0729997530579567,-0.030458156019449234
1738005778191337500,5.95833740234375,0.10998894274234772,0.10516221821308136,-0.02442369982600212
1738005778201406200,5.96840625,0.13719363510608673,0.14529533684253693,-0.017926160246133804
1738005778211475500,5.978475341796875,0.16157832741737366,0.1789558231830597,-0.012077060528099537
1738005778221544200,5.988544189453125,0.18869608640670776,0.19324246048927307,-0.00791122205555439
1738005778231613400,5.998613525390625,0.20757150650024414,0.21854569017887115,-0.0034376438707113266
1738005778241682200,6.00868212890625,0.21813395619392395,0.23677434027194977,-0.0004319939762353897
1738005778251751400,6.01875146484375,0.22263683378696442,0.2456091195344925,-0.0022999346256256104
1738005778261820400,6.0288203125,0.20986413955688477,0.21081514656543732,0.0008571576327085495
1738005778271889400,6.038889404296875,0.18558304011821747,0.14682896435260773,-0.010110272094607353
1738005778281958400,6.04895849609375,0.15832558274269104,0.07338295131921768,-0.031947843730449677
1738005778292026400,6.0590263671875,0.12857407331466675,0.010467639192938805,-0.061416786164045334
1738005778302095400,6.069095458984375,0.09550347924232483,-0.014842214062809944,-0.08612008392810822
1738005778312164400,6.079164306640625,0.07468981295824051,0.004735215101391077,-0.09359344840049744
1738005778322233300,6.0892333984375,0.07556616514921188,0.03286037966609001,-0.08437890559434891
1738005778332302300,6.09930224609375,0.08059900999069214,0.062115199863910675,-0.060459986329078674
1738005778342371300,6.109371337890625,0.09353692829608917,0.11272962391376495,-0.057595036923885345
1738005778352440300,6.1194404296875,0.12377233058214188,0.1703396588563919,-0.0910978689789772
1738005778362509300,6.12950927734375,0.18264679610729218,0.2261052280664444,-0.16077879071235657
1738005778372578300,6.139578369140625,0.270770788192749,0.2783101201057434,-0.3010352551937103
1738005778382647300,6.149647216796875,0.3575199544429779,0.34674307703971863,-0.5054255127906799
1738005778392715500,6.159715576171875,0.4100859463214874,0.37030139565467834,-0.7315446734428406
1738005778402784300,6.1697841796875,0.4290222227573395,0.27391648292541504,-0.893543541431427
1738005778412853200,6.179853271484375,0.4352971613407135,0.09166307747364044,-0.9430290460586548
1738005778422922500,6.189922607421875,0.4336649179458618,-0.1031954437494278,-0.8492429256439209
1738005778432991200,6.1999912109375,0.3881160616874695,-0.28315961360931396,-0.5988237857818604
1738005778443060500,6.210060546875,0.33733469247817993,-0.39235246181488037,-0.2202339768409729
1738005778453129200,6.220129150390625,0.31355613470077515,-0.38076052069664,0.2060195952653885
1738005778463198500,6.230198486328125,0.3043210804462433,-0.28757864236831665,0.607505202293396
1738005778473267200,6.24026708984375,0.274044930934906,-0.2165611982345581,0.9333105087280273
1738005778483336400,6.25033642578125,0.23798346519470215,-0.1537857949733734,1.1331536769866943
1738005778493404400,6.260404296875,0.21969713270664215,-0.09175092726945877,1.1870814561843872
1738005778503473400,6.270473388671875,0.22258931398391724,-0.03530174493789673,1.1093376874923706
1738005778513542400,6.28054248046875,0.23815762996673584,-0.011103729717433453,0.9239816665649414
1738005778523611400,6.290611328125,0.26527249813079834,-0.017950618639588356,0.6775019764900208
1738005778533680400,6.300680419921875,0.31714075803756714,-0.049956753849983215,0.4132026731967926
1738005778543749400,6.310749267578125,0.3833301365375519,-0.07744670659303665,0.15305674076080322
1738005778553818000,6.320818115234375,0.45968401432037354,-0.08471421152353287,-0.061382584273815155
1738005778563887400,6.330887451171875,0.5447102785110474,-0.10468904674053192,-0.20422667264938354
1738005778573956400,6.340956298828125,0.6291354298591614,-0.09314211457967758,-0.26805198192596436
1738005778584024300,6.3510244140625,0.704024076461792,-0.03093126229941845,-0.2615678310394287
1738005778594093300,6.36109326171875,0.7544745206832886,0.043176520615816116,-0.18458357453346252
1738005778604162600,6.37116259765625,0.7818838357925415,0.09061135351657867,-0.0586521252989769
1738005778614231300,6.381231201171875,0.7767508029937744,0.09800802171230316,0.07964130491018295
1738005778624300300,6.39130029296875,0.7343956828117371,0.06829726696014404,0.19451339542865753
1738005778634369000,6.401369140625,0.6598964333534241,0.017884962260723114,0.26669731736183167
1738005778644438300,6.411438232421875,0.5578000545501709,-0.029367720708251,0.29895272850990295
1738005778654507300,6.42150732421875,0.44026169180870056,-0.07703936845064163,0.29809412360191345
1738005778664576300,6.431576171875,0.32587164640426636,-0.10548637807369232,0.2762879729270935
1738005778674645200,6.441645263671875,0.2190469354391098,-0.11022014915943146,0.24154305458068848
1738005778684713200,6.451713134765625,0.13129264116287231,-0.1043127104640007,0.21509221196174622
1738005778694782200,6.4617822265625,0.05802987515926361,-0.09734188765287399,0.19300609827041626
1738005778704851200,6.471851318359375,-0.01029261201620102,-0.08963777869939804,0.18679200112819672
1738005778714920200,6.481920166015625,-0.04893987253308296,-0.07541356980800629,0.18431872129440308
1738005778724989200,6.4919892578125,-0.06786992400884628,-0.05809229984879494,0.1937963366508484
1738005778735058400,6.502058349609375,-0.07607725262641907,-0.03693588078022003,0.19413961470127106
1738005778745127200,6.512127197265625,-0.07012903690338135,-0.020322855561971664,0.1990688145160675
1738005778755196200,6.522196044921875,-0.055133573710918427,-0.009307755157351494,0.2047370970249176
1738005778765265200,6.53226513671875,-0.020143210887908936,0.00520470691844821,0.20743875205516815
1738005778775334100,6.542334228515625,0.017332790419459343,0.02399597130715847,0.21792389452457428
1738005778785402400,6.55240234375,0.05575580149888992,0.04178910702466965,0.21288606524467468
1738005778795471000,6.56247119140625,0.08724767714738846,0.06611601263284683,0.19853481650352478
1738005778805540400,6.572540283203125,0.11299460381269455,0.08504042029380798,0.18492145836353302
1738005778815609300,6.582609375,0.12749551236629486,0.08735177665948868,0.16619491577148438
1738005778825678000,6.592677978515625,0.128676176071167,0.06902406364679337,0.14421957731246948
1738005778835747300,6.602747314453125,0.12252241373062134,0.04827484115958214,0.1280432641506195
1738005778845816000,6.612816162109375,0.11300617456436157,0.024350794032216072,0.11448462307453156
1738005778855885300,6.62288525390625,0.10430429875850677,0.0004952629096806049,0.10964831709861755
1738005778865954000,6.6329541015625,0.09727635979652405,-0.019776543602347374,0.10065798461437225
1738005778876023300,6.643023193359375,0.08300714194774628,-0.02053714171051979,0.09104343503713608
1738005778886091300,6.65309130859375,0.062220342457294464,-0.017016183584928513,0.08864568173885345
1738005778896160000,6.663159912109375,0.0490531399846077,-0.04359879344701767,0.07389070093631744
1738005778906229200,6.673229248046875,0.04485095292329788,-0.06104305386543274,0.05327190086245537
1738005778916298200,6.68329833984375,0.02962459623813629,-0.0718672052025795,0.04667658358812332
1738005778926367200,6.6933671875,0.01872219890356064,-0.08016298711299896,0.04856978729367256
1738005778936436200,6.703436279296875,-0.0030579324811697006,-0.07154633104801178,0.05811429023742676
1738005778946505200,6.713505126953125,-0.024547066539525986,-0.05088195949792862,0.0684627965092659
1738005778956574200,6.72357421875,-0.04667793586850166,-0.020890504121780396,0.0885600820183754
1738005778966643200,6.733643310546875,-0.07351486384868622,-0.01538018137216568,0.1079866960644722
1738005778976712200,6.743712158203125,-0.1049145981669426,-0.025053314864635468,0.1170576885342598
1738005778986780200,6.7537802734375,-0.13674761354923248,-0.04511572793126106,0.10793894529342651
1738005778996849400,6.763849365234375,-0.1747003197669983,-0.05691246688365936,0.09794703125953674
1738005779006918100,6.773918212890625,-0.21725231409072876,-0.07070868462324142,0.10069389641284943
1738005779016987400,6.7839873046875,-0.25168299674987793,-0.10443388670682907,0.11327040940523148
1738005779027056000,6.79405615234375,-0.28408804535865784,-0.12232238054275513,0.1422000229358673
1738005779037125000,6.804125,-0.30125850439071655,-0.12017560750246048,0.1883334219455719
1738005779047194400,6.8141943359375,-0.3032864034175873,-0.06838759779930115,0.252821147441864
1738005779057263000,6.82426318359375,-0.29664742946624756,0.022502098232507706,0.3339002728462219
1738005779067332400,6.834332275390625,-0.2676832675933838,0.12428690493106842,0.43412938714027405
1738005779077401000,6.844401123046875,-0.21975569427013397,0.17726702988147736,0.552222490310669
1738005779087469000,6.854468994140625,-0.18047770857810974,0.15894436836242676,0.6762991547584534
1738005779097538300,6.864538330078125,-0.1509464532136917,0.09076106548309326,0.7889236807823181
1738005779107607000,6.87460693359375,-0.12122650444507599,0.03308885544538498,0.8421762585639954
1738005779117676300,6.88467626953125,-0.10510426014661789,0.01266880240291357,0.8079421520233154
1738005779127745000,6.8947451171875,-0.09349226206541061,-0.026062190532684326,0.6740525364875793
1738005779137814300,6.904814208984375,-0.11242813616991043,-0.07092553377151489,0.45317235589027405
1738005779147883300,6.91488330078125,-0.17097851634025574,-0.09907111525535583,0.13755947351455688
1738005779157952300,6.9249521484375,-0.2384486347436905,-0.16061784327030182,-0.26567429304122925
1738005779168021200,6.935021240234375,-0.2958166301250458,-0.18015608191490173,-0.692710280418396
1738005779178090000,6.945090087890625,-0.33577069640159607,-0.11995319277048111,-1.0630203485488892
1738005779188158200,6.955158203125,-0.3773355782032013,-0.08544063568115234,-1.2563955783843994
1738005779198227200,6.965227294921875,-0.40654727816581726,-0.05877147614955902,-1.1721928119659424
1738005779208296200,6.975296142578125,-0.38750192523002625,-0.020537560805678368,-0.809777557849884
1738005779218365200,6.985365234375,-0.34654757380485535,0.029973017051815987,-0.26473215222358704
1738005779228434400,6.995434326171875,-0.29320016503334045,0.05263271927833557,0.3223990499973297
1738005779238503200,7.005503173828125,-0.24524648487567902,0.02145828865468502,0.8249258399009705
1738005779248572200,7.015572265625,-0.21780234575271606,0.006376087199896574,1.1591739654541016
1738005779258641200,7.02564111328125,-0.18243557214736938,0.04170425236225128,1.2737900018692017
1738005779268710100,7.035710205078125,-0.1367964893579483,0.11964700371026993,1.1713162660598755
1738005779278779400,7.045779296875,-0.07829563319683075,0.22276300191879272,0.9215336441993713
1738005779288847000,7.05584716796875,-0.030492573976516724,0.29811331629753113,0.6021709442138672
1738005779298916000,7.065916015625,-0.0006848769262433052,0.30372753739356995,0.27394670248031616
1738005779308985300,7.0759853515625,-0.000757330097258091,0.25667184591293335,-0.02159937098622322
1738005779319054000,7.08605419921875,-0.024203799664974213,0.19192719459533691,-0.2703883945941925
1738005779329123300,7.096123291015625,-0.04676203802227974,0.08570141345262527,-0.46696576476097107
1738005779339192000,7.106192138671875,-0.06495888531208038,-0.04428854212164879,-0.6063734889030457
1738005779349261300,7.11626123046875,-0.09620653092861176,-0.20983600616455078,-0.6707352995872498
1738005779359330300,7.126330322265625,-0.1150425374507904,-0.3545178472995758,-0.6667352318763733
1738005779369399300,7.1363994140625,-0.11209189146757126,-0.3987325429916382,-0.609531819820404
1738005779379468300,7.14646826171875,-0.07959946244955063,-0.3339969515800476,-0.5032280087471008
1738005779389536300,7.156536376953125,-0.04072524979710579,-0.20075377821922302,-0.3428860306739807
1738005779399605200,7.166605224609375,-0.0020255274139344692,-0.030515465885400772,-0.15024176239967346
1738005779409674200,7.17667431640625,0.03621592000126839,0.12538674473762512,0.03799654543399811
1738005779419743200,7.1867431640625,0.06629259139299393,0.21519386768341064,0.1775517761707306
1738005779429812200,7.196812255859375,0.08325718343257904,0.23953011631965637,0.24665261805057526
1738005779439881200,7.206881103515625,0.08337196707725525,0.23964117467403412,0.23555442690849304
1738005779449950200,7.2169501953125,0.0691148042678833,0.2367430329322815,0.15240716934204102
1738005779460019200,7.227019287109375,0.06153092905879021,0.225571870803833,0.035774022340774536
1738005779470088200,7.237088134765625,0.06298106908798218,0.195615753531456,-0.0939621701836586
1738005779480157200,7.2471572265625,0.05702996626496315,0.15639910101890564,-0.19947075843811035
1738005779490225400,7.257225341796875,0.05339895188808441,0.10783221572637558,-0.24320028722286224
1738005779500294100,7.267294189453125,0.0491701178252697,0.06944087892770767,-0.22447213530540466
1738005779510363100,7.277363037109375,0.05464661866426468,0.06430502235889435,-0.16824652254581451
1738005779520432000,7.28743212890625,0.05283806845545769,0.06506482511758804,-0.11178751289844513
1738005779530501000,7.297501220703125,0.05076345056295395,0.05148032680153847,-0.08346205204725266
1738005779540570400,7.3075703125,0.04097234085202217,0.032400909811258316,-0.07557377219200134
1738005779550639000,7.31763916015625,0.03188719227910042,0.014542032033205032,-0.09517840296030045
1738005779560708400,7.327708251953125,0.027706829831004143,0.00608782609924674,-0.11863578855991364
1738005779570777000,7.337777099609375,0.024410508573055267,-0.0200046394020319,-0.13775652647018433
1738005779580846300,7.347846435546875,0.03418963402509689,-0.028065761551260948,-0.15349127352237701
1738005779590915300,7.357915283203125,0.051461417227983475,0.004868121352046728,-0.1690853089094162
1738005779600983000,7.367983154296875,0.07756811380386353,0.068478524684906,-0.19615554809570312
1738005779611052300,7.37805224609375,0.10498601943254471,0.13564811646938324,-0.22166432440280914
1738005779621121300,7.388121337890625,0.12412641942501068,0.18468783795833588,-0.23780174553394318
1738005779631189800,7.398189697265625,0.14183954894542694,0.22005176544189453,-0.2141573280096054
1738005779641259000,7.408259033203125,0.15521979331970215,0.24740588665008545,-0.15030644834041595
1738005779651327700,7.41832763671875,0.1644044667482376,0.25768810510635376,-0.06803637742996216
1738005779661396700,7.428396728515625,0.16892410814762115,0.2528965473175049,0.017415672540664673
1738005779671466000,7.438466064453125,0.16731907427310944,0.22343982756137848,0.09030748903751373
1738005779681534700,7.44853466796875,0.16437149047851562,0.16696563363075256,0.13401049375534058
1738005779691604000,7.45860400390625,0.16085432469844818,0.09199783951044083,0.12177654355764389
1738005779701672000,7.468671875,0.1523742824792862,0.00787869468331337,0.06812450289726257
1738005779711740700,7.47874072265625,0.14755673706531525,-0.06699484586715698,-0.011959299445152283
1738005779721810000,7.488809814453125,0.15201832354068756,-0.1082482784986496,-0.12085781991481781
1738005779731878700,7.498878662109375,0.16822050511837006,-0.14128005504608154,-0.22602733969688416
1738005779741948000,7.508947998046875,0.18844614923000336,-0.11900458484888077,-0.31995275616645813
1738005779752017000,7.519016845703125,0.20820949971675873,-0.0847770944237709,-0.387826532125473
1738005779762086000,7.5290859375,0.21664878726005554,-0.06424226611852646,-0.4245709478855133
1738005779772155000,7.53915478515625,0.22633174061775208,-0.042746301740407944,-0.42386212944984436
1738005779782224000,7.549223876953125,0.2331867218017578,-0.01701776683330536,-0.395609974861145
1738005779792292900,7.55929296875,0.23638533055782318,0.005743091460317373,-0.34386327862739563
1738005779802360800,7.56936083984375,0.23967832326889038,0.04899975284934044,-0.2816864550113678
1738005779812429800,7.579429931640625,0.23504100739955902,0.08563492447137833,-0.2086993008852005
1738005779822498800,7.589498779296875,0.23082709312438965,0.11175733804702759,-0.13578514754772186
1738005779832567800,7.59956787109375,0.20547044277191162,0.1198234036564827,-0.08613605797290802
1738005779842636800,7.60963671875,0.17952567338943481,0.09028708189725876,-0.06031031906604767
1738005779852706000,7.6197060546875,0.15323078632354736,0.05059628561139107,-0.0548819974064827
1738005779862774800,7.62977490234375,0.12209496647119522,0.004809620790183544,-0.05738750100135803
1738005779872843800,7.63984375,0.10973145067691803,-0.05099901184439659,-0.06316092610359192
1738005779882912800,7.649912841796875,0.12075107544660568,-0.08295774459838867,-0.056646302342414856
1738005779892981800,7.659981689453125,0.14874130487442017,-0.09488429874181747,-0.030865535140037537
1738005779903050000,7.670050048828125,0.1798992156982422,-0.11043476313352585,-0.0025574620813131332
1738005779913118700,7.68011865234375,0.21774603426456451,-0.10936933010816574,0.012463678605854511
1738005779923187700,7.690187744140625,0.25910279154777527,-0.09292590618133545,0.006626295857131481
1738005779933257000,7.700257080078125,0.3054507374763489,-0.07581278681755066,-0.015854179859161377
1738005779943325700,7.71032568359375,0.35482949018478394,-0.06324745714664459,-0.04902811348438263
1738005779953395000,7.72039501953125,0.4130862057209015,-0.043456293642520905,-0.07810461521148682
1738005779963463700,7.730463623046875,0.4828767478466034,-0.030455270782113075,-0.11628742516040802
1738005779973533000,7.740532958984375,0.5532526969909668,0.004090142901986837,-0.16280820965766907
1738005779983602000,7.750601806640625,0.619001030921936,0.03492875024676323,-0.20466670393943787
1738005779993671000,7.7606708984375,0.6839979887008667,0.04772939905524254,-0.2308603674173355
1738005780003739000,7.77073876953125,0.756000280380249,0.05316757410764694,-0.24034440517425537
1738005780013807900,7.780807861328125,0.8174798488616943,0.06004210561513901,-0.23444809019565582
1738005780023876900,7.790876953125,0.8648148775100708,0.038912586867809296,-0.2160176783800125
1738005780033945900,7.80094580078125,0.9045382738113403,0.009164560586214066,-0.19935829937458038
1738005780044014800,7.811014892578125,0.9515329599380493,-0.011127394624054432,-0.19185590744018555
1738005780054083800,7.821083740234375,0.9942643642425537,-0.01941939815878868,-0.20069551467895508
1738005780064152800,7.83115283203125,1.033475637435913,-0.028756173327565193,-0.22712232172489166
1738005780074221800,7.841221923828125,1.0753982067108154,-0.03184308111667633,-0.2586294412612915
1738005780084290800,7.851290771484375,1.1109298467636108,-0.03992817550897598,-0.2743995785713196
1738005780094359000,7.861359130859375,1.149543046951294,-0.04111114889383316,-0.28525519371032715
1738005780104427800,7.871427734375,1.1858693361282349,-0.01927029900252819,-0.293724000453949
1738005780114497000,7.8814970703125,1.2206872701644897,0.03971681743860245,-0.2958979904651642
1738005780124565800,7.891565673828125,1.2523407936096191,0.0982792004942894,-0.2988293468952179
1738005780134634800,7.901634765625,1.296307921409607,0.153606578707695,-0.3100307583808899
1738005780144703700,7.911703857421875,1.325270414352417,0.1819085329771042,-0.3351323902606964
1738005780154772700,7.921772705078125,1.3550009727478027,0.1833396703004837,-0.3594188392162323
1738005780164842000,7.931842041015625,1.399980902671814,0.18091753125190735,-0.3725641965866089
1738005780174910700,7.94191064453125,1.4530375003814697,0.17412929236888885,-0.36267855763435364
1738005780184980000,7.95197998046875,1.4952683448791504,0.18076349794864655,-0.32815414667129517
1738005780195048000,7.9620478515625,1.544407844543457,0.1681191772222519,-0.2863622009754181
1738005780205116700,7.97211669921875,1.597383975982666,0.19424478709697723,-0.24579454958438873
1738005780215186000,7.98218603515625,1.6415666341781616,0.24509181082248688,-0.2277466505765915
1738005780225254700,7.992254638671875,1.6489238739013672,0.267814964056015,-0.23689407110214233
1738005780235324000,8.002323974609375,1.677284598350525,0.27732911705970764,-0.2778210937976837
1738005780245393000,8.012392822265625,1.720820665359497,0.3071434497833252,-0.30887436866760254
1738005780255462000,8.0224619140625,1.7760045528411865,0.3228902518749237,-0.30934131145477295
1738005780265531000,8.03253076171875,1.8226039409637451,0.3426804542541504,-0.2871454954147339
1738005780275599600,8.042599609375,1.873151183128357,0.38234880566596985,-0.25145748257637024
1738005780285667800,8.052667724609375,1.912520170211792,0.4072645306587219,-0.19319045543670654
1738005780295736800,8.06273681640625,1.9404200315475464,0.39631280303001404,-0.10823516547679901
1738005780305805800,8.072805908203126,1.9425058364868164,0.34783607721328735,-0.0015792865306138992
1738005780315874800,8.082874755859375,1.9300003051757812,0.29240965843200684,0.10974773019552231
1738005780325944000,8.092944091796875,1.914253830909729,0.26450639963150024,0.19179999828338623
1738005780336012800,8.1030126953125,1.889404058456421,0.2647176682949066,0.2259455919265747
1738005780346081800,8.113081787109374,1.8605183362960815,0.27048978209495544,0.20837005972862244
1738005780356150800,8.12315087890625,1.8223061561584473,0.2589198648929596,0.13498294353485107
1738005780366219800,8.1332197265625,1.794075608253479,0.22963173687458038,0.012294299900531769
1738005780376288800,8.143288818359375,1.7655316591262817,0.1771705001592636,-0.1287887543439865
1738005780386356700,8.153356689453124,1.7251781225204468,0.09951404482126236,-0.24846190214157104
1738005780396425700,8.16342578125,1.6914703845977783,0.025661861523985863,-0.34195759892463684
1738005780406495000,8.173494873046875,1.6755982637405396,-0.0357397124171257,-0.3896905183792114
1738005780416563700,8.183563720703125,1.6597678661346436,-0.08952821046113968,-0.38319987058639526
1738005780426633000,8.193633056640625,1.6381409168243408,-0.1433461755514145,-0.3171781897544861
1738005780436701700,8.20370166015625,1.61719810962677,-0.2041158378124237,-0.21627995371818542
1738005780446771000,8.21377099609375,1.5863616466522217,-0.24240437150001526,-0.11814646422863007
1738005780456839700,8.223839599609375,1.5436053276062012,-0.2249157428741455,-0.03842051699757576
1738005780466909000,8.233908935546875,1.5019034147262573,-0.1615695357322693,0.0008941320702433586
1738005780476977000,8.243976806640624,1.4715572595596313,-0.07270537316799164,0.010566547513008118
1738005780487046000,8.2540458984375,1.443644404411316,0.011641735211014748,-0.014115629717707634
1738005780497115000,8.264114990234376,1.4054152965545654,0.06692025065422058,-0.06536158174276352
1738005780507183900,8.274183837890625,1.3541464805603027,0.06922441720962524,-0.13539659976959229
1738005780517252900,8.2842529296875,1.312970757484436,0.04549353942275047,-0.21554605662822723
1738005780527321900,8.29432177734375,1.2990437746047974,0.01851119101047516,-0.26941993832588196
1738005780537390800,8.304390869140626,1.2775920629501343,-0.009209888987243176,-0.3015627861022949
1738005780547459800,8.3144599609375,1.2642823457717896,0.01564672589302063,-0.31413424015045166
1738005780557528800,8.32452880859375,1.2358657121658325,0.05733278766274452,-0.3379128873348236
1738005780567597800,8.334597900390625,1.1957281827926636,0.09794625639915466,-0.3637993335723877
1738005780577665800,8.344665771484374,1.144043207168579,0.11015567183494568,-0.3941161632537842
1738005780587735000,8.354735107421876,1.0830802917480469,0.10456649959087372,-0.39005619287490845
1738005780597803800,8.3648037109375,1.026062250137329,0.08678010106086731,-0.3452715575695038
1738005780607872800,8.374872802734375,0.9670904874801636,0.0331546887755394,-0.2729898989200592
1738005780617941800,8.384941650390624,0.9005188345909119,-0.05934340879321098,-0.18400035798549652
1738005780628010800,8.3950107421875,0.8246541619300842,-0.17488358914852142,-0.0967157781124115
1738005780638083600,8.40508349609375,0.7499120831489563,-0.2758084535598755,-0.04074126109480858
1738005780648152600,8.415152587890624,0.6809527277946472,-0.31132009625434875,-0.02535112202167511
1738005780658221600,8.4252216796875,0.621687114238739,-0.2992316484451294,-0.04559856653213501
1738005780668289500,8.43528955078125,0.5718899965286255,-0.27888986468315125,-0.08364368230104446
1738005780678358500,8.445358642578125,0.5301180481910706,-0.25628623366355896,-0.12235843390226364
1738005780688427500,8.455427490234374,0.4987822473049164,-0.22898191213607788,-0.15889541804790497
1738005780698496500,8.46549658203125,0.47416797280311584,-0.1956482082605362,-0.17484718561172485
1738005780708565500,8.4755654296875,0.4468143880367279,-0.18204478919506073,-0.17242076992988586
1738005780718634500,8.485634521484375,0.4173756539821625,-0.17811869084835052,-0.15702278912067413
1738005780728703500,8.495703369140625,0.3895762264728546,-0.17328931391239166,-0.14070986211299896
1738005780738772500,8.5057724609375,0.3750898838043213,-0.17848999798297882,-0.11939378082752228
1738005780748841500,8.515841552734376,0.3648766577243805,-0.1855577677488327,-0.10671153664588928
1738005780758909400,8.525909423828125,0.35509422421455383,-0.1884125918149948,-0.09968550503253937
1738005780768978700,8.535978759765625,0.33822762966156006,-0.1914730966091156,-0.09024220705032349
1738005780779047400,8.54604736328125,0.31706365942955017,-0.1840246319770813,-0.06562813371419907
1738005780789116700,8.55611669921875,0.2872471511363983,-0.1681404858827591,-0.02483516000211239
1738005780799185400,8.566185302734375,0.2562142610549927,-0.15331189334392548,0.04289074242115021
1738005780809254400,8.57625439453125,0.22822338342666626,-0.13775476813316345,0.11639026552438736
1738005780819323600,8.58632373046875,0.20709024369716644,-0.10285546630620956,0.17824068665504456
1738005780829392400,8.596392333984374,0.18505364656448364,-0.06565962731838226,0.224532812833786
1738005780839461600,8.606461669921876,0.16489700973033905,-0.02145245671272278,0.2504178583621979
1738005780849529600,8.616529541015625,0.13391618430614471,0.004727481864392757,0.2570059895515442
1738005780859598300,8.626598388671875,0.10123938322067261,0.01779324933886528,0.255168616771698
1738005780869667600,8.63666748046875,0.07691380381584167,0.02513212151825428,0.2545259892940521
1738005780879736300,8.646736328125,0.05191212147474289,0.0322866216301918,0.2517941892147064
1738005780889805600,8.6568056640625,0.022600840777158737,0.02728227525949478,0.2445051223039627
1738005780899874600,8.66687451171875,-0.0011099514085799456,0.0289075318723917,0.2310607135295868
1738005780909943600,8.676943603515625,-0.013445179909467697,0.028925640508532524,0.20299898087978363
1738005780920012500,8.687012451171874,-0.021744972094893456,0.03933810815215111,0.161004438996315
1738005780930081500,8.69708154296875,-0.03628689795732498,0.04175279662013054,0.11399006098508835
1738005780940149500,8.7071494140625,-0.05745454132556915,-0.0021366162691265345,0.08163634687662125
1738005780950218500,8.717218505859375,-0.0740007609128952,-0.041812390089035034,0.05975661426782608
1738005780960287500,8.72728759765625,-0.09098583459854126,-0.07012899965047836,0.05328836292028427
1738005780970356500,8.7373564453125,-0.10539699345827103,-0.12191283702850342,0.0612189881503582
1738005780980425500,8.747425537109375,-0.12482999265193939,-0.18974843621253967,0.07310547679662704
1738005780990494500,8.757494384765625,-0.1364823877811432,-0.25568458437919617,0.09340541809797287
1738005781000563700,8.767563720703125,-0.14684158563613892,-0.3085448145866394,0.10790275037288666
1738005781010632400,8.777632568359374,-0.15744681656360626,-0.3392643928527832,0.12712065875530243
1738005781020701400,8.787701416015626,-0.15467385947704315,-0.3372231423854828,0.13187667727470398
1738005781030769700,8.797769775390625,-0.13903231918811798,-0.29865550994873047,0.11653128266334534
1738005781040838400,8.80783837890625,-0.11555041372776031,-0.24333268404006958,0.07890653610229492
1738005781050907600,8.81790771484375,-0.08405294269323349,-0.17566229403018951,0.02907026931643486
1738005781060976400,8.827976318359376,-0.057367514818906784,-0.09609416127204895,-0.020110685378313065
1738005781071045400,8.83804541015625,-0.03981462121009827,-0.02892976999282837,-0.05962187051773071
1738005781081114600,8.848114501953125,-0.023853309452533722,-0.0007945052348077297,-0.09082380682229996
1738005781091183400,8.858183349609375,-0.00397094851359725,0.009397145360708237,-0.11101856082677841
1738005781101252600,8.868252685546874,0.014595899730920792,0.01424479205161333,-0.11522527784109116
1738005781111320600,8.878320556640626,0.028345534577965736,0.007840422913432121,-0.10663098841905594
1738005781121389300,8.888389404296875,0.03985310345888138,0.011747773736715317,-0.08623361587524414
1738005781131458600,8.89845849609375,0.053980376571416855,0.03258035331964493,-0.05785816162824631
1738005781141527300,8.90852734375,0.06758613884449005,0.04700036346912384,-0.03153323754668236
1738005781151596500,8.918596435546876,0.07685686647891998,0.06620148569345474,-0.032230984419584274
1738005781161665500,8.92866552734375,0.08312948048114777,0.06747417896986008,-0.06975246220827103
1738005781171734500,8.938734619140625,0.0939621552824974,0.0662030503153801,-0.12740270793437958
1738005781181803500,8.948803466796875,0.10464467853307724,0.05931571498513222,-0.20698463916778564
1738005781191872500,8.95887255859375,0.11866116523742676,0.0683201253414154,-0.2824605107307434
1738005781201940500,8.9689404296875,0.13796629011631012,0.07745704799890518,-0.32216912508010864
1738005781212009500,8.979009521484375,0.1756630688905716,0.08403585851192474,-0.3269931674003601
1738005781222078500,8.989078369140625,0.21456356346607208,0.09717123955488205,-0.3023296296596527
1738005781232147500,8.9991474609375,0.2537972629070282,0.1126018613576889,-0.2567176818847656
1738005781242216700,9.009216796875,0.29060229659080505,0.12036074697971344,-0.19886812567710876
1738005781252285400,9.019285400390626,0.31710875034332275,0.1322411149740219,-0.17144076526165009
1738005781262354700,9.029354736328125,0.33543792366981506,0.14603179693222046,-0.19502770900726318
1738005781272423400,9.03942333984375,0.33987340331077576,0.16386938095092773,-0.24564453959465027
1738005781282491400,9.049491455078124,0.3441525399684906,0.1800544708967209,-0.2942180335521698
1738005781292560600,9.059560546875,0.3535282015800476,0.17638090252876282,-0.3252886235713959
1738005781302629400,9.06962939453125,0.3670630156993866,0.20142045617103577,-0.33847546577453613
1738005781312698600,9.07969873046875,0.3786749243736267,0.25725361704826355,-0.31599679589271545
1738005781322767600,9.089767578125,0.3953489065170288,0.3295028507709503,-0.2626640498638153
1738005781332836400,9.09983642578125,0.40687957406044006,0.3687993884086609,-0.19567835330963135
1738005781342905600,9.109905517578126,0.4198369085788727,0.3823937177658081,-0.1351357102394104
1738005781352974300,9.119974365234375,0.4235546886920929,0.39825868606567383,-0.09701470285654068
1738005781363043600,9.130043701171875,0.4378940165042877,0.41438278555870056,-0.07609020173549652
1738005781373111600,9.140111572265624,0.45651909708976746,0.4203978180885315,-0.0733833760023117
1738005781383180500,9.1501806640625,0.4948793947696686,0.399870902299881,-0.09724393486976624
1738005781393249500,9.16024951171875,0.5335649847984314,0.4263877272605896,-0.1782597005367279
1738005781403318500,9.170318603515625,0.5518028140068054,0.44578084349632263,-0.3082529306411743
1738005781413387500,9.180387451171875,0.547575056552887,0.4202944040298462,-0.4787501096725464
1738005781423456500,9.19045654296875,0.5109630227088928,0.380313903093338,-0.6932176351547241
1738005781433525500,9.200525390625,0.44789668917655945,0.282916784286499,-0.8883370757102966
1738005781443594500,9.210594482421875,0.3756117522716522,0.10250236839056015,-1.0250850915908813
1738005781453663500,9.22066357421875,0.2759389579296112,-0.1158403530716896,-1.0600590705871582
1738005781463731500,9.2307314453125,0.16798947751522064,-0.3447788655757904,-0.9822058081626892
1738005781473800400,9.240800537109376,0.09446333348751068,-0.5091446042060852,-0.8042616248130798
1738005781483869400,9.250869384765625,0.0500677227973938,-0.5500977039337158,-0.5680831670761108
1738005781493938400,9.2609384765625,0.02361001819372177,-0.4287704825401306,-0.29457125067710876
1738005781504007700,9.271007568359375,0.01389310322701931,-0.18893231451511383,-0.023174256086349487
1738005781514076400,9.281076416015624,0.012938892468810081,0.08364861458539963,0.22414499521255493
1738005781524145700,9.291145751953126,0.0046341572888195515,0.30775120854377747,0.44697046279907227
1738005781534214400,9.30121435546875,-0.007148998789489269,0.4463346600532532,0.6225495338439941
1738005781544282400,9.311282470703125,-0.02555830217897892,0.5142568945884705,0.7292219996452332
1738005781554351600,9.3213515625,-0.041718628257513046,0.5523600578308105,0.7548826336860657
1738005781564420400,9.33142041015625,-0.048178937286138535,0.5457575917243958,0.712465763092041
1738005781574489600,9.341489501953125,-0.0332828126847744,0.47618040442466736,0.6188228726387024
1738005781584558600,9.35155859375,0.017647147178649902,0.36447203159332275,0.49341636896133423
1738005781594627600,9.361627685546875,0.08664059638977051,0.21862800419330597,0.35537752509117126
1738005781604696600,9.371696533203124,0.16546671092510223,0.03835272789001465,0.22716045379638672
1738005781614765300,9.381765380859376,0.2619740664958954,-0.13279718160629272,0.13980263471603394
1738005781624834600,9.39183447265625,0.3539878726005554,-0.2854444980621338,0.1228540912270546
1738005781634902300,9.40190234375,0.4368329644203186,-0.35709258913993835,0.17587308585643768
1738005781644971000,9.411970947265624,0.5022370219230652,-0.3572582006454468,0.2615450322628021
1738005781655040000,9.4220400390625,0.5415593981742859,-0.3281671702861786,0.36296167969703674
1738005781665109200,9.432109130859375,0.5681256055831909,-0.2941584587097168,0.45564883947372437
1738005781675178000,9.442177978515625,0.575438380241394,-0.24400128424167633,0.5153862237930298
1738005781685247200,9.452247314453125,0.545056939125061,-0.1910540908575058,0.5329384803771973
1738005781695316000,9.46231591796875,0.48946020007133484,-0.1584886908531189,0.5111623406410217
1738005781705385200,9.47238525390625,0.41728368401527405,-0.14128752052783966,0.45846959948539734
1738005781715453200,9.482453125,0.3295605182647705,-0.13671113550662994,0.3986142575740814
1738005781725522000,9.49252197265625,0.24408632516860962,-0.16485916078090668,0.3443375825881958
1738005781735591200,9.502591064453124,0.17680315673351288,-0.22250381112098694,0.3115655183792114
1738005781745660200,9.51266015625,0.12040974199771881,-0.2913183271884918,0.29345956444740295
1738005781755729200,9.522729248046875,0.07375302910804749,-0.3580153286457062,0.29377835988998413
1738005781765798100,9.532798095703125,0.034848254173994064,-0.40464863181114197,0.2968667149543762
1738005781775867100,9.5428671875,0.008413715288043022,-0.4408484399318695,0.29720014333724976
1738005781785936100,9.55293603515625,0.01045238971710205,-0.4171844720840454,0.2899506390094757
1738005781796004000,9.563004150390626,0.03612925484776497,-0.33620119094848633,0.27642470598220825
1738005781806073000,9.573072998046875,0.07572565227746964,-0.22155766189098358,0.25889769196510315
1738005781816142000,9.58314208984375,0.1144980862736702,-0.10738928616046906,0.24955934286117554
1738005781826211300,9.59321142578125,0.15097099542617798,0.007526548113673925,0.2473389059305191
1738005781836280000,9.603280029296876,0.18166525661945343,0.09746628999710083,0.23808255791664124
1738005781846349300,9.613349365234376,0.20018626749515533,0.15329140424728394,0.22208508849143982
1738005781856418000,9.62341796875,0.20742741227149963,0.16477549076080322,0.20074091851711273
1738005781866487000,9.633487060546875,0.19998115301132202,0.14872097969055176,0.16350224614143372
1738005781876556000,9.64355615234375,0.1857987642288208,0.13019444048404694,0.11518797278404236
1738005781886624000,9.6536240234375,0.16601760685443878,0.1313924640417099,0.06488986313343048
1738005781896693200,9.663693359375,0.14205022156238556,0.12552659213542938,0.02624872699379921
1738005781906762200,9.67376220703125,0.11686297506093979,0.10860452800989151,0.009161379188299179
1738005781916831000,9.6838310546875,0.09657527506351471,0.08713226020336151,0.013891685754060745
1738005781926900200,9.693900146484374,0.07895514369010925,0.057792872190475464,0.027826905250549316
1738005781936969000,9.703968994140626,0.06555518507957458,0.05173764005303383,0.03292073309421539
1738005781947038200,9.7140380859375,0.04095243290066719,0.06454791128635406,0.04843060299754143
1738005781957107000,9.72410693359375,0.017333123832941055,0.07242235541343689,0.061162907630205154
1738005781967176200,9.73417626953125,0.0032195132225751877,0.06120828166604042,0.07395040988922119
1738005781977244200,9.744244140625,-0.014058010652661324,0.012204516679048538,0.0792197436094284
1738005781987313200,9.754313232421875,-0.0362301729619503,-0.004398454912006855,0.04459180682897568
1738005781997382100,9.764382080078125,-0.06178080663084984,-0.009889893233776093,-0.03169683739542961
1738005782007451100,9.774451171875,-0.08838189393281937,-0.024435952305793762,-0.12009267508983612
1738005782017520000,9.78452001953125,-0.11336100846529007,-0.048166580498218536,-0.20069776475429535
1738005782027589000,9.794589111328126,-0.13782069087028503,-0.07474478334188461,-0.25884148478507996
1738005782037658000,9.804658203125,-0.16312578320503235,-0.08524669706821442,-0.28947022557258606
1738005782047727000,9.81472705078125,-0.1767507642507553,-0.08606084436178207,-0.2989812195301056
1738005782057795000,9.824795166015624,-0.19011637568473816,-0.07317647337913513,-0.2911169230937958
1738005782067864000,9.834864013671876,-0.19968819618225098,-0.05444632098078728,-0.2924344539642334
1738005782077933000,9.84493310546875,-0.2157720923423767,-0.007025540806353092,-0.30539605021476746
1738005782088002300,9.855002197265625,-0.24466760456562042,0.03431200608611107,-0.31591400504112244
1738005782098071000,9.865071044921875,-0.2747136652469635,0.06688619405031204,-0.3116249740123749
1738005782108140300,9.875140380859374,-0.29639166593551636,0.0849907249212265,-0.2863272726535797
1738005782118209000,9.885208984375,-0.30793941020965576,0.08565012365579605,-0.25058579444885254
1738005782128278000,9.895278076171875,-0.3058184087276459,0.1056685745716095,-0.21039965748786926
1738005782138346200,9.90534619140625,-0.29498493671417236,0.15167948603630066,-0.15680009126663208
1738005782148415000,9.9154150390625,-0.2728953957557678,0.2078341394662857,-0.10224854201078415
1738005782158484200,9.925484130859376,-0.2547147870063782,0.26939254999160767,-0.038433875888586044
1738005782168553200,9.93555322265625,-0.2430536448955536,0.33283039927482605,0.03486746549606323
1738005782178622200,9.945622314453125,-0.23601651191711426,0.3436580300331116,0.13555732369422913
1738005782188691200,9.955691162109375,-0.2335163801908493,0.2945307493209839,0.2444036900997162
1738005782198760000,9.965760009765624,-0.25984200835227966,0.20279043912887573,0.33362358808517456
1738005782208829200,9.9758291015625,-0.29779598116874695,0.09255683422088623,0.3710344135761261
1738005782218898200,9.985898193359375,-0.3442521393299103,-0.02236681990325451,0.3366253077983856
1738005782228966100,9.995966064453125,-0.3793063759803772,-0.10811921954154968,0.19907383620738983
1738005782239035100,10.00603515625,-0.417055606842041,-0.18442703783512115,-0.038834601640701294
1738005782249104100,10.016104248046876,-0.46901023387908936,-0.2812703847885132,-0.32999375462532043
1738005782259173000,10.026173095703125,-0.5328949093818665,-0.27023744583129883,-0.632457435131073
1738005782269242000,10.0362421875,-0.5689934492111206,-0.12740080058574677,-0.8937676548957825
1738005782279311000,10.04631103515625,-0.611258864402771,0.09867335110902786,-1.0268054008483887
1738005782289380000,10.056380126953124,-0.6511797904968262,0.35087719559669495,-0.9656041264533997
1738005782299449000,10.066448974609376,-0.6384972929954529,0.5402843952178955,-0.6840648055076599
1738005782309517000,10.07651708984375,-0.565142810344696,0.6543638110160828,-0.26754558086395264
1738005782319586000,10.0865859375,-0.4620803892612457,0.6301154494285583,0.16986344754695892
1738005782329655300,10.0966552734375,-0.3769959509372711,0.49981245398521423,0.5621155500411987
1738005782339724000,10.10672412109375,-0.3314950466156006,0.3299832046031952,0.8542048931121826
1738005782349793300,10.116793212890625,-0.3034593462944031,0.17985382676124573,1.022247076034546
1738005782359862000,10.126862060546875,-0.27787649631500244,0.07091082632541656,1.0789300203323364
1738005782369931300,10.13693115234375,-0.24618612229824066,-0.026961226016283035,1.0492075681686401
1738005782380000000,10.147,-0.2081623077392578,-0.10845661163330078,0.9497655034065247
1738005782390069200,10.1570693359375,-0.18511159718036652,-0.16250601410865784,0.7904317378997803
1738005782400137200,10.16713720703125,-0.19966790080070496,-0.20967192947864532,0.5859465003013611
1738005782410206000,10.1772060546875,-0.24324139952659607,-0.25014859437942505,0.3651045262813568
1738005782420275200,10.187275146484374,-0.28264153003692627,-0.25755032896995544,0.1589590460062027
1738005782430344200,10.19734423828125,-0.29838892817497253,-0.24393613636493683,-0.005412686616182327
1738005782440413200,10.2074130859375,-0.31554391980171204,-0.2481846809387207,-0.10505779087543488
1738005782450482200,10.217482177734375,-0.3452709913253784,-0.28719621896743774,-0.14531409740447998
1738005782460551000,10.227551025390625,-0.37317559123039246,-0.29970666766166687,-0.13661541044712067
1738005782470620200,10.2376201171875,-0.39123663306236267,-0.2524986267089844,-0.10355566442012787
1738005782480688000,10.247688232421876,-0.39689451456069946,-0.18103082478046417,-0.058042775839567184
1738005782490757000,10.257757080078125,-0.39359036087989807,-0.10919228196144104,-0.011790280230343342
1738005782500826000,10.267826171875,-0.3917354941368103,-0.03833142668008804,0.026127807796001434
1738005782510895000,10.27789501953125,-0.39303889870643616,0.0020663682371377945,0.04323466122150421
1738005782520964000,10.287964111328124,-0.4077456593513489,-0.003078592475503683,0.053076375275850296
1738005782531033000,10.298033203125,-0.42993566393852234,-0.0253900233656168,0.06364353001117706
1738005782541102000,10.30810205078125,-0.4520420432090759,-0.06638859212398529,0.09647151827812195
1738005782551171000,10.318171142578125,-0.4722770154476166,-0.10136967152357101,0.135126993060112
1738005782561239300,10.3282392578125,-0.4890386760234833,-0.10625018179416656,0.17733275890350342
1738005782571308000,10.33830810546875,-0.5036244988441467,-0.0825425237417221,0.218014195561409
1738005782581377000,10.348376953125,-0.5238338708877563,-0.06600376218557358,0.24144308269023895
1738005782591446300,10.3584462890625,-0.5542037487030029,-0.060767799615859985,0.2486170381307602
1738005782601515000,10.368514892578125,-0.5857467651367188,-0.06279206275939941,0.24164195358753204
1738005782611584300,10.378584228515624,-0.624342143535614,-0.060004740953445435,0.23479028046131134
1738005782621653000,10.388653076171876,-0.6540582180023193,-0.055487487465143204,0.2143651694059372
1738005782631722200,10.39872216796875,-0.6977642774581909,-0.0635194480419159,0.18230532109737396
1738005782641787100,10.408787109375,-0.7317702174186707,-0.08106862008571625,0.14611747860908508
1738005782651856100,10.418856201171875,-0.753912091255188,-0.1145729124546051,0.10342639684677124
1738005782661925000,10.428925048828125,-0.7878434658050537,-0.15795980393886566,0.0628584623336792
1738005782671994000,10.438994140625,-0.8092571496963501,-0.18752962350845337,0.024719446897506714
1738005782682063000,10.44906298828125,-0.8235301375389099,-0.20700931549072266,-0.016720669344067574
1738005782692132400,10.45913232421875,-0.8220770359039307,-0.22219178080558777,-0.05104173719882965
1738005782702201000,10.469201171875,-0.8097865581512451,-0.21124006807804108,-0.07706321775913239
1738005782712270000,10.47927001953125,-0.7790584564208984,-0.1929236203432083,-0.09217908978462219
1738005782722339000,10.489339111328125,-0.7250644564628601,-0.1585635244846344,-0.09876375645399094
1738005782732407000,10.499406982421876,-0.644574761390686,-0.08852390944957733,-0.11993663012981415
1738005782742476300,10.509476318359376,-0.5438950061798096,0.020413488149642944,-0.14948759973049164
1738005782752545000,10.519544921875,-0.447918564081192,0.14986509084701538,-0.1762724071741104
1738005782762614000,10.529614013671875,-0.36821094155311584,0.25223565101623535,-0.17845167219638824
1738005782772683300,10.539683349609374,-0.31060099601745605,0.30176842212677,-0.16763567924499512
1738005782782752000,10.549751953125,-0.27260810136795044,0.2980192303657532,-0.14819353818893433
1738005782792821200,10.5598212890625,-0.24446460604667664,0.24229414761066437,-0.12591947615146637
1738005782802890000,10.569889892578125,-0.23081563413143158,0.17189562320709229,-0.10530341416597366
1738005782812958200,10.579958251953125,-0.23068252205848694,0.07588233798742294,-0.08897934854030609
1738005782823027200,10.590027099609374,-0.23519417643547058,-0.016238270327448845,-0.07163018733263016
1738005782833096000,10.600095947265626,-0.22582297027111053,-0.05564381554722786,-0.048905618488788605
1738005782843165200,10.610165283203125,-0.21610988676548004,-0.039723437279462814,-0.024663131684064865
1738005782853234200,10.620234130859375,-0.22085298597812653,0.013759295456111431,0.01346247736364603
1738005782863303200,10.63030322265625,-0.23329420387744904,0.052509889006614685,0.05839666351675987
1738005782873372200,10.6403720703125,-0.2447582483291626,0.04493652656674385,0.11463207006454468
1738005782883441200,10.650441162109376,-0.25487348437309265,-0.02124888449907303,0.14688800275325775
1738005782893509000,10.660509033203125,-0.2667262554168701,-0.10062505304813385,0.14548827707767487
1738005782903578000,10.670578125,-0.28702327609062195,-0.16493293642997742,0.0867069885134697
1738005782913647000,10.680647216796874,-0.29838788509368896,-0.2299157977104187,-0.020750422030687332
1738005782923716000,10.690716064453126,-0.30113014578819275,-0.30718743801116943,-0.16808395087718964
1738005782933785000,10.70078515625,-0.31944409012794495,-0.33514508605003357,-0.30416339635849
1738005782943854000,10.71085400390625,-0.3530111014842987,-0.3003588914871216,-0.40127742290496826
1738005782953923300,10.72092333984375,-0.39897409081459045,-0.2686513066291809,-0.4510006308555603
1738005782963992000,10.730991943359374,-0.4806087911128998,-0.28330081701278687,-0.4036959707736969
1738005782974060000,10.74106005859375,-0.5882532000541687,-0.3591982126235962,-0.2618582546710968
1738005782984129300,10.75112939453125,-0.71367347240448,-0.46399280428886414,-0.04432220757007599
1738005782994198000,10.761197998046875,-0.8209707140922546,-0.5233154296875,0.18741187453269958
1738005783004267300,10.771267333984374,-0.9072427153587341,-0.4766821265220642,0.3799786865711212
1738005783014336000,10.7813359375,-0.9645651578903198,-0.2959187626838684,0.5256636738777161
1738005783024405200,10.7914052734375,-1.021047830581665,-0.08278943598270416,0.641779363155365
1738005783034474200,10.80147412109375,-1.0677306652069092,0.13009166717529297,0.7194074988365173
1738005783044543000,10.81154296875,-1.1149530410766602,0.3363969027996063,0.7602055072784424
1738005783054611200,10.821611083984376,-1.1782101392745972,0.47477105259895325,0.7388373613357544
1738005783064680200,10.83168017578125,-1.2354737520217896,0.5422182679176331,0.6393611431121826
1738005783074749200,10.841749267578125,-1.3125685453414917,0.53689044713974,0.4796000123023987
1738005783084818200,10.851818115234375,-1.4038950204849243,0.48112064599990845,0.30342763662338257
1738005783094887000,10.861886962890624,-1.4894386529922485,0.356900691986084,0.14181798696517944
1738005783104956200,10.8719560546875,-1.556427001953125,0.19090400636196136,-0.014936471357941628
1738005783115025200,10.882025146484375,-1.6074934005737305,0.08141030371189117,-0.1540827453136444
1738005783125094100,10.89209423828125,-1.6406457424163818,0.020949091762304306,-0.2496342658996582
1738005783135162000,10.902162109375,-1.6537138223648071,-0.008963136002421379,-0.25478270649909973
1738005783145231400,10.9122314453125,-1.6424946784973145,-0.06824403256177902,-0.15872570872306824
1738005783155300000,10.922300048828125,-1.6152517795562744,-0.14049488306045532,0.03693988919258118
1738005783165369000,10.932369140625,-1.5742313861846924,-0.19059321284294128,0.28781259059906006
1738005783175438000,10.94243798828125,-1.5293381214141846,-0.21253801882266998,0.5249820947647095
1738005783185507000,10.952507080078124,-1.4777624607086182,-0.22625169157981873,0.6905542612075806
1738005783195576000,10.962576171875,-1.4471385478973389,-0.26612618565559387,0.790968120098114
1738005783205645000,10.97264501953125,-1.4563578367233276,-0.32503291964530945,0.8295586705207825
1738005783215713000,10.982713134765625,-1.4890350103378296,-0.39003029465675354,0.8058804273605347
1738005783225782300,10.9927822265625,-1.5093786716461182,-0.4619375169277191,0.7214078903198242
1738005783235851000,11.00285107421875,-1.5321778059005737,-0.518966019153595,0.6047857403755188
1738005783245920300,11.012920166015626,-1.5569443702697754,-0.5303674936294556,0.46788328886032104
1738005783255989000,11.022989013671875,-1.5808355808258057,-0.5344198942184448,0.32232794165611267
1738005783266058200,11.033058349609375,-1.608136773109436,-0.5348353385925293,0.17497684061527252
1738005783276127000,11.043126953125,-1.6333990097045898,-0.5070908665657043,0.044311631470918655
1738005783286196200,11.0531962890625,-1.655874490737915,-0.44084230065345764,-0.04972139000892639
1738005783296264200,11.06326416015625,-1.6782615184783936,-0.3795418441295624,-0.10554947704076767
1738005783306333200,11.073333251953125,-1.6951204538345337,-0.33530646562576294,-0.1264057606458664
1738005783316402200,11.083402099609375,-1.7113813161849976,-0.28511810302734375,-0.11862645298242569
1738005783326471200,11.09347119140625,-1.7246116399765015,-0.24331125617027283,-0.09851080179214478
1738005783336540200,11.1035400390625,-1.7286584377288818,-0.19569462537765503,-0.0767674595117569
1738005783346609200,11.113609130859375,-1.7299625873565674,-0.13791628181934357,-0.02810937911272049
1738005783356678100,11.12367822265625,-1.733881950378418,-0.09443744271993637,0.04904288426041603
1738005783366746000,11.13374609375,-1.7378050088882446,-0.07755539566278458,0.14161063730716705
1738005783376815000,11.143815185546876,-1.7442784309387207,-0.0802651047706604,0.23191773891448975
1738005783386884000,11.153884033203125,-1.7632465362548828,-0.11950971186161041,0.3052566647529602
1738005783396953000,11.163953125,-1.781799554824829,-0.1880221664905548,0.34859585762023926
1738005783407022300,11.174022216796875,-1.8025375604629517,-0.2604505717754364,0.34283703565597534
1738005783417091000,11.184091064453124,-1.8058509826660156,-0.3292919099330902,0.30686435103416443
1738005783427160000,11.19416015625,-1.802202820777893,-0.39524269104003906,0.24382251501083374
1738005783437229000,11.20422900390625,-1.7866615056991577,-0.44992151856422424,0.1690518707036972
1738005783447297000,11.214297119140625,-1.7580219507217407,-0.492083340883255,0.11222135275602341
1738005783457366300,11.2243662109375,-1.7160718441009521,-0.5088260173797607,0.07419542968273163
1738005783467435000,11.23443505859375,-1.6666054725646973,-0.4977051615715027,0.04689855873584747
1738005783477504000,11.24450390625,-1.6150466203689575,-0.46669867634773254,0.02365298941731453
1738005783487573200,11.2545732421875,-1.560097336769104,-0.4183817505836487,0.003726951777935028
1738005783497642000,11.26464208984375,-1.4977236986160278,-0.35683971643447876,-0.008679655380547047
1738005783507711200,11.274711181640624,-1.4351743459701538,-0.308329701423645,-0.011275173164904118
1738005783517780000,11.284780029296876,-1.369990348815918,-0.27742987871170044,-0.016063448041677475
1738005783527848200,11.29484814453125,-1.2991560697555542,-0.2470213770866394,-0.022128796204924583
1738005783537917200,11.304917236328125,-1.2242562770843506,-0.21982085704803467,-0.034479327499866486
1738005783547986000,11.31498583984375,-1.1589747667312622,-0.19247658550739288,-0.03902614116668701
1738005783558055200,11.32505517578125,-1.101543664932251,-0.1874389946460724,-0.03884575515985489
1738005783568124200,11.335124267578125,-1.04899001121521,-0.1919993758201599,-0.020166076719760895
1738005783578193200,11.345193115234375,-0.9956479072570801,-0.20726272463798523,0.013635206036269665
1738005783588262100,11.35526220703125,-0.9397827982902527,-0.22792565822601318,0.04883899912238121
1738005783598330000,11.365330078125,-0.8832889199256897,-0.23060236871242523,0.08065369725227356
1738005783608399000,11.375399169921875,-0.8269560933113098,-0.22635595500469208,0.09958238154649734
1738005783618468000,11.385468017578125,-0.7630629539489746,-0.20915769040584564,0.10736583173274994
1738005783628537000,11.395537109375,-0.7062209844589233,-0.17128168046474457,0.11664348840713501
1738005783638605600,11.40560546875,-0.6488020420074463,-0.15233875811100006,0.10344073176383972
1738005783648674800,11.4156748046875,-0.5904135704040527,-0.16778962314128876,0.08883674442768097
1738005783658743600,11.42574365234375,-0.5453701615333557,-0.19398418068885803,0.07112573832273483
1738005783668812800,11.435812744140625,-0.4964149296283722,-0.23467248678207397,0.047666750848293304
1738005783678880800,11.445880859375,-0.4513387084007263,-0.28253597021102905,0.01592913828790188
1738005783688949800,11.45594970703125,-0.4051211476325989,-0.32667866349220276,-0.020375337451696396
1738005783699018800,11.466018798828125,-0.3507389426231384,-0.3537459075450897,-0.05166170001029968
1738005783709087500,11.47608740234375,-0.29016774892807007,-0.3533690571784973,-0.08234317600727081
1738005783719156700,11.48615673828125,-0.22477221488952637,-0.30648064613342285,-0.10013210773468018
1738005783729225700,11.496225830078124,-0.16742797195911407,-0.23075340688228607,-0.11536617577075958
1738005783739294700,11.506294677734376,-0.11802414804697037,-0.1735740751028061,-0.13569031655788422
1738005783749363700,11.51636376953125,-0.07792466878890991,-0.12572719156742096,-0.17055055499076843
1738005783759431700,11.526431640625,-0.05134128779172897,-0.08148911595344543,-0.20580081641674042
1738005783769500700,11.536500732421874,-0.012798690237104893,-0.04355211928486824,-0.24114122986793518
1738005783779569700,11.546569580078126,0.0189229566603899,-0.008860921487212181,-0.2819354236125946
1738005783789638700,11.556638671875,0.034415096044540405,0.02670559287071228,-0.3146984279155731
1738005783799707600,11.566707763671875,0.0397128090262413,0.04387429729104042,-0.3248973488807678
1738005783809777000,11.57677685546875,0.046161651611328125,0.04897291958332062,-0.30309754610061646
1738005783819845600,11.586845703125,0.04666602984070778,0.05475233122706413,-0.263088196516037
1738005783829913600,11.59691357421875,0.03741314634680748,0.058923106640577316,-0.21190756559371948
1738005783839982800,11.60698291015625,0.032875917851924896,0.06130818650126457,-0.1600978970527649
1738005783850051600,11.617051513671875,0.01922828145325184,0.07056321203708649,-0.11590699851512909
1738005783860120800,11.627120849609375,-0.0002453606575727463,0.062317609786987305,-0.08494329452514648
1738005783870189600,11.637189453125,-0.023688368499279022,0.025776643306016922,-0.06831319630146027
1738005783880258800,11.6472587890625,-0.039168864488601685,-0.006265894044190645,-0.06703388690948486
1738005783890327800,11.657327880859375,-0.05519869923591614,-0.02686864137649536,-0.09242047369480133
1738005783900396800,11.667396728515625,-0.060837067663669586,-0.04163595288991928,-0.12562254071235657
1738005783910464800,11.67746484375,-0.06795968860387802,-0.06852509081363678,-0.1604233980178833
1738005783920533800,11.68753369140625,-0.07432500272989273,-0.1063900738954544,-0.18479372560977936
1738005783930602800,11.697602783203125,-0.07735142111778259,-0.13464434444904327,-0.20175780355930328
1738005783940671700,11.707671630859375,-0.07483025640249252,-0.13667204976081848,-0.22002172470092773
1738005783950740700,11.71774072265625,-0.06310462206602097,-0.10138063132762909,-0.22521941363811493
1738005783960809700,11.727809814453124,-0.047375015914440155,-0.05676725506782532,-0.22692197561264038
1738005783970878700,11.737878662109376,-0.027957376092672348,-0.006282241549342871,-0.23358041048049927
1738005783980946700,11.74794677734375,-0.018167952075600624,0.039669908583164215,-0.2403153032064438
1738005783991015700,11.758015625,-0.000913598109036684,0.0582161583006382,-0.25044965744018555
1738005784001085000,11.7680849609375,0.01923608034849167,0.08269515633583069,-0.2654058635234833
1738005784011153700,11.778153564453126,0.039016176015138626,0.11677616089582443,-0.30575355887413025
1738005784021223000,11.788222900390625,0.07062658667564392,0.17911064624786377,-0.38740941882133484
1738005784031291600,11.798291748046875,0.10809167474508286,0.2782556116580963,-0.5096770524978638
1738005784041360600,11.808360595703125,0.13269905745983124,0.39901474118232727,-0.6533830761909485
1738005784051428900,11.818428955078126,0.13247083127498627,0.508680522441864,-0.7772824168205261
1738005784061497600,11.82849755859375,0.1209869384765625,0.5611528754234314,-0.8293042778968811
1738005784071566800,11.83856689453125,0.11118996143341064,0.5600140690803528,-0.7684401273727417
1738005784081635800,11.8486357421875,0.09661054611206055,0.5117878913879395,-0.5981245040893555
1738005784091704600,11.85870458984375,0.08739601075649261,0.45768845081329346,-0.3423478305339813
1738005784101773800,11.86877392578125,0.0770113468170166,0.3561857342720032,-0.05336273834109306
1738005784111842600,11.878842529296875,0.055619239807128906,0.16481895744800568,0.21627379953861237
1738005784121911800,11.888911865234375,0.029350008815526962,-0.09856946021318436,0.43675631284713745
1738005784131979800,11.898979736328124,-0.0016659663524478674,-0.33829736709594727,0.5956740379333496
1738005784142048500,11.909048583984376,-0.02661084569990635,-0.4980781376361847,0.6911000609397888
1738005784152117800,11.91911767578125,-0.05092204362154007,-0.5873268246650696,0.7043998837471008
1738005784162186500,11.9291865234375,-0.08673746883869171,-0.6343146562576294,0.6594610810279846
1738005784172255700,11.939255859375,-0.14174319803714752,-0.6630826592445374,0.5656189918518066
1738005784182324700,11.94932470703125,-0.22259250283241272,-0.680587887763977,0.4417330324649811
1738005784192393700,11.959393798828126,-0.32013237476348877,-0.66535884141922,0.2829660177230835
1738005784202461700,11.969461669921875,-0.4232461750507355,-0.6474397778511047,0.10178501904010773
1738005784212530700,11.97953076171875,-0.5268194079399109,-0.6734615564346313,-0.05801476538181305
1738005784222599700,11.989599609375,-0.6155455112457275,-0.7125129103660583,-0.17088428139686584
1738005784232668700,11.999668701171874,-0.6692617535591125,-0.7316575646400452,-0.23859992623329163
1738005784242737700,12.009737548828125,-0.6899595260620117,-0.6885878443717957,-0.26389575004577637
1738005784252806700,12.019806640625,-0.6820731163024902,-0.5917025804519653,-0.22939395904541016
1738005784262876000,12.0298759765625,-0.6506668329238892,-0.4430198669433594,-0.14113067090511322
1738005784272943600,12.039943603515624,-0.6155072450637817,-0.2816653251647949,-0.017256129533052444
1738005784283012600,12.0500126953125,-0.5610167980194092,-0.13153068721294403,0.1078752651810646
1738005784293081900,12.060081787109375,-0.49961069226264954,-0.009944066405296326,0.22723200917243958
1738005784303150600,12.070150634765625,-0.4544423818588257,0.08614782243967056,0.3191406726837158
1738005784313219800,12.0802197265625,-0.41791898012161255,0.16275791823863983,0.3866022527217865
1738005784323288600,12.09028857421875,-0.3739144802093506,0.18441787362098694,0.41556409001350403
1738005784333357800,12.10035791015625,-0.3325726389884949,0.18061301112174988,0.4202482998371124
1738005784343426800,12.1104267578125,-0.29474443197250366,0.16747955977916718,0.41913077235221863
1738005784353494500,12.12049462890625,-0.26652318239212036,0.15484552085399628,0.40501999855041504
1738005784363563800,12.130563720703124,-0.23167011141777039,0.14080984890460968,0.36250507831573486
1738005784373632800,12.1406328125,-0.21705922484397888,0.15459570288658142,0.30618348717689514
1738005784383701800,12.15070166015625,-0.20784181356430054,0.16906146705150604,0.23577922582626343
1738005784393770800,12.160770751953125,-0.19887255132198334,0.15905198454856873,0.15285344421863556
1738005784403839700,12.17083984375,-0.19186905026435852,0.15255747735500336,0.08406130224466324
1738005784413908700,12.18090869140625,-0.20102953910827637,0.162149116396904,0.030476372689008713
1738005784423976700,12.190976806640625,-0.2162400633096695,0.1531008780002594,-0.0005583819001913071
1738005784434045700,12.201045654296875,-0.22209662199020386,0.12417203187942505,-0.011170811951160431
1738005784444114700,12.21111474609375,-0.20150192081928253,0.1464606374502182,0.015469877049326897
1738005784454184000,12.221183837890624,-0.247513085603714,0.13426123559474945,0.018288034945726395
1738005784464252700,12.231252685546876,-0.2601478695869446,0.05617830902338028,-0.010460088029503822
1738005784474321700,12.24132177734375,-0.24240641295909882,0.009711474180221558,-0.03541737049818039
1738005784484390700,12.251390625,-0.20501908659934998,-0.036519359797239304,-0.07947592437267303
1738005784494458600,12.261458740234374,-0.15323151648044586,-0.018594423308968544,-0.12012561410665512
1738005784504528000,12.27152783203125,-0.10447609424591064,0.024783534929156303,-0.17327623069286346
1738005784514596600,12.2815966796875,-0.05493544042110443,0.06758372485637665,-0.23030968010425568
