time,seconds_elapsed,z,y,x
1739550762854045700,0.060045654296875,0.022236381727457045,0.01969016784336418,-0.05644194512479007
1739550762864114400,0.070114501953125,0.04681143553555012,-0.009060144089069216,-0.025243966045603156
1739550762874183700,0.08018359375,0.07990121971070765,-0.06884001973122358,-0.009897270766645669
1739550762884252700,0.090252685546875,0.09469137708544731,-0.08024533870695158,0.016094152645394204
1739550762894321700,0.10032177734375,0.06452478688061238,-0.050263512218184765,0.043642961567267775
1739550762904389600,0.1103896484375,0.013955460116267204,-0.02197811438376084,0.027160540256649254
1739550762914458600,0.120458740234375,-0.058470309147238726,0.005984901362191885,0.0028167379211634395
1739550762924527600,0.130527587890625,-0.16700842527747153,0.035353564388677476,0.01202434592321515
1739550762934596600,0.1405966796875,-0.3489624907523393,0.056932724316418166,0.01905782475657761
1739550762944665600,0.15066552734375,-0.43837738873958587,0.042821817910112435,0.033664734518900515
1739550762954734600,0.160734619140625,-0.3562514787167311,0.06565143455667422,-0.024385814846307037
1739550762964803600,0.170803466796875,-0.20859248155355453,0.08227598601803184,-0.08832556838057935
1739550762974872600,0.18087255859375,-0.08041267636418342,0.05758667644681409,-0.09508614855669438
1739550762984941600,0.190941650390625,-0.035845220363140105,0.014108002063166349,-0.0920773221295327
1739550762995009500,0.201009521484375,-0.0020797288835048672,-0.0149471380347386,-0.09862878959961235
1739550763005078500,0.21107861328125,0.0494435376048088,-0.05264306429848074,-0.07962561763972044
1739550763015147800,0.221147705078125,0.06903028160631657,-0.05661076235305518,-0.09325213806256652
1739550763025216500,0.231216552734375,0.07853869918584823,-0.03099982615858316,-0.10138028026483953
1739550763035285500,0.241285400390625,0.08265431781113147,-0.0086529515276663,-0.06645853142216801
1739550763045354500,0.2513544921875,0.06881167041957378,0.005805708870384842,-0.08551109548173845
1739550763055423500,0.261423583984375,0.04734276593327522,0.01638285165997222,-0.06951558090522884
1739550763065492700,0.27149267578125,-0.0183779527336359,0.021814338656794278,-0.02668590848222375
1739550763075561500,0.2815615234375,-0.05908405713140964,0.024397231289464978,-0.0024800533127039667
1739550763085629400,0.29162939453125,-0.1073486140847206,0.04064233671287074,-0.03813808054067194
1739550763095698700,0.30169873046875,-0.15499065522551536,0.02938879249906167,-0.06325294031389057
1739550763105767400,0.311767333984375,-0.10051087701916694,0.022836484778765587,-0.09131196378022431
1739550763115836700,0.321836669921875,-0.06515899313092231,0.03807244969224557,-0.09500840714536607
1739550763125905400,0.331905517578125,-0.04199088351130485,0.010750416997261345,-0.08577398420162498
1739550763135974700,0.341974609375,-0.031491116806864734,-0.0244740045864135,-0.06475106991715729
1739550763146043600,0.352043701171875,-0.020767478218674657,-0.01665368622429669,-0.059001858740672465
1739550763156112600,0.362112548828125,0.0051829555958509445,0.02495945001579821,-0.08855959633216261
1739550763166181600,0.372181640625,0.06390694724321365,0.02469427800728008,-0.11595409147515892
1739550763176250400,0.38225048828125,0.06508943502604961,0.03433251424524933,-0.1394389388937503
1739550763186318600,0.392318603515625,0.015607903498411178,0.06242414307324216,-0.11579247117266059
1739550763196387600,0.4023876953125,-0.04953939919471741,0.025425003434624522,-0.06236907015144825
1739550763206456600,0.41245654296875,-0.04157821105718613,-0.028394557297322896,-0.04848477557525038
1739550763216525600,0.422525634765625,-0.07027823584079743,-0.011066424143873155,-0.021864625805616378
1739550763226594600,0.432594482421875,-0.07248772858381271,0.005551496647298336,0.017827990700677036
1739550763236663600,0.44266357421875,-0.10520809492468833,0.012483286938164383,0.03265745717249811
1739550763246732500,0.452732666015625,-0.14099077144563196,0.02492130996249616,0.04789660042375326
1739550763256801500,0.462801513671875,-0.12446867571175098,0.025203542703669517,0.035504590231925245
1739550763266870500,0.47287060546875,-0.09510346501767634,0.018954839306138456,0.024798998757079242
1739550763276939500,0.482939453125,-0.04717325458526611,0.027354711121879517,0.007771072392910718
1739550763287007500,0.493007568359375,0.006626724663376808,0.017532167825568466,-0.01231368425861001
1739550763297076500,0.503076416015625,0.024014497315883634,0.014485475339740515,-0.0043148675244301556
1739550763307145500,0.5131455078125,0.06369184318780899,-0.008305471530556678,-0.011709507820382714
1739550763317214500,0.52321435546875,0.06217208627462387,-0.010265830084402114,0.0021563743162900206
1739550763327283700,0.53328369140625,0.0814414348900318,0.004445581232011318,0.00753236826620996
1739550763337352400,0.5433525390625,0.11322305907607078,0.02338365206643939,-0.006092910047620534
1739550763347421700,0.553421630859375,0.11239186894893645,0.027566892567835746,-0.012213000363111496
1739550763357490400,0.563490478515625,0.103466804215312,0.059776331978198136,-0.004584185985103249
1739550763367559700,0.5735595703125,0.09927227513492107,0.050390919723827386,-0.0008300941485911607
1739550763377628700,0.583628662109375,0.0948918680936098,0.038690106666553765,-0.018361439990252255
1739550763387696400,0.5936962890625,0.10376491037905215,0.06234693138487637,-0.015304098246246576
1739550763397765600,0.603765625,0.13591127622425556,0.05091828633248806,-0.021758608147874472
1739550763407834600,0.613834716796875,0.1351677643805742,0.029789865846931933,-0.015497721122205257
1739550763417903600,0.623903564453125,0.09494915123879909,0.022110289396066216,0.03898169175796211
1739550763427972600,0.63397265625,0.05642214444577694,0.033849333838187154,0.03252455150783062
1739550763438041600,0.64404150390625,0.043162849900126456,0.050503038328792896,0.016367635824531317
1739550763448110600,0.654110595703125,-0.030919454398751257,0.06414166931454092,0.0299415492773056
1739550763458179600,0.6641796875,-0.10052373650074005,0.02137545404918492,0.043539281997084615
1739550763468248600,0.67424853515625,-0.03159691526889801,-0.05004676419496536,0.03667882164306938
1739550763478317600,0.684317626953125,0.08042319775819778,-0.01568968176404014,0.014821283165365457
1739550763488386600,0.694386474609375,0.13899462919235228,0.00428330334238708,0.018258344941958785
1739550763498454500,0.70445458984375,0.13046470125615597,-0.020901534660812467,-0.0022280513130128383
1739550763508523500,0.7145234375,0.0664624769449234,-0.02517406088085845,-0.019019246311858296
1739550763518592500,0.724592529296875,-0.00933013840317726,-0.05406186332153156,-0.009491904836148023
1739550763528661500,0.73466162109375,-0.014116203635931013,-0.036771066503785546,-0.00773833916708827
1739550763538730500,0.74473046875,-0.001592237627506256,0.0013117036530748008,0.004068856874108314
1739550763548799500,0.754799560546875,0.002661328163743019,-0.010827464288845658,-0.020688713894039392
1739550763558868700,0.76486865234375,-0.00466506920158863,-0.022437895648926495,-0.030495018441602587
1739550763568937500,0.7749375,-0.03841360954642296,-0.00823364840336144,-0.0011539192754775286
1739550763579006700,0.7850068359375,-0.05940028347373008,-0.035379228552896526,0.011202654276788234
1739550763589075500,0.795075439453125,-0.01972819829881191,-0.04802084785792976,-0.01235102059431374
1739550763599144400,0.80514453125,-0.013010872742533684,-0.029115930374432355,-0.013797346945106983
1739550763609212700,0.815212646484375,0.011118775385618208,-0.010738087238650768,-0.006049947688728571
1739550763619281400,0.825281494140625,-0.01989829416871071,-0.008316266919206828,-0.0025971768863499163
1739550763629350700,0.8353505859375,-0.08055179257392883,0.011018803876172751,-0.00587941342741251
1739550763639419600,0.845419677734375,-0.07581599622368812,0.020500132519379256,-0.008399141163378953
1739550763649488600,0.855488525390625,-0.0317845467954874,0.01252148179039359,-0.028985198400542138
1739550763659557600,0.8655576171875,0.023753800553083418,0.010562474943418056,-0.019763781068846582
1739550763669626400,0.87562646484375,0.08836743476092815,0.007176631897408515,0.021224428205937146
1739550763679695600,0.885695556640625,0.12662322339713572,-0.014257383938599377,0.06445508264526724
1739550763689764600,0.8957646484375,0.1364806005448103,-0.030747166571766137,0.05078406549356877
1739550763699833600,0.90583349609375,0.16113982550501824,-0.022740002134349197,0.010359627581387757
1739550763709902600,0.915902587890625,0.13454700213372706,-0.005303677632380276,0.01259330491758883
1739550763719971600,0.9259716796875,0.07034487133622169,0.007459942350815981,0.01585150299593806
1739550763730039600,0.93603955078125,0.03461480178534984,-0.014300218433327972,0.015042890026792884
1739550763740108500,0.946108642578125,-0.016528525474667547,-0.010388762344326823,0.022271745301783084
1739550763750177500,0.956177490234375,-0.03532031970620155,0.002693312470894307,0.0005788228012621403
1739550763760246500,0.96624658203125,-0.01654898374080658,0.03325372429890558,-0.00964073872230947
1739550763770315500,0.9763154296875,0.026350246787071225,0.01637338971188292,-0.032034064577147366
1739550763780384500,0.986384521484375,0.05791852048337459,0.000955291430838406,-0.021547376549988985
1739550763790453800,0.996453857421875,0.06400573144257068,0.011128730524051934,-0.05923091825619339
1739550763800522500,1.0065224609375,0.023266309297084807,-0.00857930176956579,-0.037690994360297915
1739550763810591500,1.016591552734375,-0.04817103345096111,-0.04231969534056261,-0.0002332242339849472
1739550763820660500,1.026660400390625,-0.10555997710227966,-0.029486827779747544,0.01658887735977769
1739550763830729500,1.0367294921875,-0.10680150159597396,-0.0024198658243753013,0.023356544863805173
1739550763840798700,1.046798828125,-0.07856850980222224,-0.02565377068920061,0.028231165162846444
1739550763850867500,1.056867431640625,-0.04018003469705581,-0.05931803028406575,0.020188509286940097
1739550763860936700,1.066936767578125,-0.05597030902504921,-0.051833190954010934,0.008489595925807952
1739550763871004700,1.077004638671875,-0.0501104770809412,-0.03494273683177307,-0.008037029852718114
1739550763881073400,1.087073486328125,-0.019072364738583564,-0.029693273604661223,-0.0055520811691880225
1739550763891142700,1.097142578125,-0.0032581250131130217,-0.0348912806391716,-0.021954349915683267
1739550763901215000,1.107215087890625,0.005101122531294822,-0.04253242477579042,-0.018515315377712248
1739550763911284200,1.1172841796875,-0.018844401201605795,-0.029805392209626733,0.0075864365410059685
1739550763921353200,1.127353271484375,-0.042646717071533204,-0.02022694160118699,0.028151158729195592
1739550763931422200,1.137422119140625,-0.009690203887224197,-0.024820059811417012,0.0009914952553808688
1739550763941491200,1.1474912109375,-0.0033130700707435607,-0.0036877851346507665,0.0016745821487158536
1739550763951560000,1.157559814453125,-0.028897008660435673,0.011954751285724341,0.0025281302381306883
1739550763961629200,1.167629150390625,-0.02549392221868038,-0.014433452891558408,-0.01716857694387436
1739550763971698000,1.177697998046875,-0.03505319320261478,-0.0030293029596097764,-0.0362495633803308
1739550763981767200,1.18776708984375,-0.050469958043098444,0.03135512413596734,-0.04059146504215896
1739550763991836200,1.197836181640625,0.019154197803139685,0.03979260628204793,-0.022370237240195275
1739550764001905200,1.2079052734375,0.010520224970579146,0.04203565423479304,-0.02705006561949849
1739550764011974100,1.21797412109375,-0.06714578303396701,0.009844225405156611,-0.018122443602606654
1739550764022043100,1.228043212890625,-0.018050620475411415,-0.013135722964908926,-0.03998918830007314
1739550764032112000,1.238112060546875,0.04941723411977291,0.03562752249184996,-0.05996018237881362
1739550764042180000,1.24818017578125,0.07158347322046757,0.06188948820726946,-0.055355611192807554
1739550764052249000,1.2582490234375,0.07953180187642574,0.06597962533142417,-0.040925957693532106
1739550764062318000,1.268318115234375,0.0513695372313261,0.05518653823621571,-0.030095351599529384
1739550764072387300,1.27838720703125,-0.013614099332690238,0.0658529667444527,-0.03168758922703564
1739550764082456000,1.2884560546875,-0.04973696759343147,0.042543256697058676,-0.018699878164380786
1739550764092525000,1.298525146484375,-0.02971124765276909,-0.00563840774577111,-0.007244125909358263
1739550764102594000,1.308593994140625,0.0015846388429403304,-0.003706763829756528,-0.025476824953407046
1739550764112663000,1.3186630859375,0.04081716355681419,0.03471912067634984,-0.041441213739290834
1739550764122732300,1.328732177734375,0.08831950396597385,0.022745043635647742,-0.042256767905876035
1739550764132801000,1.338801025390625,0.07990297327637672,0.026759539974015204,-0.0556665037728846
1739550764142870300,1.348870361328125,0.05007599028944969,0.03592614011224359,-0.06986351756006479
1739550764152939000,1.35893896484375,0.02352759058177471,0.0718327718064189,-0.07469846343584358
1739550764163008300,1.36900830078125,-0.03128536510169506,0.08495322413695976,-0.06494147792272269
1739550764173077000,1.379076904296875,-0.08477671679258346,0.08665600946685299,-0.04985080323144793
1739550764183146000,1.38914599609375,-0.1073047749429941,0.09365995167847722,-0.02189589772671461
1739550764193215200,1.39921533203125,-0.10213467882871627,0.08000404076436535,-0.004864610361680388
1739550764203284000,1.409283935546875,-0.12622574851214885,0.06727689860034734,-0.010668620465323329
1739550764213353200,1.419353271484375,-0.10232815557420254,0.07072051798189058,-0.0070125091105699535
1739550764223422000,1.429421875,-0.06256897663772105,0.08364438829440624,0.004621741516515612
1739550764233491200,1.4394912109375,-0.026783377507328985,0.10623508161855862,0.010654957266151904
1739550764243560200,1.449560302734375,0.0030155484288930893,0.10374079885110259,0.011422726768255233
1739550764253629200,1.459629150390625,0.02447860769629478,0.0590260616001673,0.007716419596225023
1739550764263698200,1.4696982421875,0.07547989613711834,0.05510894295535981,-0.004278042645379901
1739550764273766100,1.47976611328125,0.10095277556776999,0.050082840155344456,-0.03269245542064309
1739550764283835100,1.489835205078125,0.05469897391498089,0.02268304778272286,-0.027730668294802308
1739550764293904100,1.499904052734375,0.0035182372540235518,0.02950949626928195,0.0013566022407263516
1739550764303973000,1.50997314453125,0.0424900652050972,0.030508645108155905,-0.0021094664346426725
1739550764314042000,1.5200419921875,0.08783142818808555,0.019400007524061947,-0.013166136369481682
1739550764324111000,1.530111083984375,0.06571428892612458,0.0067688913467340165,-0.004031666668877006
1739550764334180000,1.54018017578125,0.030125673672556877,0.01255543885892257,-0.020458850660920142
1739550764344249000,1.5502490234375,-0.002073299142718315,0.04128321016598493,-0.05285005811266601
1739550764354318000,1.560318115234375,-0.04514905528128147,0.05359839226193726,-0.04612257648855447
1739550764364387000,1.570386962890625,-0.07374795777797699,0.04786936535695568,-0.05545227650031447
1739550764374456000,1.5804560546875,-0.08126841641068458,0.033673922472354026,-0.04363214791230857
1739550764384525000,1.590525146484375,-0.06209434486329555,0.03577231952371075,-0.030949557276070117
1739550764394594300,1.60059423828125,-0.031386487388610836,0.03008937851646915,-0.0487123737860471
1739550764404663000,1.6106630859375,0.00547287845313549,0.04881857410687953,-0.055633039894700045
1739550764414732300,1.620732177734375,0.05700666633546352,0.04143511279206723,-0.03822181330136955
1739550764424801000,1.630801025390625,0.06257715994417667,0.019345318194758147,-0.02504625151641667
1739550764434870000,1.6408701171875,0.034113866525888444,-0.003125584674626589,-0.004888210432976484
1739550764444939300,1.650939208984375,0.021702128720283508,0.007055087876971811,0.011392039369046687
1739550764455008000,1.661008056640625,0.028635142853856085,0.017480729899276046,0.021755320212244987
1739550764465077200,1.6710771484375,0.05025134685635566,0.005676145940274,0.012361541988328098
1739550764475146000,1.68114599609375,0.043886487999558445,0.015474815170653163,0.0190942112442106
1739550764485215200,1.69121533203125,0.026640169644355772,0.04664831739570945,0.020995441755652426
1739550764495284000,1.701283935546875,-0.0240858089864254,0.04336334090828895,0.02678922272622585
1739550764505353200,1.711353271484375,-0.07168634907305241,0.03379785937927663,0.031155382046476006
1739550764515422200,1.721422119140625,-0.0660439592719078,0.05266739502213895,0.012929916460812091
1739550764525491000,1.731490966796875,-0.0676040481954813,0.0503609447106719,0.0452714395519346
1739550764535560200,1.741560302734375,-0.017004910814762113,0.01509052856080234,0.057881476408615705
1739550764545629000,1.75162890625,0.020762802043557165,0.014956673048064112,0.042116409587115045
1739550764555698200,1.7616982421875,0.009303834918141364,0.01271989043932408,0.05047806828431785
1739550764565767200,1.77176708984375,0.006720832687616348,-0.008731989846937358,0.057702101253718135
1739550764575836200,1.781836181640625,0.047992169752717015,-0.0152610628221184,0.059989262342825526
1739550764585905200,1.7919052734375,0.12433423567712307,-0.015809819278679787,0.05884038456864655
1739550764595974100,1.80197412109375,0.15130758279860018,-0.016838358608819545,0.05790376130566001
1739550764606043100,1.812043212890625,0.1541518663138151,-0.005318089750222861,0.06942804875224828
1739550764616112000,1.822112060546875,0.10796353111267089,-0.001055683065392077,0.06432962963469326
1739550764626181000,1.83218115234375,0.046994390887022015,-0.0014893252423033116,0.06126140117049217
1739550764636250000,1.84225,-0.009614800563454628,-0.02430745238047093,0.05598536046370864
1739550764646319000,1.852319091796875,-0.010000585010647774,-0.0209486800044775,0.08731478390283882
1739550764656388000,1.86238818359375,0.030329671812057493,-0.02433477877881378,0.08885733716972172
1739550764666457000,1.87245703125,0.09215689017176627,-0.020407485799863935,0.06862944572046399
1739550764676526000,1.882526123046875,0.0779343035519123,0.00666906596776098,0.030503567074239252
1739550764686595300,1.89259521484375,0.01600654742717743,0.031155930035747587,0.04013816831670701
1739550764696664000,1.9026640625,-0.06126783091127872,0.02601272192839533,0.022614567390084266
1739550764706733300,1.9127333984375,-0.09695815297365189,-0.006820347539335489,0.0021768325824290512
1739550764716802000,1.922802001953125,-0.06397592082619667,-0.02574216135870665,0.011420827072113752
1739550764726871000,1.93287109375,-0.03493804239034653,-0.0023456132780760525,-0.016236264529824258
1739550764736940000,1.94293994140625,0.002948328411579132,0.016528781202994287,-0.03102159959897399
1739550764747009000,1.953009033203125,0.014207389050722122,-0.002761208341643214,-0.02423442367687821
1739550764757078300,1.963078369140625,0.05409574732482433,-0.01446695330236107,-0.026609701440855858
1739550764767147000,1.97314697265625,0.09666881463825702,-0.0005036021405830979,-0.054706791895255444
1739550764777216300,1.98321630859375,0.07106207969486714,0.02100051978956908,-0.0684128803603351
1739550764787285000,1.993284912109375,0.015814239725470542,0.018968831298872828,-0.04876461542993784
1739550764797354200,2.003354248046875,-0.0395312153995037,-0.0005005334006622433,-0.04613360933922231
1739550764807423200,2.01342333984375,-0.06061901161372661,-0.002518047235533595,-0.08956928483135998
1739550764817492000,2.023491943359375,-0.055896659266948694,0.009237893542461097,-0.0734578157249838
1739550764827561200,2.033561279296875,-0.05686053586304188,0.012545227992162108,-0.05029087514914572
1739550764837630000,2.0436298828125,-0.04902385088801384,0.004500745485350489,-0.059292877576500175
1739550764847699200,2.05369921875,-0.032981063103675844,-0.009753734110109507,-0.059782706920057535
1739550764857768000,2.063767822265625,-0.01388064131438732,0.005019106803648174,-0.07643332440443336
1739550764867837200,2.073837158203125,-0.0006114098966121674,0.03998264896143228,-0.07126425120346248
1739550764877906200,2.08390625,0.04230477176606655,0.03337119493242353,-0.04650017762929201
1739550764887975200,2.09397509765625,0.037303602477908135,0.018102752521447836,-0.038743133761733765
1739550764898044200,2.104044189453125,0.036141572961211205,0.021906857512146233,-0.04001987569928169
1739550764908109600,2.114109619140625,0.06646832216382026,0.018500300471670925,-0.05119564196914434
1739550764918178800,2.1241787109375,0.09447685755193233,-0.019700543106906113,-0.04033675962872803
1739550764928247800,2.134247802734375,0.13915654175579548,-0.021650800391845405,-0.01292100250199437
1739550764938316800,2.14431689453125,0.15018880790174008,-0.014162600060924888,-0.0042905368007719515
1739550764948385800,2.1543857421875,0.11600362970530986,-0.02251516213621944,-0.002083601341024041
1739550764958454800,2.164454833984375,0.05898001223504543,-0.007389744925126433,-0.024825009981170296
1739550764968523800,2.174523681640625,0.03282031958401203,0.040662520984373986,-0.03520246548019349
1739550764978592500,2.184592529296875,0.010041501542925834,0.04565273048710078,-0.019877543641626833
1739550764988661800,2.194661865234375,-0.002976385462284088,0.05631177940648049,-0.023553674871101975
1739550764998730800,2.204730712890625,0.014991817426681518,0.03548281679153442,-0.01683569172769785
1739550765008800800,2.21480078125,0.05945639757514,0.04172171118110418,0.016602905885130165
1739550765018869800,2.224869873046875,0.08652034558951854,0.023563392547518013,0.025008476789295672
1739550765028938800,2.234938720703125,0.053912207451462746,0.029803236785158515,0.025263693659380075
1739550765039007700,2.2450078125,0.014776128849387168,0.014927045094780622,0.051292161146178836
1739550765049076700,2.25507666015625,0.015346037691831588,-0.007883446726202965,0.04645582703091204
1739550765059145700,2.265145751953125,0.042084991535544396,-0.0016745821487158536,0.03001673340536654
1739550765069214700,2.275214599609375,0.031436171749234194,0.021161299841850993,0.03996617275066674
1739550765079283700,2.28528369140625,0.014933365237712859,0.0012700930010527372,0.046235096952319144
1739550765089353000,2.29535302734375,0.0006663549542427063,0.006489362019300461,0.02124452114589512
1739550765099421700,2.305421630859375,-0.0018494272589683531,0.009312529681250452,0.016981164612993597
1739550765109490700,2.31549072265625,-0.0063648588567972175,0.022882059219852088,-0.01906498514972627
1739550765119559700,2.3255595703125,-0.007609305959939956,0.033605697808042165,-0.03435344743542373
1739550765129628700,2.335628662109375,-0.010061959809064864,0.020690759720653294,-0.008748319927230477
1739550765139697700,2.34569775390625,0.009195698368549346,0.0009261384015902877,-0.012306012408807873
1739550765149766700,2.3557666015625,0.030661680245399472,-0.007599478685669601,-0.02512720779813826
1739550765159836000,2.3658359375,0.06996434758603573,0.0212065637556836,-0.018540669014677404
1739550765169904600,2.375904541015625,0.06136427702307701,0.030665808431245386,-0.010509484380856155
1739550765179974000,2.385973876953125,0.05394084902405739,-0.007111622103489935,0.019394144038856028
1739550765190042600,2.396042724609375,0.04660626835227012,-0.020252697096951305,0.030992154308781026
1739550765200111600,2.406111572265625,0.05172375749647617,-0.01782104950323701,0.024177505857869982
1739550765210180900,2.416180908203125,0.06364625048041343,-0.005335844602622091,0.02616612239181995
1739550765220249600,2.42624951171875,0.07087737077772617,0.0273323166269809,0.009117080174386501
1739550765230318800,2.43631884765625,0.03643441842794418,0.035639432125352324,-0.02943820286504924
1739550765240387600,2.4463876953125,-0.03918459391891956,0.056359783266671,-0.018552943974360823
1739550765250456800,2.456456787109375,-0.07863806790709495,0.03126008452996611,-0.03641944005452096
1739550765260525800,2.46652587890625,-0.008458031743764877,-0.0006523629615083336,-0.056007353099808095
1739550765270595800,2.476595947265625,0.08918342731893063,0.004348514065705239,-0.05716806744225323
1739550765280664600,2.48666455078125,0.1348544606477022,0.004236431993357837,-0.03341236719302833
1739550765290733800,2.49673388671875,0.1038502505749464,-0.008305252334848046,-0.022050649897009132
1739550765300802800,2.506802734375,0.03406885834038258,0.0025023016771301624,-0.012839753959327935
1739550765310871800,2.516871826171875,-0.06356792454719543,0.012983729007281362,0.004832680853456259
1739550765320940800,2.52694091796875,-0.06951309668719768,-0.010142148905806243,0.014624883810430764
1739550765331009500,2.537009521484375,0.010804887130856514,-0.021322152959369123,-0.031682839986681935
1739550765341078800,2.547078857421875,0.03872399066984653,-0.03315236454997211,-0.026465251468867062
1739550765351147800,2.557147705078125,0.022974048352241514,-0.029221381776593624,-0.010979293849691749
1739550765361216800,2.567216796875,0.04265723846554756,-0.05472147800773382,-0.020830168191343545
1739550765371285800,2.57728564453125,0.04474105900228023,-0.06057462448272854,-0.008831541231274604
1739550765381354800,2.587354736328125,-0.02196516357064247,-0.02313738568779081,-0.004496215440705418
1739550765391423700,2.597423828125,-0.06438450162708759,-0.0107615959784016,-0.002660889772325754
1739550765401492700,2.60749267578125,-0.10886252577900886,0.0029849340949207543,-0.029547654588893055
1739550765411561700,2.617561767578125,-0.12071429161429405,-0.009001381372846663,-0.028121713439002632
1739550765421631000,2.627630859375,-0.10695815346240997,-0.007901493839547037,-0.023145313265919683
1739550765431699700,2.63769970703125,-0.07568973949551581,-0.008349602933228015,-0.023506766989454624
1739550765441768700,2.647768798828125,-0.0366471843957901,0.0009036708414554595,-0.0010718670152127742
1739550765451837700,2.657837646484375,-0.017005495336651803,0.009612754736840725,0.02247479359321296
1739550765461907700,2.66790771484375,-0.031840076375007624,0.0033429537523537874,0.025598405506461856
1739550765471976700,2.677976806640625,0.007335165193676948,-0.0025957155816257,0.0024714316148310897
1739550765482045700,2.688045654296875,0.009770283386111259,0.006869666573777794,-0.028415654884278774
1739550765492114700,2.69811474609375,-0.0014613047242164612,0.01688607020806521,-0.01542253699414432
1739550765502183700,2.70818359375,0.018389058649539946,0.017049334478378295,-0.00012209200970828533
1739550765512253000,2.7182529296875,0.06237023919522762,0.0041426527626812456,0.002679594472795725
1739550765522321700,2.72832177734375,0.096120533105731,-0.014958061287552117,0.004489566504210234
1739550765532391000,2.738390869140625,0.0842260971724987,-0.029741861986741423,0.043279242821410296
1739550765542459600,2.748459716796875,0.0640747050255537,-0.056883880206011234,0.03392550434693694
1739550765552529000,2.75852880859375,0.068475570333004,-0.04310889122318476,0.03840732593610883
1739550765562597600,2.76859765625,0.08737725467979908,-0.03802914027348161,0.029304785743728277
1739550765572666600,2.77866650390625,0.1126601644963026,-0.04598718660585582,0.029700360932573673
1739550765582736000,2.78873583984375,0.11211422105133532,-0.03562533053476363,0.03005859978571534
1739550765592804600,2.7988046875,0.0918465090483427,-0.02724840120319277,0.008658741947636007
1739550765602873900,2.808873779296875,0.06313654739260673,-0.006298807883262634,-0.0017616759102791547
1739550765612943600,2.818943603515625,-0.0014338321954011917,-0.00007317483406513929,-0.01309394791610539
1739550765623012900,2.829012939453125,-0.01679682102203369,0.013929010500758886,-0.03914952260553837
1739550765633081600,2.83908154296875,0.037188451665639874,0.02219678036943078,-0.019384791688621044
1739550765643150800,2.84915087890625,0.08768179058432579,-0.020084391325339675,-0.01480995805375278
1739550765653219600,2.859219482421875,0.11453005002140998,-0.05748590121977031,-0.0034994594883173704
1739550765663288800,2.869288818359375,0.16681494853198528,-0.010876746790669857,-0.03181472273804247
1739550765673357800,2.87935791015625,0.1029220298141241,0.006267280233837664,-0.0007823094841092824
1739550765683426800,2.8894267578125,0.06392799003124237,-0.03845536632891744,0.032107933530956506
1739550765693495800,2.899495849609375,0.06578793868422508,-0.09099749100357293,0.023310294569283723
1739550765703564500,2.909564453125,0.06618892070055007,-0.10309230834711343,-0.013362754920125007
1739550765713633800,2.9196337890625,0.06629179655313491,-0.10008695251867175,0.010168781184405088
1739550765723702800,2.929702880859375,0.024150106394290924,-0.08300104888956994,0.04559877181015908
1739550765733771800,2.939771728515625,-0.025609657552838325,-0.08267915999144315,0.03344984965920448
1739550765743840800,2.9498408203125,-0.018308979150652886,-0.07957903855163603,0.015919417132996022
1739550765753910800,2.959910888671875,-0.036111762344837185,-0.07902363315857946,0.03158164463452995
1739550765763979800,2.969979736328125,-0.0999631800085306,-0.07532004766659811,0.029754100413806734
1739550765774048800,2.980048828125,-0.11787936044931412,-0.09730534070981665,0.03293934285379946
1739550765784117800,2.99011767578125,-0.08600771989226341,-0.13903572838772088,0.01771894083563238
1739550765794186800,3.000186767578125,-0.0361807359278202,-0.1631440414668992,0.02407813713662326
1739550765804255700,3.010255859375,0.032635026144981386,-0.17483824212029575,0.044650348511524496
1739550765814324700,3.02032470703125,0.09245967251062392,-0.22275694477800279,0.07707162230797111
1739550765824393700,3.030393798828125,0.1296960549712181,-0.21674015044020487,0.08550115860961377
1739550765834462700,3.040462646484375,0.10225509033799171,-0.1910660128164105,0.07326433897949755
1739550765844531700,3.05053173828125,0.061792731568217275,-0.14705924117174,0.0919558146417141
1739550765854600700,3.0606005859375,0.028797639939188956,-0.15641363723333923,0.07369962512422353
1739550765864669700,3.070669677734375,0.041562428966164584,-0.19500790057629347,0.044603550227731464
1739550765874739700,3.08073974609375,0.07051146007478237,-0.17718380059944464,0.03137819448430091
1739550765884808700,3.09080859375,0.09970599037706851,-0.15843639349890873,0.04095755840819329
1739550765894877700,3.100877685546875,0.10511983211934565,-0.20164151163818314,0.04438482944313436
1739550765904947000,3.110947021484375,0.029214988568425176,-0.14548753487560898,0.02697170315366238
1739550765915016200,3.12101611328125,-0.06867255420982837,-0.08570371371069922,0.003657097735442221
1739550765925085200,3.131085205078125,-0.11436521484851836,-0.12380405605686828,0.04851871437747031
1739550765935154000,3.14115380859375,-0.05697042597830295,-0.18566974326344207,0.02106825126353651
1739550765945223200,3.15122314453125,0.02371756019592285,-0.18341571725895628,0.009182327430322766
1739550765955292000,3.1612919921875,0.10245908847749233,-0.19534456691844387,0.014820041056349873
1739550765965361200,3.171361083984375,0.1621732602059841,-0.23876833277707918,0.04303885819427669
1739550765975430000,3.181429931640625,0.17016192087233065,-0.26139163146289063,0.10188139818739145
1739550765985500200,3.191500244140625,0.07717734770476818,-0.2991256429810077,0.15182104874607175
1739550765995569000,3.20156884765625,0.0829360573619604,-0.3153735979486257,0.13775986323300748
1739550766005638100,3.21163818359375,0.11751461879014968,-0.32076186685822905,0.11568214266598224
1739550766015707100,3.22170703125,0.07629296608567238,-0.31376923149190844,0.1647312010604888
1739550766025776000,3.231776123046875,0.007788754180073737,-0.3220934807881713,0.17658669322282075
1739550766035845000,3.24184521484375,-0.038004444223642346,-0.3357510174037888,0.20281039102077483
1739550766045914000,3.2519140625,-0.0389607220351696,-0.3047302215224132,0.23672855231147258
1739550766055983000,3.261983154296875,-0.05654957021772861,-0.2532336421116255,0.23213044739887118
1739550766066051800,3.2720517578125,-0.03495090187191963,-0.28369901433363554,0.24191651287600396
1739550766076121000,3.28212109375,-0.038726913279294964,-0.3084878204902634,0.2680585602724925
1739550766086190000,3.292190185546875,-0.02807107923030853,-0.342349100494571,0.310476656219922
1739550766096260000,3.302260009765625,0.07510521760582924,-0.36594387456104155,0.3129261682638898
1739550766106329000,3.3123291015625,0.17762568088173866,-0.36130598562732336,0.3300545958604663
1739550766116398000,3.322398193359375,0.21496552371680736,-0.33596126262098547,0.36528884471841155
1739550766126467000,3.332467041015625,0.14568565126359462,-0.3274485780805349,0.3920884792407974
1739550766136536000,3.3425361328125,0.03856383167207241,-0.370957538004592,0.4224305721430108
1739550766146605000,3.35260498046875,-0.057872927775979036,-0.3965741002222523,0.4499615531472489
1739550766156674000,3.362674072265625,-0.14747604181170462,-0.39057211986109613,0.42179859438240525
1739550766166743000,3.372742919921875,-0.19126257656812667,-0.3781158853266388,0.4226623716048896
1739550766176812300,3.382812255859375,-0.20852701510190963,-0.3872833805140108,0.3958856065014377
1739550766186881000,3.392881103515625,-0.16393500918149947,-0.36873197090961035,0.36837248994745314
1739550766196951000,3.402950927734375,-0.1652677190899849,-0.3248588538482785,0.3290855316326022
1739550766207020000,3.41302001953125,-0.22091128037869928,-0.2878609928512946,0.316938143851608
1739550766217089300,3.42308935546875,-0.3140641958504915,-0.21984909450728446,0.2931493085177615
1739550766227158000,3.433157958984375,-0.44967502782344815,-0.1432258552876301,0.27226971169412134
1739550766237227000,3.44322705078125,-0.5690799904048442,-0.08928626663889735,0.23819939204901455
1739550766247296000,3.4532958984375,-0.5236076945185661,-0.09581038944432511,0.23297614097539335
1739550766257365000,3.463364990234375,-0.38619828869104383,-0.07667193719958885,0.19064627130068837
1739550766267434200,3.473434326171875,-0.151263159134984,-0.05173650738019496,0.1596578433189541
1739550766277503000,3.4835029296875,0.12696692226827144,-0.15434609197797253,0.11542480690404772
1739550766287573000,3.493572998046875,0.3603109832406044,-0.21026625998467205,0.06920519978180527
1739550766297642000,3.50364208984375,0.48992228253781794,-0.271651652861014,0.05235036496222019
1739550766307711200,3.513711181640625,0.5930301903128624,-0.2566224990986287,0.020103972808644174
1739550766317780000,3.523780029296875,0.5796633437395096,-0.1859579308213666,-0.013000424413755535
1739550766327849200,3.53384912109375,0.4461035990774631,-0.15655154786668718,-0.030383301695436238
1739550766337918000,3.54391796875,0.31552082439959045,-0.08377411562129855,-0.06400324722453951
1739550766347987200,3.5539873046875,0.21509528757631777,-0.006795030434988439,-0.09299377938732505
1739550766358056200,3.56405615234375,0.12303133638501167,0.03974708663988858,-0.06868972454033792
1739550766368125000,3.574125,0.044049569606781004,0.049718372490815815,-0.06134834880158305
1739550766378195000,3.58419482421875,0.029255905100703236,0.08569554867055267,-0.09679748251922428
1739550766388264200,3.59426416015625,0.08717267201840877,0.08700754458457231,-0.12135916538909076
1739550766398333200,3.604333251953125,0.1089613099783659,0.10262249887827783,-0.10981281224116682
1739550766408402000,3.61440185546875,0.09841419700086117,0.18503603020347653,-0.17012546131946146
1739550766418471200,3.62447119140625,0.02917699464559555,0.24751433288305996,-0.16934095987826583
1739550766428540000,3.634539794921875,-0.09630582654476165,0.2574849246142432,-0.15856201090626418
1739550766438609200,3.644609130859375,-0.16906009711027145,0.25688220948074014,-0.19075090071894227
1739550766448678100,3.65467822265625,-0.13176117080748082,0.2730410979254171,-0.18545052928850053
1739550766458747100,3.6647470703125,-0.03159165457189083,0.2631594996519387,-0.19097353049367666
1739550766468817000,3.67481689453125,0.08764671927094458,0.2908119516113773,-0.24312983418852088
1739550766478886100,3.68488623046875,0.1252004971176386,0.284833169462718,-0.2522091396357864
1739550766488955100,3.694955078125,0.10865911216139792,0.2759971347194165,-0.35117286027818917
1739550766499024100,3.705024169921875,0.19984160434305667,0.2059466797525063,-0.4067242863040417
1739550766509093000,3.715093017578125,0.29627251857221126,0.15425130810029805,-0.4582333050712943
1739550766519162000,3.725162109375,0.3726975866049528,0.13461526333065701,-0.5398652210321278
1739550766529231000,3.735231201171875,0.4584872798323631,0.06460844657607376,-0.564690231013298
1739550766539299800,3.7452998046875,0.5488993721634149,0.02388734553856775,-0.6130209120053798
1739550766549369000,3.755369140625,0.5778554175347089,-0.0514657093484886,-0.6479941718395799
1739550766559438000,3.76543798828125,0.5092781403928995,-0.11763742318591103,-0.6326484994739293
1739550766569508000,3.775508056640625,0.38344811320006844,-0.12473666073186322,-0.6078131142292171
1739550766579577000,3.7855771484375,0.2066156285226345,-0.14494924501413478,-0.568110195524618
1739550766589646000,3.79564599609375,0.007879355072975158,-0.17696659591849892,-0.5105922917313873
1739550766599715000,3.805715087890625,-0.22063655509054658,-0.19829450276521965,-0.4703473751045763
1739550766609784000,3.8157841796875,-0.40011458584070203,-0.17620938434302805,-0.3742152246262878
1739550766619853000,3.82585302734375,-0.5287824668079615,-0.14470257677668705,-0.35169651882611214
1739550766629922000,3.835922119140625,-0.578541646233201,-0.19242650578096507,-0.32205906706191595
1739550766639991000,3.845990966796875,-0.5239882182687521,-0.2255863229850307,-0.28431626944914457
1739550766650061000,3.85606103515625,-0.492879963299632,-0.2551278035614639,-0.27446758706457913
1739550766660130000,3.866130126953125,-0.4024339686989784,-0.323576705083251,-0.2590147279974073
1739550766670199000,3.876198974609375,-0.19813830755650996,-0.4502949132874608,-0.21485658344961703
1739550766680268000,3.88626806640625,0.018118425014615056,-0.533675207285583,-0.22596213402748105
1739550766690337300,3.896337158203125,0.1809831746160984,-0.5561703860796988,-0.22951763455197213
1739550766700406000,3.906406005859375,0.279929871058464,-0.6104647612491623,-0.22521401907391844
1739550766710475000,3.91647509765625,0.34940146669149397,-0.6826619459211826,-0.24485431989356873
1739550766720544000,3.9265439453125,0.38613749841451644,-0.6941620487745851,-0.3239432003080845
1739550766730614300,3.9366142578125,0.4501175108939409,-0.7225812838554382,-0.35807409103401006
1739550766740683000,3.94668310546875,0.48227907430827616,-0.777413309565559,-0.3936219358857721
1739550766750752000,3.956751953125,0.5516694213986396,-0.8248822591617703,-0.4661408633254468
1739550766760821000,3.966821044921875,0.5976420680224895,-0.8442752341568469,-0.45712242121994495
1739550766770890000,3.976889892578125,0.595680997082591,-0.8506981068111955,-0.43929801071584224
1739550766780959200,3.986959228515625,0.5358522590637207,-0.8497690092675387,-0.40462029976211483
1739550766791028000,3.997028076171875,0.42831192179918287,-0.8497370066940784,-0.36568259327635166
1739550766801097200,4.00709716796875,0.3042857291579246,-0.8377339227546006,-0.35532596136964856
1739550766811166000,4.017166015625,0.1634235525280237,-0.8259975999925285,-0.3414817796081304
1739550766821236200,4.027236328125,-0.01334346569776535,-0.8087027663204819,-0.33144809604547915
1739550766831305000,4.037304931640625,-0.08156184639930725,-0.8013084913507104,-0.3060764850322157
1739550766841374200,4.047374267578125,-0.10616086560487746,-0.8293436224848032,-0.2701602452594787
1739550766851443000,4.05744287109375,-0.12393500722646712,-0.8556363669309764,-0.27861104354485866
1739550766861512200,4.06751220703125,-0.10454524710178374,-0.8776565486244857,-0.2517387456450611
1739550766871581200,4.077581298828125,-0.10814765550792217,-0.8906051697857678,-0.2505303927686065
1739550766881650000,4.08764990234375,-0.11881927164793014,-0.9160000155441462,-0.2572493988253176
1739550766891719200,4.09771923828125,-0.10893559101521968,-0.9434862806238233,-0.23213519663922488
1739550766901789200,4.1077890625,-0.08954699993431568,-0.998892526025325,-0.2727014541748911
1739550766911861800,4.11786181640625,-0.10210662177801132,-1.0712504907496272,-0.277477509470284
1739550766921930800,4.1279306640625,-0.029810616374015806,-1.1314359332516788,-0.2999806523751467
1739550766931999700,4.137999755859375,0.07163608019053935,-1.1964261456869543,-0.3141471248935908
1739550766942068700,4.14806884765625,0.22698095568120477,-1.2432698760569094,-0.32731727985106407
1739550766952137700,4.1581376953125,0.28749650692045686,-1.2762230282403528,-0.3717614747986197
1739550766962206700,4.168206787109375,0.25321955878734587,-1.2888346725322306,-0.3593914572428912
1739550766972275700,4.178275634765625,0.21537235095202922,-1.3029717728257177,-0.3235223445475101
1739550766982345500,4.188345458984375,0.16792378655672072,-1.3701986582718788,-0.33585707159414885
1739550766992414700,4.198414794921875,0.14934008211791513,-1.451029267787188,-0.3701660953659564
1739550767002483700,4.208483642578125,0.1650748268663883,-1.4943654284276067,-0.39428551436103876
1739550767012552700,4.218552734375,0.20796938121914862,-1.511035262069106,-0.3971026176083833
1739550767022621700,4.22862158203125,0.2494359485954046,-1.5270036694429814,-0.43132345164008434
1739550767032690700,4.238690673828125,0.2529793202906847,-1.5253807444162666,-0.4654374642964452
1739550767042759700,4.248759765625,0.21019407153129577,-1.5150819071114063,-0.46831740364693103
1739550767052828700,4.25882861328125,0.1473421862989664,-1.5207693050980566,-0.44776466415747995
1739550767062898700,4.268898681640625,0.055125674894452095,-1.5607989715389907,-0.3913767142422497
1739550767072967700,4.2789677734375,-0.03888298062384128,-1.5432411030165851,-0.5103927505712956
1739550767083036700,4.28903662109375,-0.06719079121947288,-1.5171693809099493,-0.5676792567614466
1739550767093106000,4.29910595703125,-0.09426350706219673,-1.5022721098989247,-0.4897651922799647
1739550767103174700,4.309174560546875,-0.2194949838399887,-1.3701738160915673,-0.47394664170555767
1739550767113243600,4.31924365234375,-0.42885435811281203,-1.2472776503935457,-0.39135391788855195
1739550767123312600,4.329312744140625,-0.6277426072537898,-1.15424068945162,-0.3887694543533027
1739550767133381600,4.339381591796875,-0.7809218291431665,-1.190131283326447,-0.41902869127765296
1739550767143451600,4.34945166015625,-0.7338438516259193,-1.4258695459589361,-0.5686527779687196
1739550767153520600,4.359520751953125,-0.38195056811869144,-1.576272873394191,-0.6072386022768914
1739550767163589600,4.369589599609375,-0.205104054915905,-1.5141463798269628,-0.45041620157957074
1739550767173658600,4.37965869140625,-0.41306642187237735,-1.4269519343681634,-0.24770875947661697
1739550767183727600,4.3897275390625,-0.8200117305159569,-1.1796657842177898,-0.056295741587132214
1739550767193796600,4.399796630859375,-1.3626625636786223,-0.7520908714562654,0.14259513790234923
1739550767203865900,4.409865966796875,-2.213580889111757,-0.34849220635946837,0.17900471414998173
1739550767213934600,4.4199345703125,-2.971418779787421,-0.06301616784937214,0.06124371938332915
1739550767224004900,4.4300048828125,-3.298594970667362,0.10422005200171842,-0.21497429154515266
1739550767234073600,4.440073486328125,-3.3869512995123863,0.264306769990921,-0.3498021564468741
1739550767244142800,4.450142822265625,-3.323811244988441,0.5706380335018039,-0.36230544499345124
1739550767254211600,4.460211669921875,-2.9295220043003556,0.6763731479752808,-0.30650822751298545
1739550767264280800,4.47028076171875,-2.2841630763351914,0.5615053538994863,-0.22026823323480785
1739550767274349600,4.480349609375,-1.8233371244221925,0.6268482887625694,-0.43521366401165723
1739550767284418600,4.49041845703125,-1.2871750687569379,0.47627636329475787,-0.3434136244535446
1739550767294488600,4.500488525390625,-0.815576378417015,0.3344560091571882,-0.28156529024057086
1739550767304557800,4.510557861328125,-0.3394447208225727,0.20826332266442477,-0.22382344149835406
1739550767314626800,4.520626708984375,0.17031097395420072,0.1644887340741232,-0.11633030437640846
1739550767324695600,4.530695556640625,0.666405807647109,0.07549428998865186,-0.08695135741792619
1739550767334764800,4.540764892578125,1.0975772105306387,0.05775235186992213,-0.02190576153360307
1739550767344833500,4.55083349609375,1.3985264887422322,0.15898573447735978,0.04564253788664937
1739550767354902800,4.56090283203125,1.6122633474469183,0.27852358445711434,0.11779058618731796
1739550767364971500,4.570971435546875,1.7282704842835663,0.375641786830686,0.23715726258493958
1739550767375041800,4.581041748046875,1.7382535336375236,0.4803417495701462,0.3027821927271783
1739550767385110500,4.591110595703125,1.593403164154291,0.6137647161100059,0.33602957861684263
1739550767395179800,4.6011796875,1.253739247623086,0.8919435057174414,0.3511819203674793
1739550767405248800,4.611248779296875,0.8542886786490679,1.0886962041344492,0.35061829513534903
1739550767415317800,4.62131787109375,0.3783540049314499,1.306496147559583,0.39975393583476543
1739550767425386800,4.63138671875,0.07809037089645862,1.495795461230725,0.49911520442739127
1739550767435455700,4.641455810546875,-0.23402093732059,1.6314776048742234,0.553197215487808
1739550767445525800,4.65152587890625,-0.5087713599145413,1.7499616532184183,0.5694298998210578
1739550767455594800,4.6615947265625,-0.7204319968670606,1.873772449543327,0.565445433294773
1739550767465663700,4.671663818359375,-0.8838684088766574,1.8920840590424834,0.5456706193752586
1739550767475732700,4.681732666015625,-0.9407868124067783,1.8283453079730272,0.5111400618072599
1739550767485801700,4.6918017578125,-0.8692243819743395,1.7864850651040671,0.5112621538169682
1739550767495870500,4.701870361328125,-0.6401514224499464,1.610138025856018,0.5369843318335712
1739550767505939700,4.711939697265625,-0.32520927472114564,1.3839818305611609,0.5521433955859393
1739550767516009700,4.722009765625,0.11092822613716125,1.1528619484443217,0.5652040988195687
1739550767526078700,4.73207861328125,0.5548404526501893,0.9163671683561057,0.5719323841612786
1739550767536147700,4.742147705078125,0.9471499176979065,0.7135934560839087,0.6122433517616241
1739550767546216700,4.752216796875,1.171672958832979,0.5533525887126103,0.6182107357334345
1739550767556285700,4.76228564453125,1.2188906370818615,0.4647979973491281,0.5521559628065675
1739550767566354700,4.772354736328125,1.1228823321789503,0.4595917339429259,0.48927141741365193
1739550767576423700,4.782423583984375,0.8941443036973475,0.49693062692992385,0.4336161656871438
1739550767586493700,4.79249365234375,0.6701274585187434,0.5080272270163521,0.4337315356951207
1739550767596562700,4.802562744140625,0.5172124405235052,0.46383437648136167,0.43701179947480556
1739550767606631700,4.812631591796875,0.46247313459813594,0.43481947706229984,0.38465120537951586
1739550767616700700,4.82270068359375,0.49894087077379223,0.4234379590872675,0.37052564939334987
1739550767626769700,4.832769775390625,0.5407762714624404,0.3894480842672288,0.3764627843573689
1739550767636838700,4.842838623046875,0.6239373697519301,0.3380367537207901,0.39009865713045
1739550767646908000,4.852907958984375,0.6907879692316055,0.28234361766930666,0.4485825564116239
1739550767656977700,4.862977783203125,0.6567044978439808,0.32781174883712083,0.3822028623793274
1739550767667047000,4.873046875,0.6018740065038204,0.38384646486788987,0.36570816610902546
1739550767677115600,4.88311572265625,0.4541664940237999,0.43695988662447777,0.3577775192402303
1739550767687185000,4.893184814453125,0.26806583026349545,0.4108421699516475,0.3937680663581937
1739550767697253600,4.903253662109375,0.1235351942539215,0.4089527760084718,0.3589441518668085
1739550767707322600,4.913322509765625,0.09409750284552573,0.4685136568713933,0.3773002580948174
1739550767717391600,4.9233916015625,0.12930267173945903,0.5020600257076323,0.36682796391919253
1739550767727462000,4.9334619140625,0.20711481021642683,0.5430252559656277,0.3325812647938728
1739550767737530600,4.943530517578125,0.23362287791371344,0.5324359843468294,0.2679150236159563
1739550767747599600,4.953599609375,0.3693786713153124,0.4319899527247995,0.32752975355796515
1739550767757668600,4.963668701171875,0.504159482204914,0.366547758738324,0.2887902730580419
1739550767767737600,4.973737548828125,0.6503355473339557,0.2820973878232762,0.2477339669831097
1739550767777806800,4.983806884765625,0.7911357646435498,0.19870646283328533,0.23258915095180271
1739550767787875600,4.99387548828125,0.87565762989223,0.1547668564070016,0.22534144484587013
1739550767797945900,5.00394580078125,0.8477110538244247,0.1452346926257014,0.24333785091601312
1739550767808014600,5.0140146484375,0.8025105606168508,0.12330514835771172,0.28513007005006075
1739550767818083800,5.024083740234375,0.7157283492207527,0.07043839483857155,0.30155937293395396
1739550767828152600,5.034152587890625,0.604500847876072,-0.03639993163645267,0.3305358035061508
1739550767838221800,5.044221923828125,0.6243827754318714,-0.06311192440800369,0.317722426097095
1739550767848290600,5.05429052734375,0.7157903085410594,-0.1681950047135353,0.3141032126866281
1739550767858360800,5.06436083984375,0.8030681944996118,-0.2803285880524665,0.2983057049002498
1739550767868429600,5.0744296875,0.8633452608078718,-0.38329354369286445,0.2593207252066582
1739550767878498800,5.084498779296875,0.9214426449894905,-0.47164059325288976,0.23130656379535794
1739550767888567800,5.09456787109375,0.9182985017448663,-0.5243779482387005,0.21411212175786493
1739550767898636800,5.10463671875,0.8420821080267429,-0.5727842517502606,0.23545469645075498
1739550767908701200,5.114701171875,0.7300146487265825,-0.6279025470558554,0.23493797910027203
1739550767918770400,5.1247705078125,0.6430436367601156,-0.6526326452951878,0.17471461574062705
1739550767928840200,5.134840087890625,0.5553448950409889,-0.6731148037664592,0.12609803047925233
1739550767938909200,5.1449091796875,0.4477472746312618,-0.6666872549369931,0.12488777790665626
1739550767948978200,5.154978271484375,0.3799433199495077,-0.6486382418967783,0.1667489706236869
1739550767959047400,5.16504736328125,0.3551245205134153,-0.7049532727062702,0.18496245351061225
1739550767969116200,5.1751162109375,0.3493874381661415,-0.7875986034933478,0.1736127189133316
1739550767979185200,5.18518505859375,0.3364291723936796,-0.8616369225200265,0.20094598538838326
1739550767989254100,5.195254150390625,0.32458442082107064,-0.918878201328963,0.2095104731813073
1739550767999324200,5.20532421875,0.2705032865434885,-1.0336762546367944,0.19103147122599184
1739550768009393200,5.21539306640625,0.20470599550902843,-1.0184018939416855,0.19763276918716727
1739550768019462100,5.225462158203125,0.1249427229642868,-1.022250020737201,0.19618790414109824
1739550768029531100,5.23553125,-0.018708207601308823,-1.0192251930233092,0.15503924360759555
1739550768039600000,5.24560009765625,-0.2046586492359638,-1.005393140091002,0.2070300545424223
1739550768049669400,5.25566943359375,-0.40170974607765675,-0.9359081004545092,0.2208235290300101
1739550768059739100,5.2657392578125,-0.5662386294990778,-0.9253644946083426,0.21603424892686307
1739550768069808000,5.27580810546875,-0.6961790146201848,-0.8425672611951828,0.25126637889295816
1739550768079877000,5.285877197265625,-0.8100093919396399,-0.7590249815683812,0.30026546066589654
1739550768089946400,5.2959462890625,-0.882957139250636,-0.6605130963467061,0.23264862605407832
1739550768100015000,5.30601513671875,-0.7439099030882119,-0.8232588957436382,0.19653532933928072
1739550768110084400,5.31608447265625,-0.3324813115507364,-1.0899760878771543,0.13200922728441655
1739550768120154000,5.326154052734375,0.13294658119976518,-1.1178239528108387,0.2633596253339201
1739550768130223400,5.336223388671875,0.19348726688027382,-0.9458581243216991,0.32639468511343
1739550768140292000,5.3462919921875,-0.14862228923738002,-0.9044779931198805,0.28433986952044066
1739550768150361300,5.356361328125,-0.5736866074174642,-0.7837609980918466,0.39683636788763105
1739550768160430000,5.36643017578125,-0.9324754956573247,-0.548815164478682,0.36243593950532377
1739550768170499000,5.3764990234375,-1.3546902696251868,-0.3093836733514443,0.3812206464089453
1739550768180568300,5.386568359375,-1.6791905192941425,-0.07053934816212859,0.47453496298752723
1739550768190638300,5.396638427734375,-2.118762086254358,0.21188324846094472,0.5953649899359792
1739550768200707000,5.40670703125,-2.5746710400313138,0.5984369081946089,0.5522505092222243
1739550768210776000,5.416776123046875,-2.9920705226719377,0.8091948606863617,0.4636301956787705
1739550768220845300,5.42684521484375,-3.225624427002668,0.8711555692326277,0.44095805288255213
1739550768230914000,5.4369140625,-3.205072052839398,0.9866296951711178,0.37597353953570123
1739550768240983300,5.4469833984375,-2.6974615533977744,0.9871491890005767,0.412571404897049
1739550768251053000,5.457052978515625,-2.04039114485085,1.0011993416629732,0.411130339243263
1739550768261122300,5.467122314453125,-1.4793594363451004,1.0309301707990466,0.33443339546658096
1739550768271191000,5.47719091796875,-1.0168716886997222,0.9842710762809962,0.22021211913339792
1739550768281260300,5.48726025390625,-0.551014172360301,0.8636211551398039,0.10812171734906732
1739550768291329000,5.4973291015625,0.07212766309976577,0.7818637131031602,-0.03852050398699939
1739550768301398300,5.507398193359375,0.6770896987468004,0.756747245894745,-0.2072374867480248
1739550768311468000,5.517468017578125,1.1285311517208814,0.7412913180876523,-0.3322301132686436
1739550768321537300,5.527537353515625,1.4029612563192844,0.7133579668276011,-0.43432665204405785
1739550768331606300,5.537606201171875,1.542121305206418,0.6914952407181263,-0.5488002957031131
1739550768341675300,5.54767529296875,1.5497335337758062,0.6306923969700932,-0.6229990659885108
1739550768351744300,5.557744140625,1.3493851489543913,0.6361768927957863,-0.6268437587179243
1739550768361813200,5.567813232421875,0.9849965410113334,0.798109183852747,-0.5799236021108926
1739550768371883300,5.57788330078125,0.558373302951455,1.0282165279261768,-0.5644996768772602
1739550768381952300,5.5879521484375,0.17841887708604334,1.2304584714092313,-0.580219077926129
1739550768392021200,5.598021240234375,-0.25448855580985547,1.3947498928129671,-0.6496663428355008
1739550768402090200,5.60809033203125,-0.6885013195991516,1.5082929776236413,-0.6883425488408654
1739550768412159200,5.6181591796875,-0.9528104276776314,1.5780391524143516,-0.7051785328295082
1739550768422228200,5.628228271484375,-0.9782160870909691,1.5273378698334097,-0.7331087422844023
1739550768432298200,5.63829833984375,-0.7634510543823242,1.4569620188370347,-0.7799303338877857
1739550768442367200,5.6483671875,-0.42957916525602335,1.4486165075570343,-0.885673558602482
1739550768452436200,5.658436279296875,0.06787059017717838,1.40316978450343,-0.9674660719525069
1739550768462505200,5.668505126953125,0.4659469481885433,1.3644493009649217,-1.0086340217083691
1739550768472574200,5.67857421875,0.7406441792905331,1.3050982634603976,-1.0064496634066105
1739550768482643200,5.688643310546875,0.8519628660500049,1.2400890540637075,-1.0488980814270674
1739550768492712200,5.698712158203125,0.9793196644186973,1.117690243428573,-0.9747234226696193
1739550768502782200,5.7087822265625,1.1013584826350211,0.970809829422459,-0.8743054846309125
1739550768512851200,5.718851318359375,1.2032500003576279,0.8499484574876726,-0.7873216862481087
1739550768522920200,5.728920166015625,1.234031507590413,0.703616836470738,-0.6928620720919221
1739550768532989200,5.7389892578125,1.283047759693861,0.5454550038632006,-0.5642536662269383
1739550768543058200,5.74905810546875,1.2848650382488964,0.47877460985127834,-0.49532596821226177
1739550768553127200,5.759127197265625,1.228439971193671,0.43487855030577627,-0.46011466183848676
1739550768563197200,5.769197265625,1.1632575971871615,0.36321835858728735,-0.4123960483301431
1739550768573266200,5.77926611328125,1.072587146180868,0.3206112063411623,-0.34361031606942416
1739550768583335200,5.789335205078125,0.943676104107499,0.26934173195082695,-0.26940000147670506
1739550768593404400,5.799404296875,0.7724012535572051,0.22773429479915647,-0.2100254369661212
1739550768603473200,5.80947314453125,0.6826227829545736,0.18220398511532693,-0.19579773577973245
1739550768613542100,5.819542236328125,0.6231172855406999,0.15570106851719318,-0.19256145727224647
1739550768623612200,5.829612060546875,0.5090653744250536,0.16218955375365912,-0.1648831036865711
1739550768633681400,5.839681396484375,0.30560382601916786,0.1768392614780925,-0.1090565139811486
1739550768643750100,5.849750244140625,0.09038052814900875,0.21638333635916931,-0.08313574465252459
1739550768653819100,5.859819091796875,-0.10811609132587909,0.22355452489648012,-0.08467785952799022
1739550768663888100,5.86988818359375,-0.28177286857664585,0.203629744579643,-0.12468370670191943
1739550768673957000,5.87995703125,-0.3177028446137905,0.18732359315138308,-0.16531046225316823
1739550768684027100,5.890027099609375,-0.31322540693879125,0.13690219609090126,-0.18042437168955802
1739550768694096100,5.90009619140625,-0.22599954342842102,0.02288036501968745,-0.18374723250195382
1739550768704165000,5.9101650390625,-0.114433019387722,-0.11564745494509115,-0.19955380037762224
1739550768714234000,5.920234130859375,0.020591537129878996,-0.22976704273577778,-0.2572051212921738
1739550768724303400,5.930303466796875,0.14442425302565096,-0.3366411711765453,-0.31157530164420605
1739550768734372000,5.9403720703125,0.26293665068149563,-0.4422743961781263,-0.3282233618453145
1739550768744442000,5.950442138671875,0.3540969310313463,-0.5525131787464023,-0.34893362998403604
1739550768754511000,5.960510986328125,0.39135084914863105,-0.6442066161248833,-0.3377648049116134
1739550768764580400,5.970580322265625,0.41703181837201114,-0.7276793376468121,-0.3620466479267925
1739550768774649000,5.980649169921875,0.4552198024690151,-0.803306679430604,-0.39944881540834903
1739550768784718300,5.99071826171875,0.4809223990023136,-0.8823273899797349,-0.38721016914732753
1739550768794787000,6.000787109375,0.4539771089315414,-0.9409164301358163,-0.3557036355756223
1739550768804857300,6.010857421875,0.4322907623022795,-0.9936376742370426,-0.3330411373905837
1739550768814926000,6.020926025390625,0.3745312317728996,-1.05757231320478,-0.2699493789877742
1739550768824995300,6.030995361328125,0.24599662179648873,-1.0907890847604722,-0.22483934054262936
1739550768835064000,6.04106396484375,0.10087503415644168,-1.1247416963100432,-0.19759134119823574
1739550768845133300,6.05113330078125,-0.03911737390160561,-1.0628941658146678,-0.23145525155104696
1739550768855202300,6.061202392578125,-0.1531809754550457,-1.0241858841706066,-0.25008798276335
1739550768865272300,6.071272216796875,-0.25573300291299816,-0.9608186698272824,-0.2964561315108091
1739550768875341000,6.081341064453125,-0.4126777148157358,-0.9204775262843817,-0.27629575233981013
1739550768885410300,6.091410400390625,-0.49206981596052646,-0.9152641024850309,-0.28673684765957297
1739550768895479300,6.101479248046875,-0.4867383918046951,-0.912833660467714,-0.28426804639324543
1739550768905548500,6.111548583984375,-0.40144904931485653,-0.8995639906585216,-0.2940054504230618
1739550768915617500,6.121617431640625,-0.3323147228121757,-0.892178702712804,-0.34312560129240155
1739550768925687600,6.1316875,-0.2941752540320158,-0.8958543955508619,-0.39478096972778437
1739550768935756800,6.1417568359375,-0.3083089933246374,-0.8761769775912165,-0.4355196612209081
1739550768945825500,6.151825439453125,-0.3683744627088308,-0.8568141785386949,-0.4647371340073645
1739550768955894500,6.16189453125,-0.3875169700741768,-0.8583730253532529,-0.4520495018698275
1739550768965963500,6.171963623046875,-0.3868137902408838,-0.831556110902503,-0.5165748732723295
1739550768976032500,6.182032470703125,-0.33772388837933537,-0.8132192208316177,-0.5626122556954622
1739550768986102500,6.1921025390625,-0.30032851596474647,-0.7771210486207157,-0.5821553066857159
1739550768996171500,6.202171630859375,-0.27537527649402616,-0.7716402791220695,-0.5984126140035688
1739550769006240500,6.212240478515625,-0.2819692679315805,-0.7356335845869034,-0.5963391687303781
1739550769016309500,6.2223095703125,-0.27513562251925466,-0.6691638741835951,-0.6167870596058667
1739550769026378800,6.232378662109375,-0.35567630917727944,-0.6931012146100402,-0.6545677780762315
1739550769036447500,6.242447509765625,-0.30599311759769915,-1.0227659343700854,-0.8034027602162211
1739550769046517500,6.252517578125,0.05216916317641735,-1.3760659428700803,-0.8964617137942462
1739550769056586500,6.26258642578125,0.288439925250411,-1.4693088747128844,-0.9310933205839246
1739550769066655700,6.27265576171875,0.5731804114609956,-1.5558369652174413,-0.7017378908563405
1739550769076724500,6.282724365234375,0.8276245436072349,-1.354408237813413,-0.13477788828015327
1739550769086793700,6.292793701171875,0.19227379943728445,-0.6277791398718953,0.4755586069468409
1739550769096862500,6.302862548828125,-1.5435913777589798,0.26849479626528916,0.5243276062909513
1739550769106932700,6.3129326171875,-3.319305750262737,0.7802439298816025,0.4492614785864949
1739550769117001500,6.32300146484375,-4.841795303282141,1.3442055543594063,0.3807995714526623
1739550769127070700,6.33307080078125,-5.950169217637181,1.8604517801992595,0.17940657294914125
1739550769137139500,6.343139404296875,-6.296687822368741,2.248744703081995,-0.10309833622910082
1739550769147208700,6.353208740234375,-5.680857771226764,2.4291632295526564,-0.4059804091341793
1739550769157277700,6.363277587890625,-4.163908901199698,2.3269763821452853,-0.5301207296743988
1739550769167347700,6.37334765625,-2.22217336089015,1.8981478891260921,-0.3350513081692159
1739550769177416400,6.38341650390625,-0.7050988186568021,1.582705536790192,-0.07796594079919159
1739550769187485400,6.3934853515625,0.28029110558629033,1.4224306575514376,0.072924512565881
1739550769197554700,6.4035546875,0.9869137728095054,1.1201651821747423,0.29021278014183044
1739550769207623400,6.41362353515625,1.4515654204905033,0.8747881535813212,0.3965969331085682
1739550769217692700,6.423692626953125,1.7907038518428802,0.6889743439383804,0.45605471892319616
1739550769227762400,6.433762451171875,2.0317980885505675,0.5629940580872819,0.5139738969936967
1739550769237831700,6.443831787109375,2.115503961241245,0.532078549211286,0.5475555563390254
1739550769247900400,6.453900390625,2.0520190388023853,0.6549633532650768,0.581188069088757
1739550769257969700,6.4639697265625,1.8613912530064582,0.8213618299506604,0.577793385149166
1739550769268038400,6.474038330078125,1.49851363414824,1.0528830594100058,0.49030609422363336
1739550769278107600,6.484107666015625,1.0580986021012067,1.2726119981363415,0.40106932928226885
1739550769288177400,6.494177490234375,0.8148574164927005,1.4672314839169383,0.3683426793310791
1739550769298246700,6.50424658203125,0.6796855604588985,1.6080341854445634,0.33409400744438167
1739550769308315400,6.5143154296875,0.6088952834427357,1.7873961885996161,0.3007440379630774
1739550769318384600,6.524384521484375,0.6040209554046392,1.865171648328006,0.3973796079188585
1739550769328453600,6.53445361328125,0.6816711813181638,1.7702205973930656,0.5415973055217415
1739550769338522600,6.544522705078125,0.7414724468082189,1.5946217461638152,0.6819239139702171
1739550769348592600,6.554592529296875,0.7246522449105978,1.4730685195073485,0.8134065600972622
1739550769358661600,6.56466162109375,0.5658937615841627,1.4522561792336404,0.8671806742522865
1739550769368730600,6.574730712890625,0.39844402227997777,1.464093185891211,0.8553924021072685
1739550769378799600,6.584799560546875,0.2864578115224838,1.4716009311728178,0.8079103007685393
1739550769388868600,6.59486865234375,0.1972398974120617,1.4056050488263367,0.7146737986665219
1739550769398938600,6.604938720703125,0.1721376048594713,1.2655720164969562,0.6575421907771378
1739550769409007600,6.615007568359375,0.3032926264673471,1.125129453518614,0.594063917274773
1739550769419076600,6.62507666015625,0.5865747305631637,0.9717652304511517,0.5671840205904096
1739550769429145600,6.6351455078125,0.8998539135158061,0.8130749900553375,0.5111431305471807
1739550769439214600,6.645214599609375,1.119894840800762,0.6741700849730521,0.4305060708425939
1739550769449283600,6.65528369140625,1.1678934402942658,0.5217523489754646,0.40742739307209846
1739550769459353600,6.665353515625,1.0746569381922484,0.4470028860047459,0.37425986748561263
1739550769469422600,6.675422607421875,0.8968477174371481,0.49765170774608847,0.3459486228238791
1739550769479491600,6.68549169921875,0.6425918013393879,0.5754711527466774,0.3625266134634614
1739550769489560600,6.695560546875,0.3472831593632698,0.6095609077446162,0.42755854614861305
1739550769499629600,6.705629638671875,0.04870528645813465,0.5910155260222032,0.42081309047639365
1739550769509699600,6.715699462890625,-0.218780113568902,0.5923338786117732,0.382493150562793
1739550769519768600,6.7257685546875,-0.3606447452396154,0.5625261117819697,0.41339221976064144
1739550769529837600,6.735837646484375,-0.3570341535270214,0.47506928905993695,0.4443839356780052
1739550769539906600,6.745906494140625,-0.15308160673379897,0.35462800570074465,0.48570459177754816
1739550769549975600,6.7559755859375,0.15728256555497647,0.3420360159574076,0.499757301723212
1739550769560044500,6.76604443359375,0.4564905530571937,0.2218956152409315,0.6026107963457703
1739550769570114600,6.776114501953125,0.4860375500589609,-0.11315989417936652,0.5037400146838277
1739550769580183600,6.78618359375,0.6165174488842486,-0.3767220198154449,0.5320512593455612
1739550769590252500,6.79625244140625,0.7864046444684266,-0.42344537520874287,0.5531896167032421
1739550769600321500,6.806321533203125,0.8861281705021857,-0.3174201917475089,0.5142298445161432
1739550769610390800,6.816390869140625,0.909611921942234,-0.3277961128765717,0.38623255628682673
1739550769620459500,6.82645947265625,0.9312485842108726,-0.42881943292990327,0.28642558975331484
1739550769630529500,6.836529541015625,0.9509539861559867,-0.4598561570327729,0.2982685146950185
1739550769640598500,6.8465986328125,0.8771610201925039,-0.42550486502181734,0.2675652603302151
1739550769650667800,6.856667724609375,0.7563561276853085,-0.43737402038332074,0.16475253610946236
1739550769660736500,6.866736572265625,0.6112468150049447,-0.4262364306993782,0.10913440152294933
1739550769670805800,6.8768056640625,0.45796647082865233,-0.39326563326139,0.1010197033241391
1739550769680875500,6.88687548828125,0.25509002883434295,-0.379584386976622,0.0966301631283015
1739550769690944800,6.89694482421875,0.044536476340889926,-0.3388985216492787,0.09279124255254864
1739550769701013500,6.907013427734375,-0.1912310123860836,-0.23797796785067765,0.1412994720686227
1739550769711082500,6.91708251953125,-0.4205465484946966,-0.17641250569969413,0.14835969277843833
1739550769721151500,6.9271513671875,-0.5646200883865357,-0.16238102120514958,0.07943842450454831
1739550769731220500,6.937220458984375,-0.6669137571692466,-0.1464645997468382,0.030012860947847365
1739550769741290500,6.94729052734375,-0.7133961068809032,-0.18893358563128856,0.00008972411006689071
1739550769751359500,6.957359375,-0.5914098956346512,-0.30411636394038793,0.00021605390347540377
1739550769761428500,6.967428466796875,-0.29992928751409054,-0.414431426615268,0.007247779171168804
1739550769771497500,6.97749755859375,0.07436112124025822,-0.5077258329169825,-0.012976312885805964
1739550769781566700,6.987566650390625,0.3678121526509523,-0.5717272535106167,-0.020543460204452274
1739550769791636500,6.997636474609375,0.5388584551423787,-0.6466610966049134,-0.02201762441024184
1739550769801705500,7.00770556640625,0.6813689835011959,-0.7471512230969966,-0.006556070579960942
1739550769811774500,7.0177744140625,0.8095335911214351,-0.8422656479001045,-0.0036624680303037165
1739550769821843700,7.02784375,0.9147656514436006,-0.9268487418167293,-0.006253288241103291
1739550769831912400,7.037912353515625,0.9812088391661643,-0.981185166029632,-0.06403137734048069
1739550769841981700,7.047981689453125,0.9816519067585467,-0.9813389683518559,-0.09806531049795449
1739550769852051500,7.058051513671875,0.8869260428816079,-0.9153105719752609,-0.09795695475265383
1739550769862120700,7.06812060546875,0.7020978832751512,-0.809512402202934,-0.039975159774720666
1739550769872189400,7.078189453125,0.500470564559102,-0.7301129214692861,0.012957973511517047
1739550769882258700,7.0882587890625,0.3198720053464174,-0.7141974863916635,0.06331701852604746
1739550769892327400,7.098327392578125,0.1507534560471773,-0.7259557287245988,0.10317512779235839
1739550769902397700,7.108397705078125,0.14186638523638248,-0.7784491554193198,0.12115640935860574
1739550769912470000,7.118469970703125,0.09448094920516013,-0.8005461286760867,0.14373758593574165
1739550769922539300,7.128539306640625,0.023448095604777335,-0.748276719995588,0.25830826022848485
1739550769932608000,7.13860791015625,-0.0535959811091423,-0.72078044497855,0.37861367878094315
1739550769942677200,7.14867724609375,-0.19820786566138265,-0.724107543574646,0.46135392130985853
1739550769952747000,7.1587470703125,-0.32301497954726216,-0.704532124684751,0.5754681570719927
1739550769962816300,7.168816162109375,-0.3169359518945217,-0.6702810416452586,0.6113632079262286
1739550769972885200,7.17888525390625,-0.3276239346474409,-0.6637244596086442,0.6158497787557542
1739550769982954200,7.188954345703125,-0.46652796294689175,-0.6772589178338646,0.6363731460202485
1739550769993023200,7.199023193359375,-0.6216974818706512,-0.764660210976377,0.6033229632031172
1739550770003092200,7.20909228515625,-0.5440554392635822,-1.0031728336930275,0.47804377482607957
1739550770013162200,7.219162353515625,-0.22608722171187398,-1.2008577714588493,0.3452282726600766
1739550770023231200,7.229231201171875,0.15161971748769282,-1.339910049122572,0.31852760500013827
1739550770033300200,7.23930029296875,0.3757131350338459,-1.2834715380638837,0.4519187150970101
1739550770043369200,7.249369140625,0.1164724162608385,-0.9754827166043222,0.4158151360586285
1739550770053438200,7.259438232421875,-0.7916852152198552,-0.3889760828413069,0.439210259367153
1739550770063508200,7.26950830078125,-1.9541040234953164,0.1590798973005265,0.537870832344517
1739550770073577200,7.2795771484375,-2.813814142671227,0.37953221839796747,0.586540536032617
1739550770083646200,7.289646240234375,-3.3046389270067213,0.5091618936020881,0.5121417861957103
1739550770093715200,7.299715087890625,-3.6013480834305285,0.8059966491669416,0.3394083343349397
1739550770103784200,7.3097841796875,-3.6801328663319346,1.1350110152594743,0.32554391350299117
1739550770113853200,7.319853271484375,-3.6072692901730536,1.405051652727276,0.28001623416766525
1739550770123923200,7.329923095703125,-3.314472338756919,1.5141308899968862,0.22410876124575732
1739550770133992200,7.3399921875,-2.7681320034265515,1.410459941511601,0.23051629020050166
1739550770144061200,7.350061279296875,-2.0996862143844366,1.2309104529604316,0.3273188872862607
1739550770154130200,7.360130126953125,-1.4547498957455158,1.0782611001640559,0.3307950389642268
1739550770164199200,7.37019921875,-0.8210656234830618,0.9717090432845056,0.24276589624695477
1739550770174269200,7.380269287109375,-0.18863281258642672,0.926855244622752,0.08448189856447279
1739550770184338200,7.390338134765625,0.5085363821148872,0.7906364368192851,-0.048837461470440026
1739550770194407200,7.4004072265625,1.137140574634075,0.6429612191736698,-0.18339768841192125
1739550770204476200,7.41047607421875,1.5561971768319607,0.5407690014714375,-0.25270832132957877
1739550770214545200,7.420545166015625,1.8501053043603897,0.47793198501467704,-0.2621623783733696
1739550770224615200,7.430615234375,2.0150036056160925,0.516324478707835,-0.2972060730952769
1739550770234684200,7.44068408203125,1.8924410557866096,0.6536486904699355,-0.38092663189843295
1739550770244753200,7.450753173828125,1.5436889929145574,0.8288764433644712,-0.46861762870252127
1739550770254822100,7.460822265625,1.0701251399815082,0.9595533991318196,-0.5537793262246996
1739550770264891100,7.47089111328125,0.6697358288526535,1.0307936118725687,-0.5982341156315059
1739550770274960400,7.48096044921875,0.4063952735453844,1.0981182586047797,-0.5926331538192927
1739550770285030100,7.491030029296875,0.28662147765159607,1.159616391140595,-0.5394009645212441
1739550770295099100,7.50109912109375,0.28055589400231834,1.2012570729747414,-0.5211349477294832
1739550770305168100,7.511168212890625,0.30261516559720036,1.3225266603842376,-0.579357492660731
1739550770315237400,7.5212373046875,0.23316519727408885,1.4578731423325835,-0.6130136054817586
1739550770325306000,7.53130615234375,0.10137246228456497,1.527651611957699,-0.6335770124956965
1739550770335376400,7.54137646484375,-0.07612287021577357,1.5516845217131077,-0.6648126932367682
1739550770345445000,7.551445068359375,-0.29541034878492356,1.6251215138457715,-0.6677762192174792
1739550770355514400,7.561514404296875,-0.4387175804793834,1.5939724884748458,-0.6859513428553938
1739550770365583000,7.5715830078125,-0.42820261620581146,1.6280390087276697,-0.7530453957021236
1739550770375652400,7.58165234375,-0.29576281548440453,1.6082390603668988,-0.7795023177340626
1739550770385722000,7.59172216796875,-0.07965396695137024,1.5510329259365796,-0.8593541453450918
1739550770395791400,7.601791259765625,0.2467395491182804,1.4209993095740676,-0.8625618553452193
1739550770405860000,7.611860107421875,0.638887686124444,1.235772359908372,-0.7793108868151902
1739550770415929300,7.621929443359375,0.9108826725304127,1.0728296496998517,-0.6688337654463946
1739550770425998300,7.631998291015625,1.1013292565405368,0.9534155539639294,-0.577553950370103
1739550770436067000,7.642067138671875,1.2495225067108868,0.85619144353047,-0.48816089888848363
1739550770446137000,7.65213720703125,1.3505530236899852,0.7571659096982329,-0.44013190425671633
1739550770456206000,7.6622060546875,1.3942419432908295,0.6816952928461134,-0.4109905654463917
1739550770466275300,7.672275390625,1.4922364535748958,0.5866009609829634,-0.3351108563367277
1739550770476344000,7.682343994140625,1.6353876179248095,0.44333479195125397,-0.22476583691500127
1739550770486413300,7.692413330078125,1.5785212368428707,0.3580718990769237,-0.15005297962762415
1739550770496483000,7.702483154296875,1.3683692508876324,0.33163068607077,-0.009441270627453922
1739550770506552300,7.71255224609375,1.0593068088471889,0.3978333430357277,0.0987425521723926
1739550770516621000,7.72262109375,0.6838508634448051,0.43390985140409316,0.09220664759762584
1739550770526690300,7.732690185546875,0.34561668745577334,0.4203888006497174,0.08048289205618202
1739550770536759000,7.742759033203125,0.11409633477926254,0.4085592831788584,0.004676759639382362
1739550770546829300,7.752829345703125,-0.005581015002727508,0.39909386449083684,-0.05718859877362847
1739550770556898000,7.76289794921875,-0.08420213177502155,0.4285506624585017,-0.08049034471027552
1739550770566967300,7.77296728515625,-0.15308803647458552,0.41809162962324914,-0.0907799027301371
1739550770577036000,7.7830361328125,-0.19878712685406208,0.36837493763286616,-0.10539207318946718
1739550770587105300,7.793105224609375,-0.195879714974761,0.28894582894593474,-0.13582359794080257
1739550770597174300,7.80317431640625,-0.1910655926913023,0.24673560359552502,-0.20787227752022444
1739550770607244300,7.813244384765625,-0.22550971408486364,0.1512496055336669,-0.2760723188474774
1739550770617313000,7.82331298828125,-0.2604109315961599,0.030507110738195477,-0.3086049805965274
1739550770627382300,7.83338232421875,-0.2564870361506939,-0.06349526116978377,-0.3734301386632025
1739550770637451300,7.843451171875,-0.1546568932265043,-0.13520502765104173,-0.4509398601274937
1739550770647520300,7.853520263671875,0.010398059895634651,-0.222654434251599,-0.47719767939075824
1739550770657590300,7.86359033203125,0.10871464174091815,-0.31907519241292026,-0.47381731623746454
1739550770667659300,7.8736591796875,0.22726912497282026,-0.35033275619223714,-0.47037988913469014
1739550770677728300,7.883728271484375,0.22979016788303852,-0.33434469426982105,-0.46091450697928665
1739550770687797200,7.89379736328125,0.12950199370384216,-0.4090458611194044,-0.40587409921549256
1739550770697866200,7.9038662109375,0.062032970064878463,-0.4895843192877248,-0.35715573408007617
1739550770707936300,7.913936279296875,-0.032572482302784915,-0.5639532585082575,-0.3300049845650792
1739550770718005200,7.924005126953125,-0.08675649243295193,-0.6636367813251912,-0.2721895591299981
1739550770728074200,7.93407421875,-0.06650748513042927,-0.7398755330055952,-0.24334742246195673
1739550770738143200,7.944143310546875,-0.010534838017821312,-0.7519415991786867,-0.1847597705453634
1739550770748212200,7.954212158203125,0.02850771708190441,-0.7581254023801535,-0.15894479967877267
1739550770758281200,7.96428125,0.031764088529348374,-0.7349629187837242,-0.1451400000795722
1739550770768351200,7.974351318359375,-0.007135258707404136,-0.7451679403252899,-0.09969079280793666
1739550770778420200,7.984420166015625,-0.10346095899641514,-0.7233429158776998,-0.11718779798857867
1739550770788489200,7.9944892578125,-0.17453122199773788,-0.7989419083498418,-0.1455066414348781
1739550770798558200,8.00455810546875,-0.25995032834708687,-0.8509283353704958,-0.1553703021928668
1739550770808627200,8.014627197265625,-0.30464170298874377,-0.7847769702013582,-0.23901275425851343
1739550770818697200,8.024697265625,-0.19731705430150032,-0.7153419071864336,-0.2967712618745863
1739550770828766200,8.03476611328125,-0.10560732337534427,-0.6669328271958976,-0.28383389275968074
1739550770838835200,8.044835205078124,-0.052903322669863695,-0.6731054514162242,-0.2922168134406209
1739550770848904200,8.054904296875,0.023716391152143478,-0.7333139094676822,-0.3459112864881754
1739550770858973200,8.06497314453125,-0.003503624206781387,-0.6968429584216326,-0.31630788312405345
1739550770869043200,8.075043212890625,-0.06564882247447967,-0.665090925656259,-0.3035692514516413
1739550770879112200,8.0851123046875,-0.11836626718342304,-0.7130275658294558,-0.3052516515806317
1739550770889181200,8.09518115234375,-0.18467209226191042,-0.7558052158042788,-0.32247057047225536
1739550770899250200,8.105250244140626,-0.1727916848540306,-0.8108464272856711,-0.30849560193791986
1739550770909319400,8.1153193359375,-0.09610299744904041,-0.8004574274793267,-0.32048801835291085
1739550770919389400,8.125389404296875,-0.041294133418798444,-0.8026827753785997,-0.3656503715071827
1739550770929458400,8.13545849609375,-0.037113048341870306,-0.7953234986569732,-0.4036691365171224
1739550770939527400,8.14552734375,-0.07778525047004223,-0.805867177568376,-0.4813448621980846
1739550770949596400,8.155596435546874,-0.18934534476995468,-0.7955329036239535,-0.5225290324363857
1739550770959665700,8.165665771484376,-0.2160521499097347,-0.8312664803061633,-0.5133247854351997
1739550770969735400,8.1757353515625,-0.30798341463208195,-0.9318804523736238,-0.6603270722553134
1739550770979804400,8.185804443359375,-0.1963461634427309,-1.0945286366149782,-0.9381218309812247
1739550770989873400,8.195873291015625,-0.08454466160237789,-1.2412309175752103,-1.0078555846817792
1739550770999942700,8.205942626953124,0.12017711599767207,-1.3331110366322099,-0.7788580284811556
1739550771010011400,8.216011474609376,0.4016284975349903,-1.227359628611058,-0.33947131656855345
1739550771020080600,8.22608056640625,0.2538859137415886,-0.8234179587628692,0.10534881856963038
1739550771030150400,8.236150390625,-0.3779775728344917,-0.38604660526067014,0.16680325809419155
1739550771040219600,8.2462197265625,-1.3099135547876357,-0.1242032479749061,-0.014010551304370164
1739550771050288400,8.256288330078124,-2.001227593719959,0.07347627383028156,-0.16409882144108415
1739550771060357400,8.266357421875,-2.4588567954182623,0.22175531172109766,-0.09014365065321325
1739550771070426400,8.27642626953125,-2.822840914213657,0.47587826735526323,-0.008310878358036278
1739550771080496600,8.28649658203125,-2.951881135624647,0.8074796542663126,0.1473550457805395
1739550771090565400,8.2965654296875,-3.0338977400541305,1.108249995714426,0.2425992344431579
1739550771100634400,8.30663427734375,-2.957294977366924,1.229901714309305,0.26946941345110537
1739550771110703400,8.316703369140624,-2.6496944245725866,1.2442800760127604,0.2456089376531541
1739550771120772400,8.3267724609375,-2.14828161072731,1.193476355970651,0.2651461434245109
1739550771130842400,8.33684228515625,-1.4537421800076962,1.118013922424987,0.2237048566199839
1739550771140911400,8.346911376953125,-0.6991302656412124,1.0293482353698462,0.22681612050831318
1739550771150980400,8.35698046875,-0.0661053340703249,0.9273121946100145,0.2278789274342358
1739550771161049300,8.36704931640625,0.39655835466384887,0.7589576154205948,0.28714067922011016
1739550771171118600,8.37711865234375,0.7294844873726367,0.5717383594265207,0.2593777891561389
1739550771181188400,8.387188232421876,1.0689029047101735,0.6049423810984939,0.2498774087525904
1739550771191257600,8.397257568359375,1.1913193240672348,0.5169645301770418,0.3788794901102781
1739550771201326300,8.407326416015625,0.9526268878042697,0.34972189428489653,0.39854105291366576
1739550771211395600,8.4173955078125,0.7500029592663049,0.4247194502651691,0.3823404442191124
1739550771221464300,8.42746435546875,0.6401198582679033,0.8143236018769443,0.2985458703316748
1739550771231533600,8.437533447265626,0.3737368665248155,1.0503810865264385,0.1666165764156729
1739550771241603300,8.447603271484375,0.11208791756629943,1.1778113154575227,0.1863886138562113
1739550771251672600,8.457672607421875,-0.0598135404497385,1.379389388204366,0.20079517874084413
1739550771261741300,8.4677412109375,-0.21423428683280943,1.6412978648819028,0.1651261186622083
1739550771271810600,8.477810546875,-0.3200345024317503,1.8908523252904414,0.23818200252279637
1739550771281879600,8.487879638671876,-0.1712105531424284,1.8368759665615855,0.46202151837311684
1739550771291949600,8.497949462890626,0.05695873554050922,1.5671397188678382,0.6302391002446412
1739550771302018300,8.508018310546875,0.2878074725657701,1.3134595568314194,0.7331231361359357
1739550771312087600,8.518087646484375,0.5184013580471277,1.1139935808677226,0.820841824664548
1739550771322156500,8.528156494140624,0.7244996846973896,1.027512398244813,0.9197666015360504
1739550771332225500,8.5382255859375,0.811495831105113,1.0310223791271447,0.9410742510460317
1739550771342295300,8.54829541015625,0.7765227174013852,0.9762396724514663,0.8837204517733305
1739550771352364500,8.558364501953125,0.6342594418019056,0.930387875728309,0.7892679249450564
1739550771362433500,8.56843359375,0.45060500214993954,0.8668651785623281,0.6719433488342911
1739550771372502500,8.57850244140625,0.316114698639512,0.8099363997686654,0.554500699301809
1739550771382571500,8.588571533203124,0.31641689645648,0.773431181126833,0.4207249007362872
1739550771392640300,8.59864013671875,0.4939233348727226,0.7642462233480065,0.2749677186064422
1739550771402710500,8.60871044921875,0.7623153283506632,0.7173153261512517,0.19591719744093716
1739550771412779300,8.618779296875,1.0336585728496313,0.6675745591655373,0.15560491466633974
1739550771422848500,8.6288486328125,1.2257073313593865,0.6296025559067726,0.09261990457363427
1739550771432917200,8.638917236328124,1.310039811515808,0.5918292535578832,0.07482201675027608
1739550771442986500,8.648986572265626,1.2662287268400192,0.5623258399695158,0.04202368980236351
1739550771453056300,8.65905615234375,1.1609276929348706,0.57617491710186,-0.010553177392110228
1739550771463125500,8.66912548828125,1.0693395425617693,0.582672754688561,0.006144713300094008
1739550771473194200,8.6791943359375,0.9634966568648815,0.5926656313167885,0.0293501592554152
1739550771483263500,8.689263427734375,0.825524356457591,0.6006076398298144,0.013399945125356316
1739550771493332500,8.69933251953125,0.7192875030070542,0.6623458647318184,0.0484308534309268
1739550771503402500,8.709402587890626,0.6098872170895338,0.7189592939659952,0.0571840687289834
1739550771513471500,8.719471435546875,0.606322802606225,0.7120841474995017,0.04724573529958725
1739550771523540500,8.72954052734375,0.6986106256812811,0.7015444141108542,-0.0037470775738358496
1739550771533609500,8.739609375,0.7737444848597049,0.6643746671456843,-0.030233810222148893
1739550771543678500,8.749678466796874,0.8837100034445524,0.5655165988348424,0.01786116231791675
1739550771553747500,8.75974755859375,0.9832400527328252,0.39486174334641544,0.06922543885223567
1739550771563817500,8.7698173828125,1.014182888007164,0.2550575513368472,0.07055800263024867
1739550771573886500,8.779886474609375,0.9968863007694482,0.20468374714460222,0.09311112215667962
1739550771583955500,8.78995556640625,0.9157967480570077,0.19435999459419398,0.15806363293007014
1739550771594024400,8.8000244140625,0.8006634714454411,0.15889675928596406,0.18773469470292328
1739550771604093400,8.810093505859374,0.6660358052909374,0.07667407435774802,0.1735613540522754
1739550771614163500,8.82016357421875,0.5444172583132982,-0.06838482330963015,0.20164872683025895
1739550771624232400,8.830232421875,0.5054267256617546,-0.2650027163658291,0.20704948989525437
1739550771634301400,8.840301513671875,0.5605640909940004,-0.4095022631173953,0.2243098367758095
1739550771644370400,8.850370361328125,0.622863603040576,-0.48424507715161885,0.18767244312167167
1739550771654439400,8.860439453125,0.6461889490485191,-0.5877841063529252,0.16106719866022468
1739550771664509400,8.870509521484376,0.6266144800066947,-0.718460112272203,0.16256583972014485
1739550771674578400,8.880578369140625,0.48952889930605886,-0.7781887509174644,0.14177863388769327
1739550771684647700,8.890647705078125,0.2459901920557022,-0.7506191184032708,0.15695654847100377
1739550771694716400,8.90071630859375,0.06808160257935524,-0.7979874571692198,0.26757475881092246
1739550771704785400,8.910785400390624,-0.07303834820389747,-0.9175713565140962,0.3320831790786236
1739550771714855400,8.92085546875,-0.20867723722755907,-0.9193555365171283,0.28604367776364087
1739550771724924700,8.930924560546876,-0.3154682174295187,-0.9202679021216928,0.28624278053231533
1739550771734993400,8.940993408203125,-0.40616438739895816,-0.9101556003648787,0.3008963059153408
1739550771745062400,8.9510625,-0.4605436278402805,-0.9274476575579493,0.3364266881756484
1739550771755131400,8.96113134765625,-0.49033846212327475,-0.9236362095110118,0.3664611764334142
1739550771765200400,8.971200439453124,-0.503835072556138,-0.8857182745270431,0.4078346586987376
1739550771775270400,8.9812705078125,-0.4919458973199129,-0.876245074391365,0.4278722152076661
1739550771785339400,8.99133935546875,-0.5240326419323682,-0.8848103659018873,0.4253005380887538
1739550771795408400,9.001408447265625,-0.6180073951810598,-0.9209817494794725,0.4153659309864044
1739550771805477400,9.011477294921875,-0.6526958467245102,-0.9417489354372024,0.4114106174893677
1739550771815546600,9.021546630859374,-0.610657032418251,-0.8921304796569048,0.380725994759798
1739550771825616400,9.031616455078124,-0.6168371823579073,-0.8324922957740724,0.31413594591245053
1739550771835685400,9.041685302734376,-0.6109422791004181,-0.8233477430708706,0.3004230623804033
1739550771845754400,9.05175439453125,-0.5899070898562669,-0.9048570555653422,0.24333185956664383
1739550771855823600,9.06182373046875,-0.41177287493050097,-1.085444581927359,0.13186675007380544
1739550771865892400,9.071892333984374,-0.07396890705227852,-1.1926376401241867,0.085062474931404
1739550771875962400,9.08196240234375,0.028285598763823507,-1.1893183595083654,0.09162322168648242
1739550771886031400,9.09203125,-0.35035657545924187,-1.0265167382709681,0.10826083355881273
1739550771896100600,9.1021005859375,-0.8492764034450053,-0.8131738473199307,0.2133680253922939
1739550771906169300,9.11216943359375,-1.2571382424116133,-0.6301951149724424,0.17683496889546513
1739550771916234800,9.12223486328125,-1.8245751417845486,-0.31368739842735227,0.09728395086191594
1739550771926304800,9.1323046875,-2.2197587009638546,0.0023777071830816563,0.12678089817687868
1739550771936373800,9.142373779296875,-2.4322891064882275,0.21869422538373617,0.21591982876695692
1739550771946442500,9.1524423828125,-2.733509602856636,0.3889094473458826,0.5717320392835885
1739550771956511700,9.16251171875,-2.9729952353239057,0.812344922215119,0.9231482067983597
1739550771966580700,9.172580810546876,-3.2196728251218794,1.3839246935464442,-0.630422347857058
1739550771976650800,9.182650634765626,-3.2449118957966565,1.1525787475887685,-0.47056996834669257
1739550771986719500,9.192719482421875,-3.382400796601176,0.5405350831177085,0.3444041333282366
1739550771996788700,9.202788818359375,-3.351106079149246,0.6229373989291489,0.46128925857581193
1739550772006857700,9.212857666015625,-2.887410124757886,0.7970710729766637,0.19914405053295195
1739550772016926700,9.2229267578125,-2.0014339299470185,1.2253447816573082,0.42708932120166715
1739550772026995700,9.23299560546875,-1.0720967323154211,1.4310260519392788,0.3818396550901234
1739550772037065700,9.243065673828125,-0.42841772026121616,1.2213893950950354,-0.2083317117255181
1739550772047134700,9.253134765625,0.25163491994440557,0.8052504339095204,-0.35328298429995775
1739550772057203700,9.26320361328125,0.7416390355467796,0.5146830316437409,-0.2801545466598123
1739550772067272700,9.273272705078124,1.1325666908472776,0.35325752106513825,-0.4910223527342081
1739550772077341700,9.283341796875,1.6214549541622398,0.37274201026856896,-0.5954204464502633
1739550772087411700,9.29341162109375,2.077864843198657,0.46139366879835725,-0.33678390411548315
1739550772097480700,9.303480712890625,2.2488982862085103,0.48140744257289914,-0.8345251898411661
1739550772107549700,9.3135498046875,2.3307348578959703,0.359991651625745,-0.931483708140999
1739550772117618700,9.32361865234375,2.272358656772971,0.4571106942495331,-0.7508537308767438
1739550772127687700,9.333687744140626,2.0591554665535687,0.5654497076110914,-0.6971050434239209
1739550772137757700,9.3437578125,1.7420634473145007,0.7419036778323352,-0.8954034369129688
1739550772147826700,9.35382666015625,1.4578443546295166,0.8941278640192002,-0.9322872796088456
1739550772157895700,9.363895751953125,1.0992372526973486,0.92620854421705,-0.7656408925767988
1739550772167964700,9.373964599609375,0.7091817040562629,1.0793404928985983,-0.8359920475233346
1739550772178033700,9.38403369140625,0.3239712573587894,1.319873369396478,-0.7859685911387204
1739550772188103700,9.394103759765626,-0.10593173302412033,1.4619871535226703,-0.7156257656291127
1739550772198173000,9.4041728515625,-0.46092532063424585,1.5078373428106306,-0.6188569977477193
1739550772208241700,9.41424169921875,-0.6390513522535562,1.463912276366353,-0.555236100904271
1739550772218310700,9.424310546875,-0.7047557043075561,1.465519711562991,-0.5107125571101904
1739550772228379600,9.434379638671874,-0.7551625339865684,1.6754469488516448,-0.7348526633422822
1739550772238450000,9.444449951171874,-0.5758791490256786,1.6514831588096917,-0.7052986520778387
1739550772248518700,9.4545185546875,-0.3291711640894413,1.5106281425729393,-0.7654330950450152
1739550772258587600,9.464587646484375,-0.016909049224853513,1.3017914769999681,-0.7909157652173191
1739550772268656600,9.47465673828125,0.36668227183818813,1.0543414415247738,-0.7149444323014468
1739550772278725600,9.4847255859375,0.6794675337940455,0.7136062425002455,-0.6981148049883544
1739550772288795600,9.494795654296874,1.0278355657845735,0.48600328246317803,-0.6465255605917424
1739550772298864600,9.50486474609375,1.3408265794456005,0.3587001870431006,-0.5686483940545469
1739550772308933600,9.51493359375,1.5453069495052099,0.27543277883492406,-0.5306412464171648
1739550772319002600,9.525002685546875,1.709542987459898,0.22255970517285167,-0.41501390267834065
1739550772329071900,9.53507177734375,1.74527247248888,0.039526685354858634,-0.17162760951071976
1739550772339140600,9.545140625,1.594712493187189,0.024205343712866305,-0.2530221365191042
1739550772349210600,9.555210693359374,1.3072539801895617,-0.02412051497362554,-0.014133081705495714
1739550772359279600,9.565279541015625,0.9715250650197267,-0.032184798159450294,0.1325016869764775
1739550772369348900,9.575348876953125,0.5815449197024106,0.05947276418805122,0.18467954491600394
1739550772379417600,9.58541748046875,0.24421967525184152,0.20914825227279216,0.18412256862036883
1739550772389486800,9.59548681640625,0.0852671306580305,0.2717773250672966,0.24435828000493345
1739550772399556600,9.605556640625,-0.01683773755431175,0.2770534753719345,0.23494353205822407
1739550772409625900,9.6156259765625,-0.11669628814458846,0.25392277515325695,0.13888203566335142
1739550772419694600,9.625694580078125,-0.153874218416214,0.21276889045536518,0.0836833685979247
1739550772429763800,9.635763916015625,-0.06542027441561221,0.17704050140492616,0.017922025659680367
1739550772439832600,9.64583251953125,0.19583353774547577,0.028639124909229575,0.0484632943958044
1739550772449902800,9.65590283203125,0.4438128577917814,-0.12994199255630373,-0.09571655541472136
1739550772459971600,9.6659716796875,0.5960188507348299,-0.31679376694485545,-0.12243161692619323
1739550772470040800,9.676040771484375,0.7318178987562656,-0.4601201417312026,-0.1634483216430992
1739550772480109600,9.686109619140625,0.7906786685258149,-0.4762704450106248,-0.2556944244682789
1739550772490178600,9.696178466796875,0.7668447884738445,-0.47635308179277924,-0.27442601294517516
1739550772500248600,9.70624853515625,0.6845733325004577,-0.5161571227842942,-0.343172216913104
1739550772510317800,9.71631787109375,0.5729699835807085,-0.5152290481539443,-0.40697015082389115
1739550772520386800,9.72638671875,0.44432314540147777,-0.5131707639172673,-0.45627033443525433
1739550772530455600,9.73645556640625,0.30689035869836806,-0.5284218168020248,-0.4634538892637938
1739550772540524800,9.74652490234375,0.19657354245781897,-0.4637355922820046,-0.45630153329111633
1739550772550594800,9.7565947265625,0.20266601411402224,-0.4582464568138122,-0.44502201438583433
1739550772560663800,9.766663818359374,0.16465572467148304,-0.4776070639092475,-0.46610820316486057
1739550772570732500,9.776732666015626,0.14344108720719814,-0.5248572561882436,-0.47933885613791644
1739550772580801800,9.7868017578125,0.15544365969002247,-0.5853964440314099,-0.4653960363075137
1739550772590870500,9.79687060546875,0.10888882926404475,-0.6042418681463226,-0.4450109815351665
1739550772600940800,9.80694091796875,0.07783785744011401,-0.6316083427712321,-0.4123145075265318
1739550772611009500,9.817009521484374,0.026239772149920463,-0.6781932760745286,-0.39141463509984314
1739550772621078800,9.827078857421874,-0.049556934851408004,-0.7082623972542583,-0.4219368338093161
1739550772631147500,9.8371474609375,-0.11758242332935333,-0.7238008887782692,-0.43601058654300867
1739550772641216800,9.847216796875,-0.1646475413650274,-0.7493980521757155,-0.4237470250364393
1739550772651285800,9.85728564453125,-0.15051497111618517,-0.815811356216669,-0.37628487050719556
1739550772661355800,9.867355712890625,-0.15323124433755875,-0.8927691428866237,-0.3467442301809788
1739550772671424500,9.877424560546874,-0.13997954857647418,-0.9247875715032219,-0.36201756796278056
1739550772681493800,9.88749365234375,-0.16055822622478008,-0.9217604787670075,-0.31899449185952544
1739550772691562800,9.897562744140625,-0.2798708343476057,-0.9281573401972651,-0.27761706407144665
1739550772701631700,9.9076318359375,-0.36078444597125053,-0.9386047921925783,-0.3393840766765177
1739550772711701500,9.917701416015625,-0.4780021276414394,-0.954304027236253,-0.3924743732858449
1739550772721770800,9.927770751953124,-0.5771785411864518,-0.8248236608423292,-0.42129583249203856
1739550772731839700,9.93783984375,-0.6716244190782308,-0.8435741001501679,-0.43234687640368935
1739550772741908700,9.94790869140625,-0.7807049715220927,-1.0624842698395252,-0.5457694766398519
1739550772751977700,9.957977783203125,-0.8027250801503658,-1.2225600463096051,-0.5939275775440037
1739550772762047700,9.9680478515625,-0.985836498966813,-1.267412237536162,-0.5167525679267942
1739550772772116700,9.97811669921875,-1.241935412582755,-1.0618491868063806,-0.34006628678701817
1739550772782185700,9.988185791015624,-1.6204957537412643,-0.8416627135708927,-0.13106076745316386
1739550772792254700,9.998254638671876,-2.1688702252477405,-0.6169008952438831,-0.11642185511738061
1739550772802323500,10.008323486328125,-2.666881706216931,-0.44258653086721894,-0.1402003517203033
1739550772812393700,10.018393798828125,-3.0142198106378317,-0.1653981405366212,-0.15214505653604865
1739550772822462700,10.028462646484375,-3.2227982636660335,0.05785941070728003,-0.3654149553161114
1739550772832531700,10.03853173828125,-3.2369594754874704,0.3061436137179844,-0.2823138435855508
1739550772842600700,10.0486005859375,-3.167065270528197,0.5669452433984726,-0.23024945595785973
1739550772852669700,10.058669677734375,-2.9500241095811126,0.8001229348279535,-0.3482964280590415
1739550772862739700,10.06873974609375,-2.5070617311388252,0.8957292348012328,-0.4633122888360172
1739550772872808700,10.07880859375,-1.9738965192019937,0.8807027844525873,-0.574293048878014
1739550772882877700,10.088877685546874,-1.3433996448040009,0.8094216551795601,-0.5444607321288436
1739550772892946700,10.09894677734375,-0.7739911530971527,0.7443048937551677,-0.5403796002950519
1739550772903015700,10.109015625,-0.22211597999334334,0.8244377302646636,-0.38113662138730287
1739550772913086000,10.1190859375,0.2260913133651018,0.9139410371877252,-0.23701120517775415
1739550772923155000,10.129155029296875,0.5627081172853708,0.8463459760162979,-0.1999105779260397
1739550772933224000,10.139223876953125,0.9932429758310317,0.7150864711206406,-0.09439166348651051
1739550772943293200,10.149293212890624,1.3535165496706962,0.5435270314753056,-0.027933058999106287
1739550772953362000,10.15936181640625,1.599696126818657,0.4308084147900343,0.060717576617375014
1739550772963431000,10.169430908203125,1.6333417913109063,0.4326834148816764,0.18283632820211349
1739550772973501000,10.1795009765625,1.5342232454329727,0.500127450209856,0.3262824569106102
1739550772983570200,10.189570068359375,1.4820704488694667,0.5770454163260758,0.46740554949901997
1739550772993639000,10.199638916015624,1.2464403227865695,0.6179359373800456,0.540596238720417
1739550773003708000,10.2097080078125,0.7932365363150835,0.8400052286874502,0.47969344172924755
1739550773013777000,10.21977685546875,0.31877661132514473,1.146593608764559,0.4393148157201707
1739550773023847200,10.22984716796875,-0.09827274270355701,1.394279206561297,0.4113766421545297
1739550773033916000,10.239916015625,-0.41440497699975964,1.6284668787509202,0.3315847280371934
1739550773043985000,10.24998486328125,-0.6076198566794395,1.7803908398821948,0.2690321910776198
1739550773054054100,10.26005419921875,-0.5431313101559877,1.8194301801115274,0.2585611390110105
1739550773064123000,10.270122802734376,-0.26040625542104245,1.7883382917553186,0.2843077208165079
1739550773074193000,10.28019287109375,0.2356149285137653,1.64442228051275,0.4065357779946178
1739550773084262000,10.290261962890625,0.7021136653661727,1.4739245518147945,0.535562993793562
1739550773094331100,10.3003310546875,1.0300666858375072,1.3295698568940162,0.5605957282412797
1739550773104400000,10.31039990234375,1.1862637942433356,1.2086079471942037,0.6236393366534263
1739550773114469000,10.32046923828125,1.1429881316184998,1.1092105113096535,0.6890205211676657
1739550773124539000,10.330538818359376,0.9626017538517713,0.9420926343083381,0.7559485697977244
1739550773134608100,10.340608154296875,0.7275713472276926,0.8281233599748462,0.8145284037340432
1739550773144676900,10.3506767578125,0.5786158805131912,0.7981449127532542,0.7923055390752851
1739550773154746000,10.36074609375,0.5209107105195522,0.8198841586135327,0.7100807717878371
1739550773164814800,10.37081494140625,0.5647931068658828,0.783568763455376,0.6242719354685395
1739550773174885000,10.380885009765626,0.6488876866132021,0.7025920965328812,0.5034384744539857
1739550773184953900,10.390953857421875,0.8129623965263366,0.640889162139967,0.36625849346816536
1739550773195023000,10.401023193359375,1.0642916115224361,0.5712990546938032,0.22750103403255342
1739550773205091800,10.411091796875,1.2699720050215721,0.463332308710739,0.14294336681813
1739550773215161000,10.4211611328125,1.3937012605428696,0.3408755573432892,0.07198781623765826
1739550773225230000,10.43122998046875,1.4293378065913915,0.2740112946644425,0.0011292232256382704
1739550773235300000,10.441300048828126,1.3834271192878485,0.2320381660055369,-0.08173639924861491
1739550773245368800,10.451368896484375,1.310758188918233,0.20505378603339194,-0.13240757895223795
1739550773255438000,10.46143798828125,1.1958628127157687,0.18627192867398262,-0.18109978673309088
1739550773265507000,10.471507080078124,1.0263169779151677,0.17211751191951333,-0.21891214245073495
1739550773275575800,10.481575927734376,0.7904150491535663,0.131119731098786,-0.20623941562138495
1739550773285646000,10.49164599609375,0.607234656754136,0.08748298007659613,-0.14652166369631886
1739550773295715000,10.501715087890625,0.4580003730982542,0.04474273950271308,-0.13983297971263528
1739550773305784000,10.5117841796875,0.3745347389042377,0.01364584617782384,-0.1406649004921317
1739550773315852800,10.521852783203125,0.3089712566256523,0.01200260901544243,-0.13593816423118113
1739550773325922000,10.531922119140624,0.13546645506620406,0.04062196977827698,-0.13875417149998248
1739550773335992000,10.541991943359376,-0.08520926299095154,0.05831939290184527,-0.08204276178404689
1739550773346061000,10.55206103515625,-0.23879063594043254,0.04639766710288822,0.056927171358466144
1739550773356129800,10.5621298828125,-0.35397242786884303,0.06346599854268133,0.15588241643346845
1739550773366199000,10.572198974609375,-0.3856692963808775,0.05857672866377979,0.20187471760585904
1739550773376268000,10.58226806640625,-0.4196954846233129,0.01165953119881451,0.25925306679792703
1739550773386338000,10.592338134765624,-0.42809389513432977,-0.043729726535268125,0.2744973246157169
1739550773396406800,10.60240673828125,-0.32704701154232024,-0.1074370595531538,0.2646167127229273
1739550773406476000,10.61247607421875,-0.18875263957381247,-0.22107019726745783,0.2631436444956809
1739550773416545000,10.622544921875,0.0745791479051113,-0.3189375375078991,0.2804557215634733
1739550773426614000,10.632614013671875,0.273424726948142,-0.3668704878866672,0.2824772174537182
1739550773436683800,10.642683837890624,0.39990474248230456,-0.4426029705453664,0.3061697893388569
1739550773446753000,10.6527529296875,0.5064812031507492,-0.532938417443633,0.30761041660122573
1739550773456822000,10.662822021484375,0.5283265397340059,-0.6190984052881598,0.26798487398177384
1739550773466891000,10.67289111328125,0.5611468593180179,-0.6918557445935904,0.21782113234363495
1739550773476960000,10.6829599609375,0.6385176837682723,-0.7151390050254762,0.16967925192192196
1739550773487029000,10.693029052734374,0.6944786404430866,-0.7565230086848139,0.13800108811035752
1739550773497099000,10.70309912109375,0.6765688897430896,-0.7770419920351356,0.16288849580325185
1739550773507168000,10.71316796875,0.6123001234501599,-0.7814965602912008,0.18976437389962375
1739550773517237000,10.723237060546875,0.5056505975455046,-0.831897837012261,0.20845373066999018
1739550773527306000,10.733305908203125,0.3749795600622892,-0.8590271053478121,0.1784131779976189
1739550773537375000,10.743375,0.2684802562832832,-0.8275237866465002,0.1784934766922146
1739550773547445000,10.753445068359374,0.19770400779247282,-0.8182602837387472,0.1726749266065657
1739550773557514000,10.763513916015626,0.14778993006646632,-0.8660380070231855,0.10292385644502937
1739550773567583000,10.7735830078125,0.12691548434197902,-0.8375384732477367,0.17221235059611498
1739550773577652000,10.78365185546875,0.05873217495381832,-0.7996995217841119,0.21793262989409268
1739550773587721200,10.79372119140625,-0.07130757888853549,-0.7885142570335417,0.22552030854411423
1739550773597791000,10.803791015625,-0.15962123763561248,-0.8306876575049013,0.25154526889957485
1739550773607860000,10.81385986328125,-0.24836744258105753,-0.7987906633108853,0.2578552557639778
1739550773617929000,10.823928955078125,-0.418680754622817,-0.8048854730546474,0.22010295967049895
1739550773627998000,10.833998046875,-0.5257394458502531,-1.0179022738564758,0.16075879029817877
1739550773638067000,10.84406689453125,-0.4419494020074606,-1.2043038202594964,0.10597666814438998
1739550773648136000,10.854135986328124,-0.41380993371605873,-1.1916136308386922,0.17000950678959487
1739550773658206000,10.8642060546875,-0.6564081452459096,-1.042220503359288,0.23113040351085362
1739550773668275000,10.87427490234375,-1.0809440556377172,-0.7945432349994778,0.23573782424107192
1739550773678344000,10.884343994140625,-1.577498323535919,-0.525872497645393,0.14934673105441032
1739550773688413000,10.894412841796875,-2.058841578298807,-0.3652298445401713,0.13824717182591556
1739550773698482000,10.90448193359375,-2.4448154105842113,-0.2530739763041958,0.09378931367918848
1739550773708552000,10.914552001953124,-2.710855287978053,0.03367565777171403,0.14831125052683056
1739550773718621000,10.924620849609376,-2.9421903472155333,0.5083534632960334,0.23095044383406638
1739550773728690000,10.93468994140625,-3.1398727276980876,0.9437846790485084,0.22528642672300336
1739550773738759200,10.94475927734375,-3.2173768231391904,1.2526692803040147,0.11111903600152581
1739550773748828000,10.954827880859375,-3.133033237066865,1.4779222431488335,-0.03074409783184528
1739550773758898000,10.96489794921875,-2.8364626123309136,1.5966624582111835,-0.06822627174705266
1739550773768967000,10.974966796875,-2.260391155603528,1.6392068839520215,0.0057340866725891825
1739550773779036200,10.9850361328125,-1.5270786343753338,1.6039900246202945,0.08895546378195285
1739550773789105000,10.99510498046875,-0.8284352754682301,1.5448120055951178,0.13559402696862816
1739550773799174100,11.005174072265625,-0.20989713441133498,1.4168467199392616,0.19014533604122696
1739550773809243000,11.015242919921874,0.28933658182919025,1.3165686287626623,0.16772146891765297
1739550773819313200,11.025313232421874,0.8217711414039135,1.2412765102826058,-0.03916135917380452
1739550773829382000,11.0353818359375,1.3529215063869953,1.1109607159778474,-0.23210414391383527
1739550773839451100,11.045451171875,1.798673223286867,0.9520051026441156,-0.3858506442971527
1739550773849519900,11.055519775390625,2.092071647727489,0.8553492205526679,-0.5015337368112057
1739550773859589000,11.065589111328125,2.21708217523098,0.8333972087245434,-0.5593751734703779
1739550773869659000,11.075658935546874,2.1902713251948356,0.8867145190227776,-0.5654033477187156
1739550773879728000,11.08572802734375,1.926049310877919,1.0674973487611858,-0.5595825326107442
1739550773889796900,11.095796875,1.4578040226191282,1.2396284508146345,-0.5647688492074608
1739550773899866000,11.1058662109375,0.9053273764908313,1.3335568807035685,-0.584801071954146
1739550773909934800,11.115934814453125,0.4612953229904175,1.425006207127869,-0.5760556015711278
1739550773920003800,11.12600390625,0.30624153940081594,1.528758550286293,-0.5596488758452236
1739550773930073900,11.136073974609374,0.24901158570349216,1.6083433975242076,-0.5221154831994325
1739550773940142800,11.146142822265626,0.2710246800690889,1.686410095284134,-0.3642584056921303
1739550773950211800,11.1562119140625,0.4123801931738853,1.6919997319847344,-0.20452976215928792
1739550773960280800,11.16628076171875,0.5703320362925529,1.5965443847894667,-0.14155169326402245
1739550773970349800,11.176349853515624,0.646194794267416,1.4363183131285011,-0.15094422937892377
1739550773980419800,11.186419921875,0.6580985825508833,1.2502270017184316,-0.15258702814988792
1739550773990488800,11.19648876953125,0.7139490645885467,0.9797625128153711,-0.13051402029059828
1739550774000557800,11.206557861328125,0.8551496793925761,0.7472504456877708,-0.14012706728838384
1739550774010626800,11.216626708984375,1.025647115829587,0.5639868319842964,-0.1681141214970499
1739550774020695800,11.22669580078125,1.1640326732128858,0.4138216972190886,-0.13736761251240967
1739550774030765800,11.236765869140624,1.257131228148937,0.2765035681379028,-0.17222747510001063
1739550774040834800,11.246834716796876,1.2841139276206492,0.16004539959812536,-0.23682642319537697
1739550774050903800,11.25690380859375,1.2023486676037312,0.10018710669120773,-0.26656324368081985
1739550774060973000,11.26697314453125,1.0554214918464422,0.09623066068300977,-0.27015403471440075
1739550774071041800,11.277041748046875,0.8551216223418712,0.056021125896833834,-0.2555636376954615
1739550774081110800,11.28711083984375,0.6320610549747944,0.05175073683494702,-0.23491627872511744
1739550774091180800,11.297180908203124,0.4006213663190603,0.04915795299592428,-0.20345636077411472
1739550774101250000,11.30725,0.1865811407536268,0.04952633878374472,-0.18162205704152584
1739550774111318800,11.31731884765625,-0.006913140389323234,0.04432826781715266,-0.2263640658918768
1739550774121387800,11.3273876953125,-0.12119243052005767,0.008946856440324336,-0.20876798425093293
1739550774131456800,11.337456787109375,-0.22539339422881602,-0.044867945918114854,-0.19068214633166788
1739550774141527000,11.347527099609374,-0.3439285882383585,-0.09097122405115514,-0.1796675619728863
1739550774151595800,11.357595703125,-0.44337563541829583,-0.11965671798591501,-0.13841975191384553
1739550774161664800,11.367664794921875,-0.5654781665205956,-0.14680796982441097,-0.146126965290308
1739550774171733800,11.377733642578125,-0.6847860984683036,-0.16413562805382534,-0.16444851166158914
1739550774181802800,11.387802734375,-0.7475958981245756,-0.1593278441796079,-0.24515016103498635
1739550774191872000,11.3978720703125,-0.7772738280296325,-0.1336828047861345,-0.33723668938428164
1739550774201941800,11.407941650390624,-0.7985457486391067,-0.18777911836653946,-0.3401900592971593
1739550774212010800,11.4180107421875,-0.8026771493554115,-0.2401609013803303,-0.34354704157486554
1739550774222079700,11.428079833984375,-0.7812982612401247,-0.29434586135856805,-0.37389476050026715
1739550774232149000,11.43814892578125,-0.6477753414571285,-0.3872709594238549,-0.4070283838171512
1739550774242217700,11.4482177734375,-0.4874614453822374,-0.4786262874217704,-0.4220370793133974
1739550774252287000,11.458286865234374,-0.2645563608378172,-0.4971241036754101,-0.46396300782971084
1739550774262356700,11.468356689453126,-0.02304828263223171,-0.5120800460711121,-0.4596225674726069
1739550774272426000,11.478426025390625,0.12440788543522358,-0.5596325822975486,-0.4632136507671326
1739550774282494700,11.48849462890625,0.2244061367571354,-0.6725046359788626,-0.44587337051816284
1739550774292564000,11.49856396484375,0.3087532299607992,-0.7114935611952096,-0.4555616747092455
1739550774302632700,11.5086328125,0.3963479267835617,-0.7594125926464795,-0.4685400334216654
1739550774312703000,11.518702880859376,0.4855144029676914,-0.8211511098094284,-0.4484157484773546
1739550774322771700,11.528771728515625,0.5127671515524387,-0.8916551172301173,-0.41703970941752194
1739550774332841000,11.538841064453125,0.4800742577403784,-0.9499305613923817,-0.3706352472476661
1739550774342909700,11.54890966796875,0.38467794725596904,-0.9394640393704176,-0.32677900825589895
1739550774352978700,11.558978759765624,0.2012877114981413,-0.9049692107029259,-0.30434951510913666
1739550774363048700,11.569048583984374,-0.07171791325509548,-0.8811915908828377,-0.2529454910863191
1739550774373118000,11.579117919921876,-0.33499767828583715,-0.8707769451785832,-0.20719379373677074
1739550774383187000,11.58918701171875,-0.48989071835577486,-0.8297409512393176,-0.19140856091007588
1739550774393255700,11.599255615234375,-0.5498743546754121,-0.7965490218639373,-0.19225553312823176
1739550774403325000,11.609324951171875,-0.5654547856450081,-0.7897581196147948,-0.1836288668192923
1739550774413393700,11.6193935546875,-0.5718979704350233,-0.8050310190051794,-0.14370499884039162
1739550774423464000,11.6294638671875,-0.5753051485300064,-0.8069864639218897,-0.12467479274310171
1739550774433532700,11.63953271484375,-0.6014747780531644,-0.8068279123593122,-0.15859021408744156
1739550774443602000,11.649601806640625,-0.6229740776777267,-0.7763220802627503,-0.23291202623061835
1739550774453670700,11.659670654296875,-0.667245181080699,-0.6906669732004403,-0.31129451194144786
1739550774463740000,11.669739990234374,-0.7721154223531485,-0.5525340388713404,-0.315945552617684
1739550774473808600,11.67980859375,-0.9434440489172935,-0.5068118233446032,-0.3229252554371953
1739550774483879000,11.68987890625,-1.0083645571172237,-0.7326585873641073,-0.47338491616956885
1739550774493947600,11.69994775390625,-0.754857413560152,-1.0147345305405557,-0.5386594985041767
1739550774504017000,11.710016845703125,-0.4526917452961206,-1.0901889999754726,-0.4823089579898864
1739550774514086000,11.7200859375,-0.5560697021842003,-0.9799396960131823,-0.42582412357144056
1739550774524155000,11.73015478515625,-0.7607382882922887,-0.8229355820734053,-0.17075258024185894
1739550774534224600,11.740224609375,-0.9763707514852284,-0.6208575239151716,-0.09036912997215986
1739550774544294000,11.7502939453125,-1.3094026826560496,-0.3760199359606951,-0.009646437810733913
1739550774554363000,11.76036279296875,-1.7592068898171185,-0.04561910221213475,0.01766848929002881
1739550774564432000,11.770431884765625,-2.240437331855297,0.4070414624944329,-0.009339563818648457
1739550774574500900,11.7805009765625,-2.7991496575027703,0.8789470268264412,-0.06863777515739201
1739550774584569900,11.79056982421875,-3.1793536742150783,1.260406596557796,-0.1149088932711631
1739550774594640000,11.800639892578126,-3.328410263216495,1.4879276504650711,-0.2175697879310697
1739550774604708900,11.810708984375,-3.1564076829135415,1.5102708535678684,-0.3571619446251541
1739550774614777900,11.82077783203125,-2.511629185184836,1.3246784315906464,-0.42055297823548315
1739550774624846800,11.830846923828124,-1.5065812052696943,1.1669389891136437,-0.41552901259362696
1739550774634915800,11.840915771484376,-0.46666883272230625,1.1621662948191165,-0.41211445490978654
1739550774644984800,11.85098486328125,0.4309504536092281,1.1662575096555055,-0.43804172704443334
1739550774655054800,11.861054931640625,1.1455927611589432,1.0326078216876835,-0.36266806776076554
1739550774665123800,11.871123779296875,1.6356155814617872,0.8568116943206637,-0.28534415119215845
1739550774675192800,11.88119287109375,2.00327809650898,0.6995496600970625,-0.2568852416880429
1739550774685261800,11.89126171875,2.2927625623762604,0.5653502292919904,-0.23562362327687442
1739550774695330800,11.901330810546876,2.4441829578995704,0.39277920145131645,-0.15003200990483165
1739550774705400800,11.91140087890625,2.3904811783283946,0.16989731511939316,-0.187728703353554
1739550774715469800,11.9214697265625,2.4362001424521207,0.19593853248991072,-0.09507913429401814
1739550774725538800,11.931538818359375,2.342104393172264,0.4081128545856103,0.07036554879806936
1739550774735607800,11.94160791015625,1.8587182344049213,0.6096663408804684,0.2397711714103818
1739550774745676800,11.9516767578125,1.1917717440098523,0.8062683057151734,0.40257067375592887
1739550774755745800,11.961745849609375,0.5862947445780039,0.8287327971100806,0.5048251795720309
1739550774765815800,11.97181591796875,0.09191840524077415,1.1648568490773439,0.512034234168008
1739550774775884800,11.981884765625,-0.31186171737015245,1.6664979187205433,0.519158021633327
1739550774785953800,11.991953857421874,-0.793459239155054,2.018207808484882,0.4601807858772576
1739550774796022800,12.002022705078126,-1.383586109241843,2.250623356435448,0.44080834221355614
1739550774806091800,12.012091796875,-1.7854098370879887,2.3249488218404353,0.5818087582703679
1739550774816161000,12.0221611328125,-1.763271655037999,2.107966259212792,0.8059291368886828
1739550774826230800,12.032230712890625,-1.3287614631205797,1.7769864382661877,1.0376991534773259
1739550774836299800,12.0422998046875,-0.790024004009366,1.5830568344458937,1.1404459728550165
1739550774846368800,12.05236865234375,-0.2593096923559904,1.439323047902435,1.1428785337641834
1739550774856438000,12.06243798828125,0.1722819817662239,1.2540915681920946,1.1371388941336422
1739550774866506800,12.0725068359375,0.4254956953346729,1.093234432085976,1.070400961248204
1739550774876577000,12.082576904296875,0.5767074165433644,0.8908250230815261,1.0288204121034592
1739550774886645800,12.092645751953125,0.7913333330422639,0.6968075217820704,0.9190844644907862
1739550774896715000,12.102715087890624,1.0033651413947344,0.5050033856831491,0.7331126878071575
1739550774906783700,12.11278369140625,1.1272270833849907,0.4088683125954121,0.5446862114477903
1739550774916853800,12.122853759765626,1.293074063667655,0.358061962204799,0.34945531577058137
1739550774926922500,12.132922607421875,1.4812953728437424,0.32196751632094384,0.21121683870777486
1739550774936992800,12.14299267578125,1.6375193692564964,0.3221921188570559,0.05927855679020285
1739550774947061500,12.1530615234375,1.7447388040035963,0.26324761632680893,-0.04581058792993426
1739550774957130800,12.163130859375,1.76388540302217,0.21277466260902583,-0.12650281188786028
1739550774967199500,12.173199462890626,1.7188222724586724,0.20880334782525894,-0.1636428943671286
1739550774977268500,12.1832685546875,1.5490034659355878,0.21865082463342694,-0.2075432647615671
1739550774987337500,12.19333740234375,1.2564976064205169,0.2968837092731148,-0.22489757353588938
1739550774997407700,12.20340771484375,0.9672218148678541,0.33246761181894685,-0.18898542541638017
1739550775007476500,12.2134765625,0.7080635136812925,0.33318076505698263,-0.14913601091317832
1739550775017545500,12.22354541015625,0.5437240153521299,0.33462223256956786,-0.07846775284148752
1739550775027614700,12.23361474609375,0.40227439422309397,0.36161914322972294,-0.07184351239614188
1739550775037683500,12.243683349609375,0.28709669394791126,0.3964560998657718,-0.024992694698274136
1739550775047752700,12.253752685546875,0.22973230021595953,0.40218898096196354,0.04465075037032366
1739550775057822500,12.263822509765625,0.2205044531434774,0.3748686470337212,0.08233188092373311
1739550775067891700,12.2738916015625,0.17346388502717017,0.34183705931920555,0.12034290101863443
1739550775077960400,12.28396044921875,0.09842647196054458,0.33637736914120614,0.14887589867226778
1739550775088029700,12.29402978515625,0.04967325470745563,0.3138146415362134,0.1767173338651657
1739550775098098400,12.304098388671875,0.006287701967358589,0.2555949826817959,0.19924553814604878
1739550775108167700,12.314167724609375,0.010345452925562859,0.13672149662859737,0.17556589880771933
1739550775118237400,12.324237548828124,0.11230068353414535,-0.01701957866093144,0.12541428599879145
1739550775128306700,12.334306640625,0.2795738972276449,-0.1251674716308713,0.09234320652410387
1739550775138375400,12.34437548828125,0.4841881227999925,-0.21006001508915795,0.07339644092656672
1739550775148444700,12.354444580078125,0.645530777400732,-0.31521201417874545,0.0692472853578627
1739550775158513700,12.364513671875,0.7228805590629577,-0.441225910038501,0.06801496708393097
1739550775168582700,12.374582763671874,0.7181196282714605,-0.5507399585288018,0.07691643174625933
1739550775178652400,12.38465234375,0.6468371838241815,-0.6337567529767751,0.12023439914286135
1739550775188721700,12.3947216796875,0.6218401052117347,-0.6523118889082222,0.1705200135949999
1739550775198790700,12.404790771484375,0.5559118812739848,-0.7262647946737706,0.18880130102112888
1739550775208859600,12.414859619140625,0.4579612101316452,-0.6968277608525008,0.13403130769655108
1739550775218928600,12.4249287109375,0.4065343897551298,-0.8756537574347109,0.16444931537918744
1739550775228997400,12.434997314453126,0.21233692877888677,-0.9675590839982032,0.18934256829097865
1739550775239067600,12.445067626953126,0.1402531048208475,-0.9464374585796147,0.24745208130180835
1739550775249136600,12.45513671875,0.09233166221678256,-0.9442878793302922,0.34922662158124146
1739550775259205600,12.46520556640625,-0.0019178163200616835,-0.9905712724037468,0.4090174387425184
