time,seconds_elapsed,z,y,x
1739550762854045700,0.060045654296875,0.019398536533117294,0.15416312217712402,-0.05386114865541458
1739550762864114400,0.070114501953125,0.014959312975406647,0.11149022728204727,-0.03865610063076019
1739550762874183700,0.08018359375,0.020997265353798866,0.062017954885959625,-0.03134902939200401
1739550762884252700,0.090252685546875,0.028085803613066673,0.027899933978915215,-0.03500501438975334
1739550762894321700,0.10032177734375,0.028536979109048843,0.006826299242675304,-0.052707575261592865
1739550762904389600,0.1103896484375,0.03301055729389191,-0.00031097279861569405,-0.0680638924241066
1739550762914458600,0.120458740234375,0.04358755424618721,0.012330072931945324,-0.07651323825120926
1739550762924527600,0.130527587890625,0.048258740454912186,0.00906423944979906,-0.06994162499904633
1739550762934596600,0.1405966796875,0.05345849320292473,-0.017825065180659294,-0.04308168217539787
1739550762944665600,0.15066552734375,0.056922730058431625,-0.03156165033578873,-0.002540913410484791
1739550762954734600,0.160734619140625,0.05951119586825371,-0.01866070181131363,0.02930070087313652
1739550762964803600,0.170803466796875,0.05755723640322685,0.0011244555935263634,0.0426575168967247
1739550762974872600,0.18087255859375,0.0537397637963295,0.026964418590068817,0.043778833001852036
1739550762984941600,0.190941650390625,0.053888365626335144,0.040495406836271286,0.042204372584819794
1739550762995009500,0.201009521484375,0.05526484176516533,0.04449167102575302,0.03630805015563965
1739550763005078500,0.21107861328125,0.05310741439461708,0.06044480949640274,0.0292179174721241
1739550763015147800,0.221147705078125,0.051245734095573425,0.06928582489490509,0.020298071205615997
1739550763025216500,0.231216552734375,0.05013200268149376,0.07673041522502899,0.02163071744143963
1739550763035285500,0.241285400390625,0.048436928540468216,0.06763624399900436,0.021494075655937195
1739550763045354500,0.2513544921875,0.04360542446374893,0.044138647615909576,0.018920131027698517
1739550763055423500,0.261423583984375,0.03774232417345047,0.021869581192731857,0.009538876824080944
1739550763065492700,0.27149267578125,0.032778725028038025,-0.0028762458823621273,-0.00045543350279331207
1739550763075561500,0.2815615234375,0.02822781167924404,-0.018671877682209015,-0.016823895275592804
1739550763085629400,0.29162939453125,0.019394639879465103,-0.028609463945031166,-0.015793517231941223
1739550763095698700,0.30169873046875,0.015362223610281944,-0.03051968477666378,0.004070795141160488
1739550763105767400,0.311767333984375,0.009232426062226295,-0.016182290390133858,0.01663345843553543
1739550763115836700,0.321836669921875,0.0032279216684401035,-0.005108665209263563,0.022642288357019424
1739550763125905400,0.331905517578125,0.00037594279274344444,-0.004869779571890831,0.030466122552752495
1739550763135974700,0.341974609375,0.002490829210728407,-0.01709086075425148,0.02343740500509739
1739550763146043600,0.352043701171875,-0.0022021932527422905,-0.02316632866859436,0.018193375319242477
1739550763156112600,0.362112548828125,-0.004402371123433113,-0.007195150479674339,0.0137836504727602
1739550763166181600,0.372181640625,-0.003418067004531622,0.028196662664413452,0.011048052459955215
1739550763176250400,0.38225048828125,0.0023801675997674465,0.05828159302473068,0.01865670271217823
1739550763186318600,0.392318603515625,0.004985538311302662,0.049277711659669876,0.03238663077354431
1739550763196387600,0.4023876953125,0.00826091505587101,0.04070700705051422,0.04205087572336197
1739550763206456600,0.41245654296875,0.007331205997616053,0.05283637344837189,0.04393426328897476
1739550763216525600,0.422525634765625,0.008184904232621193,0.04105101153254509,0.03769652545452118
1739550763226594600,0.432594482421875,0.012529319152235985,0.019007232040166855,0.03120533376932144
1739550763236663600,0.44266357421875,0.013061880134046078,-0.00009925151243805885,0.03331466019153595
1739550763246732500,0.452732666015625,0.005424201488494873,-0.010804359801113605,0.03995951637625694
1739550763256801500,0.462801513671875,0.0059945243410766125,-0.02327481284737587,0.04533037170767784
1739550763266870500,0.47287060546875,0.0033705118112266064,-0.009657803922891617,0.04551466554403305
1739550763276939500,0.482939453125,0.003515946213155985,0.014997784048318863,0.04846683889627457
1739550763287007500,0.493007568359375,0.0030435011722147465,0.02027031034231186,0.03847572207450867
1739550763297076500,0.503076416015625,0.00333990016952157,0.03179708868265152,0.030909745022654533
1739550763307145500,0.5131455078125,0.0033034146763384342,0.024501360952854156,0.023346100002527237
1739550763317214500,0.52321435546875,0.00516457250341773,0.006763174664229155,0.021982889622449875
1739550763327283700,0.53328369140625,0.002108328975737095,-0.01437300257384777,0.020168744027614594
1739550763337352400,0.5433525390625,0.0008645029738545418,-0.015253860503435135,0.014267324469983578
1739550763347421700,0.553421630859375,-0.0017757548484951258,-0.01745309866964817,0.01664765737950802
1739550763357490400,0.563490478515625,-0.0057427287101745605,-0.009182220324873924,0.016389761120080948
1739550763367559700,0.5735595703125,-0.0036127325147390366,0.0007218094542622566,0.01454072818160057
1739550763377628700,0.583628662109375,-0.01187439076602459,0.001950858160853386,0.014980683103203773
1739550763387696400,0.5936962890625,-0.012915154919028282,0.01780518889427185,0.011330287903547287
1739550763397765600,0.603765625,-0.010376827791333199,0.025639625266194344,0.00033034849911928177
1739550763407834600,0.613834716796875,-0.007392755709588528,0.019629936665296555,-0.00849376991391182
1739550763417903600,0.623903564453125,-0.0007665157318115234,0.02727825939655304,-0.01341744139790535
1739550763427972600,0.63397265625,-0.0002639768645167351,0.051075469702482224,-0.015190575271844864
1739550763438041600,0.64404150390625,0.0005753985606133938,0.07110341638326645,-0.010193013586103916
1739550763448110600,0.654110595703125,-0.003301098709926009,0.0608406588435173,0.003383781760931015
1739550763458179600,0.6641796875,-0.009702539071440697,0.03158450871706009,0.00407540425658226
1739550763468248600,0.67424853515625,-0.01345226913690567,-0.01595478504896164,0.0034647416323423386
1739550763478317600,0.684317626953125,-0.017108257859945297,-0.04362502694129944,-0.003442700020968914
1739550763488386600,0.694386474609375,-0.015299437567591667,-0.04346071183681488,-0.016995258629322052
1739550763498454500,0.70445458984375,-0.00822136178612709,-0.026263728737831116,-0.031031526625156403
1739550763508523500,0.7145234375,-0.007707105949521065,-0.0042569637298583984,-0.03340786695480347
1739550763518592500,0.724592529296875,-0.0018199482001364231,0.008478496223688126,-0.03200577199459076
1739550763528661500,0.73466162109375,0.002387579996138811,0.01484877709299326,-0.031079260632395744
1739550763538730500,0.74473046875,0.004270546138286591,0.01727951690554619,-0.020774342119693756
1739550763548799500,0.754799560546875,0.006949420087039471,0.010975547134876251,-0.015546823851764202
1739550763558868700,0.76486865234375,0.00034974096342921257,0.0013129087164998055,-0.02115105837583542
1739550763568937500,0.7749375,-0.00007529975846409798,-0.005231277085840702,-0.02405150607228279
1739550763579006700,0.7850068359375,0.0016095279715955257,-0.011594030074775219,-0.027363862842321396
1739550763589075500,0.795075439453125,-0.0012206134852021933,-0.012397771701216698,-0.032352495938539505
1739550763599144400,0.80514453125,-0.0015390575863420963,-0.0011031399480998516,-0.03763098269701004
1739550763609212700,0.815212646484375,0.0030386499129235744,0.014759711921215057,-0.030577603727579117
1739550763619281400,0.825281494140625,0.005132497753947973,0.011488983407616615,-0.012266076169908047
1739550763629350700,0.8353505859375,0.006040103267878294,0.0058494736440479755,0.006086831912398338
1739550763639419600,0.845419677734375,0.00444751838222146,0.005017905030399561,0.013348083943128586
1739550763649488600,0.855488525390625,0.002854414749890566,0.01589292287826538,0.005520787090063095
1739550763659557600,0.8655576171875,0.005367737729102373,0.015482738614082336,-0.0050354935228824615
1739550763669626400,0.87562646484375,0.004945626948028803,0.002577859442681074,-0.019972363486886024
1739550763679695600,0.885695556640625,0.008391210809350014,-0.010328797623515129,-0.02514495700597763
1739550763689764600,0.8957646484375,0.010378729552030563,-0.008374304510653019,-0.024159323424100876
1739550763699833600,0.90583349609375,0.008150741457939148,-0.010782953351736069,-0.02524488978087902
1739550763709902600,0.915902587890625,0.006399180274456739,-0.02391899563372135,-0.0363614559173584
1739550763719971600,0.9259716796875,0.0063004884868860245,-0.0295025072991848,-0.04224616661667824
1739550763730039600,0.93603955078125,0.008999070152640343,-0.03479607403278351,-0.04368853196501732
1739550763740108500,0.946108642578125,0.014797025360167027,-0.028226234018802643,-0.03643161803483963
1739550763750177500,0.956177490234375,0.018079370260238647,-0.015970099717378616,-0.02155999466776848
1739550763760246500,0.96624658203125,0.017134031280875206,-0.0028275884687900543,-0.008217194117605686
1739550763770315500,0.9763154296875,0.022861959412693977,0.014367909170687199,0.0027124201878905296
1739550763780384500,0.986384521484375,0.02446223795413971,0.024690458551049232,0.004464389756321907
1739550763790453800,0.996453857421875,0.020590800791978836,0.028564292937517166,-0.003182876855134964
1739550763800522500,1.0065224609375,0.020745713263750076,0.027757542207837105,-0.015133114531636238
1739550763810591500,1.016591552734375,0.021934548392891884,0.0021635000593960285,-0.024037661030888557
1739550763820660500,1.026660400390625,0.016554486006498337,-0.007548430468887091,-0.020103253424167633
1739550763830729500,1.0367294921875,0.018635215237736702,-0.008093046955764294,-0.024767514318227768
1739550763840798700,1.046798828125,0.0162929929792881,-0.0008159657008945942,-0.030621692538261414
1739550763850867500,1.056867431640625,0.017575036734342575,-0.004953452385962009,-0.023454058915376663
1739550763860936700,1.066936767578125,0.01969868317246437,-0.005660615861415863,-0.009589994326233864
1739550763871004700,1.077004638671875,0.017122074961662292,0.004971255548298359,0.0014874236658215523
1739550763881073400,1.087073486328125,0.018036730587482452,0.021586386486887932,0.0024104146286845207
1739550763891142700,1.097142578125,0.01633044332265854,0.030087996274232864,-0.000025845132768154144
1739550763901215000,1.107215087890625,0.01549527607858181,0.01837754435837269,-0.017271412536501884
1739550763911284200,1.1172841796875,0.015324568375945091,-0.003555186092853546,-0.02812192775309086
1739550763921353200,1.127353271484375,0.013732196763157845,-0.019404573366045952,-0.03131301701068878
1739550763931422200,1.137422119140625,0.010972097516059875,-0.016293201595544815,-0.02047341875731945
1739550763941491200,1.1474912109375,0.00778646394610405,-0.006378662772476673,-0.00492151640355587
1739550763951560000,1.157559814453125,0.008890343829989433,-0.000811324454843998,0.014489732682704926
1739550763961629200,1.167629150390625,0.01063479669392109,0.002857476007193327,0.010844951495528221
1739550763971698000,1.177697998046875,0.011084871366620064,-0.014118311926722527,0.007460872642695904
1739550763981767200,1.18776708984375,0.013352105394005775,-0.028550969436764717,0.0006387494504451752
1739550763991836200,1.197836181640625,0.01500539667904377,-0.02718663215637207,-0.007130489684641361
1739550764001905200,1.2079052734375,0.011887479573488235,-0.022956443950533867,-0.009918814525008202
1739550764011974100,1.21797412109375,0.00965495128184557,-0.017543036490678787,0.008316115476191044
1739550764022043100,1.228043212890625,0.012007547542452812,0.006836747284978628,0.01560987439006567
1739550764032112000,1.238112060546875,0.006358449347317219,0.026497533544898033,0.018559325486421585
1739550764042180000,1.24818017578125,0.0118635268881917,0.039899393916130066,0.00655836146324873
1739550764052249000,1.2582490234375,0.013535725884139538,0.041817136108875275,-0.0002566678449511528
1739550764062318000,1.268318115234375,0.010786935687065125,0.054115548729896545,0.0014868434518575668
1739550764072387300,1.27838720703125,0.007730426732450724,0.03844790533185005,0.006272011436522007
1739550764082456000,1.2884560546875,0.008739358745515347,0.017743362113833427,0.005750234238803387
1739550764092525000,1.298525146484375,0.014937067404389381,-0.008942576125264168,0.00549776665866375
1739550764102594000,1.308593994140625,0.01309344731271267,-0.0373363196849823,0.007651027292013168
1739550764112663000,1.3186630859375,0.015572585165500641,-0.04975491017103195,0.006102132610976696
1739550764122732300,1.328732177734375,0.02082635462284088,-0.04703988879919052,0.0021307477727532387
1739550764132801000,1.338801025390625,0.024631746113300323,-0.027024902403354645,0.0069859568029642105
1739550764142870300,1.348870361328125,0.029879700392484665,-0.003890186082571745,0.009547487832605839
1739550764152939000,1.35893896484375,0.029139608144760132,0.020167745649814606,0.007810840383172035
1739550764163008300,1.36900830078125,0.028712952509522438,0.029642563313245773,0.008898543193936348
1739550764173077000,1.379076904296875,0.02547534741461277,0.02108156494796276,0.009257804602384567
1739550764183146000,1.38914599609375,0.02601170726120472,-0.004162841010838747,0.010533474385738373
1739550764193215200,1.39921533203125,0.02444550395011902,-0.027182938531041145,0.01755090430378914
1739550764203284000,1.409283935546875,0.016634011641144753,-0.02423306368291378,0.02905404567718506
1739550764213353200,1.419353271484375,0.011121269315481186,-0.020059622824192047,0.030908403918147087
1739550764223422000,1.429421875,0.0090460404753685,-0.0271613672375679,0.027287688106298447
1739550764233491200,1.4394912109375,0.008293963968753815,-0.030853573232889175,0.023922782391309738
1739550764243560200,1.449560302734375,0.009042787365615368,-0.025400787591934204,0.027601901441812515
1739550764253629200,1.459629150390625,0.01468256302177906,-0.009182136505842209,0.03718581795692444
1739550764263698200,1.4696982421875,0.015187207609415054,0.031956516206264496,0.03913526609539986
1739550764273766100,1.47976611328125,0.015212774276733398,0.0568847693502903,0.03860796242952347
1739550764283835100,1.489835205078125,0.010051624849438667,0.04964766651391983,0.034405797719955444
1739550764293904100,1.499904052734375,0.007634540554136038,0.016830328851938248,0.0338987335562706
1739550764303973000,1.50997314453125,0.0009591765701770782,-0.015577873215079308,0.03684799373149872
1739550764314042000,1.5200419921875,0.004917965270578861,-0.04830625653266907,0.02752746269106865
1739550764324111000,1.530111083984375,0.005383300129324198,-0.05620170384645462,0.02090819925069809
1739550764334180000,1.54018017578125,0.0028098882175982,-0.050678838044404984,0.017925992608070374
1739550764344249000,1.5502490234375,0.0015948638319969177,-0.04054398834705353,0.017158377915620804
1739550764354318000,1.560318115234375,0.00336799630895257,-0.017479682341217995,0.018061455339193344
1739550764364387000,1.570386962890625,0.007909342646598816,0.006946149282157421,0.024936549365520477
1739550764374456000,1.5804560546875,0.013116355985403061,0.022508863359689713,0.035506635904312134
1739550764384525000,1.590525146484375,0.01691807620227337,0.02462584525346756,0.04408152028918266
1739550764394594300,1.60059423828125,0.018622498959302902,0.015688009560108185,0.04356619715690613
1739550764404663000,1.6106630859375,0.018075834959745407,0.023367978632450104,0.0418686605989933
1739550764414732300,1.620732177734375,0.012579870410263538,0.017539117485284805,0.033114317804574966
1739550764424801000,1.630801025390625,0.014209086075425148,-0.0033378731459379196,0.03391438350081444
1739550764434870000,1.6408701171875,0.014351032674312592,-0.011409381404519081,0.040749385952949524
1739550764444939300,1.650939208984375,0.016232647001743317,-0.025060851126909256,0.051178209483623505
1739550764455008000,1.661008056640625,0.017865166068077087,-0.02767900377511978,0.04578770697116852
1739550764465077200,1.6710771484375,0.01942199468612671,-0.02435390278697014,0.04056301340460777
1739550764475146000,1.68114599609375,0.0216638445854187,-0.026982443407177925,0.03448408097028732
1739550764485215200,1.69121533203125,0.023325283080339432,-0.03130309283733368,0.030351974070072174
1739550764495284000,1.701283935546875,0.026407893747091293,-0.035188645124435425,0.030558370053768158
1739550764505353200,1.711353271484375,0.03168958052992821,-0.03416312485933304,0.03349258750677109
1739550764515422200,1.721422119140625,0.030596885830163956,-0.027873536571860313,0.02603946439921856
1739550764525491000,1.731490966796875,0.029540536925196648,-0.02393212355673313,0.024974936619400978
1739550764535560200,1.741560302734375,0.028662757948040962,-0.009310835972428322,0.027648484334349632
1739550764545629000,1.75162890625,0.027058884501457214,0.0028957421891391277,0.035119976848363876
1739550764555698200,1.7616982421875,0.027852505445480347,0.02549878880381584,0.040279585868120193
1739550764565767200,1.77176708984375,0.025462869554758072,0.03058994933962822,0.03771521896123886
1739550764575836200,1.781836181640625,0.029439233243465424,0.03324006125330925,0.027585618197917938
1739550764585905200,1.7919052734375,0.02620583400130272,0.024263842031359673,0.012736327946186066
1739550764595974100,1.80197412109375,0.02776191756129265,0.006489637773483992,-0.003765684552490711
1739550764606043100,1.812043212890625,0.027315888553857803,0.003902813885360956,-0.012029828503727913
1739550764616112000,1.822112060546875,0.022886518388986588,0.0004524220712482929,-0.021445436403155327
1739550764626181000,1.83218115234375,0.021060271188616753,-0.006825219374150038,-0.017817150801420212
1739550764636250000,1.84225,0.015615703538060188,-0.013362213969230652,-0.007256119512021542
1739550764646319000,1.852319091796875,0.01920713298022747,-0.013433527201414108,0.006083708256483078
1739550764656388000,1.86238818359375,0.02009929157793522,-0.017038647085428238,0.007156961597502232
1739550764666457000,1.87245703125,0.018759919330477715,0.0035793795250356197,0.0005353791639208794
1739550764676526000,1.882526123046875,0.014853861182928085,0.03162379562854767,0.004143962636590004
1739550764686595300,1.89259521484375,0.014478158205747604,0.039240870624780655,-0.000008272938430309296
1739550764696664000,1.9026640625,0.008120659738779068,0.01994733139872551,-0.004054146818816662
1739550764706733300,1.9127333984375,0.0024646390229463577,-0.0029449332505464554,0.008148456923663616
1739550764716802000,1.922802001953125,0.006298792082816362,-0.0298154279589653,0.014597035013139248
1739550764726871000,1.93287109375,0.0015786285512149334,-0.0410320870578289,0.022644363343715668
1739550764736940000,1.94293994140625,0.003027388360351324,-0.045971449464559555,0.02909427508711815
1739550764747009000,1.953009033203125,0.006953677628189325,-0.04283144697546959,0.03481621667742729
1739550764757078300,1.963078369140625,0.013219296932220459,-0.019604690372943878,0.036153919994831085
1739550764767147000,1.97314697265625,0.016632679849863052,0.0026509445160627365,0.028298255056142807
1739550764777216300,1.98321630859375,0.015808431431651115,0.020229939371347427,0.017997680231928825
1739550764787285000,1.993284912109375,0.018973056226968765,0.01684253290295601,0.011431263759732246
1739550764797354200,2.003354248046875,0.017816178500652313,0.011786787770688534,0.010632848367094994
1739550764807423200,2.01342333984375,0.014966467395424843,0.013449463993310928,0.021699942648410797
1739550764817492000,2.023491943359375,0.011861488223075867,0.019968349486589432,0.03670445829629898
1739550764827561200,2.033561279296875,0.0040209535509347916,0.0016048206016421318,0.03891890496015549
1739550764837630000,2.0436298828125,-0.0030603918712586164,-0.014292387291789055,0.03229908645153046
1739550764847699200,2.05369921875,-0.007370331324636936,-0.02142639271914959,0.025480136275291443
1739550764857768000,2.063767822265625,-0.008357033133506775,-0.02540089562535286,0.015856536105275154
1739550764867837200,2.073837158203125,-0.007701211608946323,-0.016422467306256294,0.016536831855773926
1739550764877906200,2.08390625,-0.005470015574246645,0.005684166215360165,0.023686354979872704
1739550764887975200,2.09397509765625,0.0016546170227229595,0.03209786117076874,0.03227550908923149
1739550764898044200,2.104044189453125,0.0028945845551788807,0.052895817905664444,0.03616958484053612
1739550764908109600,2.114109619140625,0.0036660414189100266,0.05623991787433624,0.033050455152988434
1739550764918178800,2.1241787109375,0.0009610685519874096,0.03692587465047836,0.02454245463013649
1739550764928247800,2.134247802734375,-0.0035405694507062435,0.0026977024972438812,0.01369311660528183
1739550764938316800,2.14431689453125,-0.006075632758438587,-0.032179854810237885,-0.002828335389494896
1739550764948385800,2.1543857421875,-0.005612692795693874,-0.05563788115978241,-0.01536660548299551
1739550764958454800,2.164454833984375,-0.006174886599183083,-0.04426272213459015,-0.01696743071079254
1739550764968523800,2.174523681640625,-0.0020942222326993942,-0.02859075926244259,-0.008795474655926228
1739550764978592500,2.184592529296875,0.005968231707811356,-0.000249665230512619,0.005085453391075134
1739550764988661800,2.194661865234375,0.011759388260543346,0.025856440886855125,0.0218270942568779
1739550764998730800,2.204730712890625,0.00768768135458231,0.03629230707883835,0.015179311856627464
1739550765008800800,2.21480078125,0.007371125277131796,0.03240922838449478,0.0050149112939834595
1739550765018869800,2.224869873046875,0.01011577993631363,0.020174665376544,-0.00746785756200552
1739550765028938800,2.234938720703125,0.00506295682862401,-0.015305428765714169,-0.008807823061943054
1739550765039007700,2.2450078125,0.003944162745028734,-0.029452674090862274,-0.014432951807975769
1739550765049076700,2.25507666015625,0.0030083484016358852,-0.023237794637680054,-0.020134925842285156
1739550765059145700,2.265145751953125,-0.001920630456879735,-0.023248180747032166,-0.028003767132759094
1739550765069214700,2.275214599609375,-0.0009149517863988876,-0.01840958185493946,-0.03480291739106178
1739550765079283700,2.28528369140625,-0.004071064293384552,-0.02129564993083477,-0.03087741509079933
1739550765089353000,2.29535302734375,0.0015854514203965664,-0.023352932184934616,-0.02366182953119278
1739550765099421700,2.305421630859375,0.00542652839794755,-0.004247413016855717,-0.017111249268054962
1739550765109490700,2.31549072265625,0.0018901173025369644,0.02127339318394661,-0.0031887786462903023
1739550765119559700,2.3255595703125,0.005375395994633436,0.028097741305828094,0.004077124409377575
1739550765129628700,2.335628662109375,0.007716536987572908,0.020891055464744568,0.004053776152431965
1739550765139697700,2.34569775390625,0.005487204995006323,0.026244008913636208,0.011472010985016823
1739550765149766700,2.3557666015625,0.005404622759670019,0.02500617876648903,0.010807033628225327
1739550765159836000,2.3658359375,0.0018759346567094326,0.01851792074739933,0.006441313773393631
1739550765169904600,2.375904541015625,-0.005287152249366045,0.005475482903420925,-0.007091149687767029
1739550765179974000,2.385973876953125,-0.0067223296500742435,-0.006150013767182827,-0.017226073890924454
1739550765190042600,2.396042724609375,-0.007493128534406424,-0.009214409627020359,-0.02422209270298481
1739550765200111600,2.406111572265625,-0.009078774601221085,-0.013654164969921112,-0.028046125546097755
1739550765210180900,2.416180908203125,-0.007057571318000555,-0.01620713621377945,-0.03857553005218506
1739550765220249600,2.42624951171875,-0.003885213751345873,-0.0022628256119787693,-0.0359501875936985
1739550765230318800,2.43631884765625,-0.004175962880253792,-0.0033172706607729197,-0.02452293038368225
1739550765240387600,2.4463876953125,-0.00835126731544733,-0.006340757478028536,-0.006512770429253578
1739550765250456800,2.456456787109375,-0.00736283790320158,-0.00756854098290205,0.005304676480591297
1739550765260525800,2.46652587890625,-0.006466950289905071,0.0007533049210906029,0.007254643365740776
1739550765270595800,2.476595947265625,-0.006705982610583305,0.013628827407956123,-0.003933623433113098
1739550765280664600,2.48666455078125,-0.0007788510993123055,0.03074762597680092,-0.01978236250579357
1739550765290733800,2.49673388671875,0.0018100612796843052,0.0455860011279583,-0.029997941106557846
1739550765300802800,2.506802734375,0.005681765265762806,0.040330786257982254,-0.025460712611675262
1739550765310871800,2.516871826171875,0.0043617174960672855,0.00835796445608139,-0.012242354452610016
1739550765320940800,2.52694091796875,-0.002205637516453862,-0.009580555371940136,-0.0006048735231161118
1739550765331009500,2.537009521484375,-0.006663444451987743,-0.022465556859970093,0.006920858286321163
1739550765341078800,2.547078857421875,-0.009701578877866268,-0.04996216297149658,-0.0021762335672974586
1739550765351147800,2.557147705078125,-0.014423353597521782,-0.053232792764902115,-0.016053970903158188
1739550765361216800,2.567216796875,-0.014488866552710533,-0.036922797560691833,-0.02593616396188736
1739550765371285800,2.57728564453125,-0.008441776968538761,-0.016400938853621483,-0.03435353934764862
1739550765381354800,2.587354736328125,-0.0017942606937140226,-0.010417614132165909,-0.020600710064172745
1739550765391423700,2.597423828125,0.0017856280319392681,0.0031324485316872597,-0.008165979757905006
1739550765401492700,2.60749267578125,0.0011973357759416103,0.008700319565832615,-0.0024031661450862885
1739550765411561700,2.617561767578125,0.003903500270098448,0.0013703042641282082,0.004892900586128235
1739550765421631000,2.627630859375,0.0037314598448574543,-0.0035301786847412586,0.007809328380972147
1739550765431699700,2.63769970703125,-0.0019005292560905218,-0.0038941982202231884,0.010354547761380672
1739550765441768700,2.647768798828125,0.000043312087655067444,-0.0065309940837323666,0.016250252723693848
1739550765451837700,2.657837646484375,-0.0023916715290397406,-0.0250176303088665,0.01737486571073532
1739550765461907700,2.66790771484375,-0.007710270583629608,-0.03239378705620766,0.015091205015778542
1739550765471976700,2.677976806640625,-0.011669735424220562,-0.012097100727260113,0.0028778892010450363
1739550765482045700,2.688045654296875,-0.017850132659077644,0.005284020211547613,-0.006721741519868374
1739550765492114700,2.69811474609375,-0.018128518015146255,0.007345282007008791,-0.006312704645097256
1739550765502183700,2.70818359375,-0.015165485441684723,0.014713183045387268,-0.0003602737560868263
1739550765512253000,2.7182529296875,-0.008952842094004154,0.030817309394478798,0.0017806300893425941
1739550765522321700,2.72832177734375,-0.006176763214170933,0.034046124666929245,0.003972944803535938
1739550765532391000,2.738390869140625,-0.005622372031211853,0.023869093507528305,0.005470413714647293
1739550765542459600,2.748459716796875,-0.005144867114722729,0.0053619882091879845,-0.0010119862854480743
1739550765552529000,2.75852880859375,-0.0070900400169193745,-0.011559471487998962,-0.009627312421798706
1739550765562597600,2.76859765625,-0.01078091561794281,-0.03145647794008255,-0.01404629647731781
1739550765572666600,2.77866650390625,-0.013409066945314407,-0.03984629362821579,-0.013356863521039486
1739550765582736000,2.78873583984375,-0.012021560221910477,-0.04633162543177605,-0.017964132130146027
1739550765592804600,2.7988046875,-0.009098733775317669,-0.04818079620599747,-0.018597036600112915
1739550765602873900,2.808873779296875,-0.004914375487715006,-0.03182339295744896,-0.01879703998565674
1739550765612943600,2.818943603515625,0.0004351763054728508,-0.03431634232401848,-0.0014939121901988983
1739550765623012900,2.829012939453125,-0.0048562586307525635,-0.038151562213897705,0.013475717045366764
1739550765633081600,2.83908154296875,-0.0028606890700757504,-0.02602655068039894,0.021635543555021286
1739550765643150800,2.84915087890625,-0.003082530340179801,-0.020458679646253586,0.008441711775958538
1739550765653219600,2.859219482421875,-0.007807108573615551,-0.0015188800171017647,-0.014572328887879848
1739550765663288800,2.869288818359375,-0.010675067082047462,-0.0018760100938379765,-0.03364242985844612
1739550765673357800,2.87935791015625,-0.010666541755199432,-0.01100173220038414,-0.04075426608324051
1739550765683426800,2.8894267578125,-0.006350090727210045,-0.010421429760754108,-0.04292421042919159
1739550765693495800,2.899495849609375,-0.006177527830004692,-0.013118400238454342,-0.04170287400484085
1739550765703564500,2.909564453125,-0.011661242693662643,-0.018270019441843033,-0.040412843227386475
1739550765713633800,2.9196337890625,-0.011479880660772324,-0.02408556640148163,-0.0404522567987442
1739550765723702800,2.929702880859375,-0.011525154113769531,-0.052224792540073395,-0.03982880711555481
1739550765733771800,2.939771728515625,-0.01803458482027054,-0.07065420597791672,-0.04562525078654289
1739550765743840800,2.9498408203125,-0.02166047878563404,-0.05935600772500038,-0.05294228345155716
1739550765753910800,2.959910888671875,-0.016795214265584946,-0.03344668075442314,-0.06042367219924927
1739550765763979800,2.969979736328125,-0.015589868649840355,-0.019795849919319153,-0.06538540124893188
1739550765774048800,2.980048828125,-0.014582529664039612,0.006573644932359457,-0.056358952075242996
1739550765784117800,2.99011767578125,-0.011150248348712921,0.03438876196742058,-0.03993630036711693
1739550765794186800,3.000186767578125,-0.009605211205780506,0.04197044298052788,-0.032938383519649506
1739550765804255700,3.010255859375,-0.01122601144015789,0.027576856315135956,-0.025520149618387222
1739550765814324700,3.02032470703125,-0.009060199372470379,0.001223620492964983,-0.030004039406776428
1739550765824393700,3.030393798828125,-0.012008851394057274,-0.018998559564352036,-0.039492350071668625
1739550765834462700,3.040462646484375,-0.019891340285539627,-0.02443610690534115,-0.04360737279057503
1739550765844531700,3.05053173828125,-0.017229244112968445,-0.022296523675322533,-0.039793726056814194
1739550765854600700,3.0606005859375,-0.018448572605848312,-0.02206156775355339,-0.031203100457787514
1739550765864669700,3.070669677734375,-0.01680726557970047,-0.021785132586956024,-0.030414005741477013
1739550765874739700,3.08073974609375,-0.017112866044044495,-0.03450484573841095,-0.03022058680653572
1739550765884808700,3.09080859375,-0.01948574185371399,-0.04462672397494316,-0.040481746196746826
1739550765894877700,3.100877685546875,-0.022623078897595406,-0.03788499906659126,-0.04830937832593918
1739550765904947000,3.110947021484375,-0.026546714827418327,-0.025549501180648804,-0.04000350832939148
1739550765915016200,3.12101611328125,-0.026905110105872154,-0.009459054097533226,-0.01849086582660675
1739550765925085200,3.131085205078125,-0.02989077940583229,-0.02067415788769722,-0.009598835371434689
1739550765935154000,3.14115380859375,-0.03272558003664017,-0.014089420437812805,0.004902411252260208
1739550765945223200,3.15122314453125,-0.031031811609864235,-0.011211608536541462,0.010883871465921402
1739550765955292000,3.1612919921875,-0.02969689853489399,-0.012650708667933941,0.006588527001440525
1739550765965361200,3.171361083984375,-0.029120324179530144,0.0038100234232842922,-0.0024326657876372337
1739550765975430000,3.181429931640625,-0.03084292635321617,0.021576866507530212,-0.0091120395809412
1739550765985500200,3.191500244140625,-0.030495651066303253,0.0011155344545841217,-0.01272248663008213
1739550765995569000,3.20156884765625,-0.044405072927474976,-0.013398963026702404,-0.02451895922422409
1739550766005638100,3.21163818359375,-0.05350376293063164,-0.021242771297693253,-0.03743981942534447
1739550766015707100,3.22170703125,-0.059161245822906494,-0.030686136335134506,-0.041548073291778564
1739550766025776000,3.231776123046875,-0.06526681035757065,-0.05760297179222107,-0.04152277484536171
1739550766035845000,3.24184521484375,-0.07114161550998688,-0.06640665978193283,-0.038669005036354065
1739550766045914000,3.2519140625,-0.07693851739168167,-0.05028174817562103,-0.0350007638335228
1739550766055983000,3.261983154296875,-0.07835811376571655,-0.025623997673392296,-0.016111159697175026
1739550766066051800,3.2720517578125,-0.08264127373695374,-0.007234870456159115,-0.007597565650939941
1739550766076121000,3.28212109375,-0.08787284791469574,-0.002851871307939291,0.010182730853557587
1739550766086190000,3.292190185546875,-0.09712360799312592,0.01151534914970398,0.022940604016184807
1739550766096260000,3.302260009765625,-0.09622279554605484,0.02322080172598362,0.024823522195219994
1739550766106329000,3.3123291015625,-0.09830858558416367,0.03611795976758003,0.018274810165166855
1739550766116398000,3.322398193359375,-0.09999163448810577,0.05868309736251831,0.004240117967128754
1739550766126467000,3.332467041015625,-0.1058332771062851,0.06782092899084091,-0.002568786032497883
1739550766136536000,3.3425361328125,-0.10346805304288864,0.06189516931772232,-0.009150221012532711
1739550766146605000,3.35260498046875,-0.10893605649471283,0.05074770748615265,-0.015199857763946056
1739550766156674000,3.362674072265625,-0.11728479713201523,0.026692703366279602,-0.020571455359458923
1739550766166743000,3.372742919921875,-0.11586134135723114,-0.00986876804381609,-0.018581006675958633
1739550766176812300,3.382812255859375,-0.1112627238035202,-0.0343286357820034,-0.007214436307549477
1739550766186881000,3.392881103515625,-0.10823311656713486,-0.03913510963320732,-0.006541457027196884
1739550766196951000,3.402950927734375,-0.09492209553718567,-0.04240187257528305,-0.008357331156730652
1739550766207020000,3.41302001953125,-0.08329874277114868,-0.03556287661194801,-0.019100524485111237
1739550766217089300,3.42308935546875,-0.06707675755023956,-0.008152893744409084,-0.025160081684589386
1739550766227158000,3.433157958984375,-0.05696873366832733,0.00693497946485877,-0.02023882418870926
1739550766237227000,3.44322705078125,-0.04958118498325348,0.0266636423766613,0.0015564532950520515
1739550766247296000,3.4532958984375,-0.027413034811615944,0.04951250180602074,0.030549222603440285
1739550766257365000,3.463364990234375,-0.016425902023911476,0.0741942748427391,0.0774470865726471
1739550766267434200,3.473434326171875,-0.006553830113261938,0.07721163332462311,0.10927878320217133
1739550766277503000,3.4835029296875,0.007552751339972019,0.09004838019609451,0.11594764143228531
1739550766287573000,3.493572998046875,0.016964629292488098,0.06253047287464142,0.10999280959367752
1739550766297642000,3.50364208984375,0.02218128740787506,0.020533651113510132,0.08839527517557144
1739550766307711200,3.513711181640625,0.01616653800010681,-0.0005932068452239037,0.05641603469848633
1739550766317780000,3.523780029296875,0.013694386929273605,-0.02339969202876091,0.036696694791316986
1739550766327849200,3.53384912109375,0.017051300033926964,-0.025549661368131638,0.029950110241770744
1739550766337918000,3.54391796875,0.01706501469016075,-0.022003330290317535,0.03172171115875244
1739550766347987200,3.5539873046875,0.015763528645038605,-0.004966289736330509,0.03621739149093628
1739550766358056200,3.56405615234375,0.01867370679974556,0.018240170553326607,0.04666837304830551
1739550766368125000,3.574125,0.026815788820385933,0.011590257287025452,0.05359765142202377
1739550766378195000,3.58419482421875,0.036833152174949646,0.01352964248508215,0.0619315430521965
1739550766388264200,3.59426416015625,0.043208226561546326,0.007959906943142414,0.06142820790410042
1739550766398333200,3.604333251953125,0.050345756113529205,0.0003206259571015835,0.05120299756526947
1739550766408402000,3.61440185546875,0.051306359469890594,0.023030199110507965,0.027513382956385612
1739550766418471200,3.62447119140625,0.057975705713033676,0.03465303033590317,0.005683718249201775
1739550766428540000,3.634539794921875,0.06585599482059479,0.03524824604392052,0.0002881539985537529
1739550766438609200,3.644609130859375,0.06710889935493469,0.02224903181195259,-0.0014373762533068657
1739550766448678100,3.65467822265625,0.06651607900857925,0.01694135181605816,-0.002497580833733082
1739550766458747100,3.6647470703125,0.06830544024705887,0.03123359940946102,-0.014072342775762081
1739550766468817000,3.67481689453125,0.054339028894901276,0.05185951292514801,-0.029284585267305374
1739550766478886100,3.68488623046875,0.03969670832157135,0.04257640242576599,-0.04710792377591133
1739550766488955100,3.694955078125,0.018650278449058533,0.009306332096457481,-0.06560996174812317
1739550766499024100,3.705024169921875,0.0037286439910531044,-0.02018308825790882,-0.07903067022562027
1739550766509093000,3.715093017578125,-0.015500178560614586,-0.03317878022789955,-0.08614956587553024
1739550766519162000,3.725162109375,-0.031031381338834763,-0.03561460226774216,-0.07868243008852005
1739550766529231000,3.735231201171875,-0.04396102949976921,-0.02304980531334877,-0.07339978218078613
1739550766539299800,3.7452998046875,-0.05653402581810951,0.003161586355417967,-0.0803772360086441
1739550766549369000,3.755369140625,-0.07008391618728638,0.015582036226987839,-0.10355685651302338
1739550766559438000,3.76543798828125,-0.08407377451658249,0.013651911169290543,-0.14534331858158112
1739550766569508000,3.775508056640625,-0.08941873908042908,-0.016127021983265877,-0.1916991025209427
1739550766579577000,3.7855771484375,-0.08443228900432587,-0.053539540618658066,-0.23514582216739655
1739550766589646000,3.79564599609375,-0.0655219778418541,-0.04012120142579079,-0.25857576727867126
1739550766599715000,3.805715087890625,-0.03705545514822006,-0.019876785576343536,-0.25862568616867065
1739550766609784000,3.8157841796875,-0.01143904123455286,-0.004386774264276028,-0.23485378921031952
1739550766619853000,3.82585302734375,0.020985465496778488,0.011635464616119862,-0.19082334637641907
1739550766629922000,3.835922119140625,0.04783785343170166,0.043589137494564056,-0.14494214951992035
1739550766639991000,3.845990966796875,0.06731343269348145,0.06709933280944824,-0.10919419676065445
1739550766650061000,3.85606103515625,0.07516098022460938,0.060126110911369324,-0.07495713233947754
1739550766660130000,3.866130126953125,0.07606745511293411,0.03878962993621826,-0.053357332944869995
1739550766670199000,3.876198974609375,0.07284556329250336,0.009992869570851326,-0.030622459948062897
1739550766680268000,3.88626806640625,0.06152390316128731,-0.0038851373828947544,-0.014345751143991947
1739550766690337300,3.896337158203125,0.04071343317627907,-0.0026297233998775482,-0.011929997242987156
1739550766700406000,3.906406005859375,0.026800567284226418,-0.0003379331901669502,-0.017020229250192642
1739550766710475000,3.91647509765625,0.008691872470080853,-0.0020103983115404844,-0.023482922464609146
1739550766720544000,3.9265439453125,-0.004974770359694958,-0.005589999258518219,-0.03382401168346405
1739550766730614300,3.9366142578125,-0.011599383316934109,0.0016567283309996128,-0.03928375616669655
1739550766740683000,3.94668310546875,-0.013651255518198013,0.018450265750288963,-0.03354794159531593
1739550766750752000,3.956751953125,-0.01531919278204441,0.05050726979970932,-0.019359949976205826
1739550766760821000,3.966821044921875,-0.012310141697525978,0.07896751165390015,-0.0017398465424776077
1739550766770890000,3.976889892578125,-0.005384857766330242,0.10128399729728699,0.004415784031152725
1739550766780959200,3.986959228515625,0.003465082496404648,0.11080746352672577,-0.0008141305297613144
1739550766791028000,3.997028076171875,0.008088063448667526,0.09598244726657867,-0.024893101304769516
1739550766801097200,4.00709716796875,0.016794398427009583,0.08580460399389267,-0.04949488118290901
1739550766811166000,4.017166015625,0.031136054545640945,0.06984294950962067,-0.0680408775806427
1739550766821236200,4.027236328125,0.03795555979013443,0.04193751886487007,-0.08039610832929611
1739550766831305000,4.037304931640625,0.06004861369729042,0.01702364906668663,-0.08678476512432098
1739550766841374200,4.047374267578125,0.08218615502119064,0.018096638843417168,-0.07636062055826187
1739550766851443000,4.05744287109375,0.10688111186027527,0.030356233939528465,-0.06384056806564331
1739550766861512200,4.06751220703125,0.133043110370636,0.04539133608341217,-0.05598347634077072
1739550766871581200,4.077581298828125,0.14940105378627777,0.05201355367898941,-0.05788417160511017
1739550766881650000,4.08764990234375,0.16659259796142578,0.05784870311617851,-0.06564738601446152
1739550766891719200,4.09771923828125,0.1762484312057495,0.07658697664737701,-0.08085457235574722
1739550766901789200,4.1077890625,0.1870909482240677,0.0759095698595047,-0.08727775514125824
1739550766911861800,4.11786181640625,0.18866035342216492,0.05535529926419258,-0.08029148727655411
1739550766921930800,4.1279306640625,0.18635280430316925,0.03235802799463272,-0.06483908742666245
1739550766931999700,4.137999755859375,0.18438127636909485,0.03447364270687103,-0.05253075808286667
1739550766942068700,4.14806884765625,0.1794489622116089,0.06201106309890747,-0.044809117913246155
1739550766952137700,4.1581376953125,0.17105920612812042,0.09806999564170837,-0.03908252343535423
1739550766962206700,4.168206787109375,0.1617009937763214,0.11505690217018127,-0.044559646397829056
1739550766972275700,4.178275634765625,0.15516452491283417,0.13208328187465668,-0.04578070715069771
1739550766982345500,4.188345458984375,0.1438075453042984,0.1561429798603058,-0.04629026725888252
1739550766992414700,4.198414794921875,0.13305051624774933,0.1704002171754837,-0.04180896654725075
1739550767002483700,4.208483642578125,0.12246058881282806,0.1774255782365799,-0.028882049024105072
1739550767012552700,4.218552734375,0.11566606163978577,0.1822642683982849,-0.013307086192071438
1739550767022621700,4.22862158203125,0.1105172410607338,0.19036340713500977,-0.0018646158277988434
1739550767032690700,4.238690673828125,0.10167687386274338,0.190174862742424,0.003940543159842491
1739550767042759700,4.248759765625,0.0871843695640564,0.16972731053829193,-0.001207682304084301
1739550767052828700,4.25882861328125,0.09857310354709625,0.15635983645915985,-0.01551924366503954
1739550767062898700,4.268898681640625,0.10462333261966705,0.14005108177661896,-0.03053237870335579
1739550767072967700,4.2789677734375,0.09854573011398315,0.12861306965351105,-0.03662196546792984
1739550767083036700,4.28903662109375,0.10714314877986908,0.13726750016212463,-0.03597351536154747
1739550767093106000,4.29910595703125,0.11945414543151855,0.14026249945163727,-0.025596242398023605
1739550767103174700,4.309174560546875,0.13004478812217712,0.1393100470304489,0.0026384908705949783
1739550767113243600,4.31924365234375,0.13906918466091156,0.13947196304798126,0.0377807654440403
1739550767123312600,4.329312744140625,0.14724482595920563,0.15056748688220978,0.08020332455635071
1739550767133381600,4.339381591796875,0.16868619620800018,0.16352909803390503,0.12067031860351562
1739550767143451600,4.34945166015625,0.1837272197008133,0.18534332513809204,0.14716212451457977
1739550767153520600,4.359520751953125,0.18942877650260925,0.17033295333385468,0.13443885743618011
1739550767163589600,4.369589599609375,0.19314466416835785,0.0891956090927124,0.08384719491004944
1739550767173658600,4.37965869140625,0.18998375535011292,-0.07387160509824753,-0.020636335015296936
1739550767183727600,4.3897275390625,0.1847936362028122,-0.24812285602092743,-0.15987955033779144
1739550767193796600,4.399796630859375,0.18195070326328278,-0.4061468243598938,-0.337984561920166
1739550767203865900,4.409865966796875,0.19886444509029388,-0.49963951110839844,-0.45722493529319763
1739550767213934600,4.4199345703125,0.20493298768997192,-0.535092294216156,-0.5461777448654175
1739550767224004900,4.4300048828125,0.21367095410823822,-0.451421856880188,-0.5342603325843811
1739550767234073600,4.440073486328125,0.22203008830547333,-0.33934643864631653,-0.41163769364356995
1739550767244142800,4.450142822265625,0.20303255319595337,-0.2866278886795044,-0.21238189935684204
1739550767254211600,4.460211669921875,0.21096211671829224,-0.23764625191688538,-0.029981743544340134
1739550767264280800,4.47028076171875,0.18631833791732788,-0.1871100813150406,0.08307214826345444
1739550767274349600,4.480349609375,0.15642355382442474,-0.12606456875801086,0.1157885491847992
1739550767284418600,4.49041845703125,0.13629965484142303,-0.05608747527003288,0.12514756619930267
1739550767294488600,4.500488525390625,0.11841306835412979,-0.029432695358991623,0.1492249220609665
1739550767304557800,4.510557861328125,0.08637207001447678,-0.022432439029216766,0.19841870665550232
1739550767314626800,4.520626708984375,0.0538996085524559,-0.013163041323423386,0.2557874619960785
1739550767324695600,4.530695556640625,0.0375589057803154,0.011693935841321945,0.298762708902359
1739550767334764800,4.540764892578125,0.030453592538833618,0.03887735307216644,0.31208252906799316
1739550767344833500,4.55083349609375,0.030510585755109787,0.08097101747989655,0.2835821807384491
1739550767354902800,4.56090283203125,0.04718197137117386,0.09931300580501556,0.2324438840150833
1739550767364971500,4.570971435546875,0.06491930782794952,0.1194661483168602,0.16577211022377014
1739550767375041800,4.581041748046875,0.0822644755244255,0.12760156393051147,0.1054038479924202
1739550767385110500,4.591110595703125,0.10207077115774155,0.11761423945426941,0.05977704003453255
1739550767395179800,4.6011796875,0.11366910487413406,0.09326948970556259,0.018358761444687843
1739550767405248800,4.611248779296875,0.1175035685300827,-0.009881924837827682,0.0006769625470042229
1739550767415317800,4.62131787109375,0.12578998506069183,-0.11486399918794632,-0.03168230876326561
1739550767425386800,4.63138671875,0.12581749260425568,-0.19124501943588257,-0.056856073439121246
1739550767435455700,4.641455810546875,0.1322290599346161,-0.2260275036096573,-0.06567992269992828
1739550767445525800,4.65152587890625,0.14801646769046783,-0.19174186885356903,-0.06070823222398758
1739550767455594800,4.6615947265625,0.16458319127559662,-0.10261759161949158,-0.034322962164878845
1739550767465663700,4.671663818359375,0.17264516651630402,0.02727053314447403,0.010996483266353607
1739550767475732700,4.681732666015625,0.16751883924007416,0.14235743880271912,0.06558436155319214
1739550767485801700,4.6918017578125,0.14886580407619476,0.2246878743171692,0.1273708939552307
1739550767495870500,4.701870361328125,0.1349819451570511,0.27928027510643005,0.1997087448835373
1739550767505939700,4.711939697265625,0.11149249225854874,0.2973695993423462,0.2587558925151825
1739550767516009700,4.722009765625,0.0795835629105568,0.29351094365119934,0.28721123933792114
1739550767526078700,4.73207861328125,0.045180562883615494,0.25526660680770874,0.27977433800697327
1739550767536147700,4.742147705078125,0.014806414023041725,0.20330169796943665,0.23219510912895203
1739550767546216700,4.752216796875,-0.0031311220955103636,0.14633357524871826,0.15256190299987793
1739550767556285700,4.76228564453125,-0.01966748759150505,0.10967596620321274,0.05762606859207153
1739550767566354700,4.772354736328125,-0.026318175718188286,0.11154484003782272,-0.03773334622383118
1739550767576423700,4.782423583984375,-0.023118654265999794,0.1501374989748001,-0.09696070849895477
1739550767586493700,4.79249365234375,-0.0070190089754760265,0.1727038025856018,-0.10948397219181061
1739550767596562700,4.802562744140625,0.006009707693010569,0.18719060719013214,-0.07727809995412827
1739550767606631700,4.812631591796875,0.019648564979434013,0.20352257788181305,-0.012810559943318367
1739550767616700700,4.82270068359375,0.029211711138486862,0.18227294087409973,0.05833978205919266
1739550767626769700,4.832769775390625,0.0343884713947773,0.13826853036880493,0.11081504821777344
1739550767636838700,4.842838623046875,0.0397597998380661,0.10065297782421112,0.1443871259689331
1739550767646908000,4.852907958984375,0.039132945239543915,0.08615502715110779,0.14435546100139618
1739550767656977700,4.862977783203125,0.02268153429031372,0.061329569667577744,0.12069886922836304
1739550767667047000,4.873046875,0.011857373639941216,0.034721799194812775,0.07558052986860275
1739550767677115600,4.88311572265625,-0.0028443399351090193,0.017652001231908798,0.03091106191277504
1739550767687185000,4.893184814453125,-0.011946581304073334,-0.013599433936178684,0.00418514758348465
1739550767697253600,4.903253662109375,-0.026584645733237267,-0.043238554149866104,-0.002756647765636444
1739550767707322600,4.913322509765625,-0.0447872132062912,-0.050808653235435486,0.012917052023112774
1739550767717391600,4.9233916015625,-0.053376439958810806,-0.027958732098340988,0.03460876643657684
1739550767727462000,4.9334619140625,-0.07264702022075653,-0.008826307952404022,0.05055549740791321
1739550767737530600,4.943530517578125,-0.08341338485479355,0.02120882272720337,0.07132629305124283
1739550767747599600,4.953599609375,-0.08136183023452759,0.06189066916704178,0.08094050735235214
1739550767757668600,4.963668701171875,-0.08417332917451859,0.09385712444782257,0.0747222900390625
1739550767767737600,4.973737548828125,-0.087896429002285,0.11411978304386139,0.06920874863862991
1739550767777806800,4.983806884765625,-0.09167678654193878,0.1246027871966362,0.055437274277210236
1739550767787875600,4.99387548828125,-0.09543862193822861,0.12226992100477219,0.03590678051114082
1739550767797945900,5.00394580078125,-0.10639166831970215,0.09753581136465073,0.02301761507987976
1739550767808014600,5.0140146484375,-0.10666973888874054,0.08452840149402618,0.013632640242576599
1739550767818083800,5.024083740234375,-0.10357461869716644,0.06412885338068008,0.015180469490587711
1739550767828152600,5.034152587890625,-0.11432340741157532,0.03914640471339226,0.019727686420083046
1739550767838221800,5.044221923828125,-0.118448905646801,0.005367934238165617,0.02197938784956932
1739550767848290600,5.05429052734375,-0.11880376189947128,0.006215155124664307,0.03623642027378082
1739550767858360800,5.06436083984375,-0.11874650418758392,0.010337461717426777,0.04512738436460495
1739550767868429600,5.0744296875,-0.12529273331165314,-0.00986257940530777,0.03755364567041397
1739550767878498800,5.084498779296875,-0.13144436478614807,-0.04398965835571289,0.014470698311924934
1739550767888567800,5.09456787109375,-0.14530666172504425,-0.09474244713783264,-0.016497202217578888
1739550767898636800,5.10463671875,-0.1533517986536026,-0.15004484355449677,-0.042144775390625
1739550767908701200,5.114701171875,-0.1627831608057022,-0.2014303058385849,-0.0618724450469017
1739550767918770400,5.1247705078125,-0.17583131790161133,-0.193485826253891,-0.07525935769081116
1739550767928840200,5.134840087890625,-0.1864895522594452,-0.14824910461902618,-0.08747074753046036
1739550767938909200,5.1449091796875,-0.19439886510372162,-0.11534042656421661,-0.08846330642700195
1739550767948978200,5.154978271484375,-0.20026586949825287,-0.08743866533041,-0.08850955218076706
1739550767959047400,5.16504736328125,-0.20748144388198853,-0.03757815808057785,-0.08589699119329453
1739550767969116200,5.1751162109375,-0.21147559583187103,0.004606212954968214,-0.08896424621343613
1739550767979185200,5.18518505859375,-0.22465211153030396,0.0291560310870409,-0.10210321843624115
1739550767989254100,5.195254150390625,-0.23125767707824707,0.024948062375187874,-0.11019165813922882
1739550767999324200,5.20532421875,-0.24138034880161285,0.016162825748324394,-0.12391600012779236
1739550768009393200,5.21539306640625,-0.2594614028930664,-0.0017174296081066132,-0.12843918800354004
1739550768019462100,5.225462158203125,-0.2696717083454132,-0.030320046469569206,-0.13692854344844818
1739550768029531100,5.23553125,-0.28481853008270264,-0.060309406369924545,-0.14818468689918518
1739550768039600000,5.24560009765625,-0.28936296701431274,-0.10611231625080109,-0.15153361856937408
1739550768049669400,5.25566943359375,-0.3003201484680176,-0.13926571607589722,-0.1427062749862671
1739550768059739100,5.2657392578125,-0.3094058036804199,-0.15919041633605957,-0.11968803405761719
1739550768069808000,5.27580810546875,-0.3095261752605438,-0.15824684500694275,-0.08623501658439636
1739550768079877000,5.285877197265625,-0.30958956480026245,-0.1411733329296112,-0.03542456775903702
1739550768089946400,5.2959462890625,-0.3087182343006134,-0.11767349392175674,0.030863743275403976
1739550768100015000,5.30601513671875,-0.28604966402053833,-0.09999383240938187,0.09124932438135147
1739550768110084400,5.31608447265625,-0.2722080647945404,-0.1123586893081665,0.12420028448104858
1739550768120154000,5.326154052734375,-0.25871914625167847,-0.16903981566429138,0.10039003193378448
1739550768130223400,5.336223388671875,-0.2728091776371002,-0.2801317274570465,0.03372254967689514
1739550768140292000,5.3462919921875,-0.28026363253593445,-0.41525760293006897,-0.07207765430212021
1739550768150361300,5.356361328125,-0.2648540735244751,-0.5030927062034607,-0.22607390582561493
1739550768160430000,5.36643017578125,-0.25019019842147827,-0.5067156553268433,-0.40006327629089355
1739550768170499000,5.3764990234375,-0.2431277483701706,-0.442626029253006,-0.538141667842865
1739550768180568300,5.386568359375,-0.21704740822315216,-0.3546823263168335,-0.6220605373382568
1739550768190638300,5.396638427734375,-0.17497912049293518,-0.23186933994293213,-0.6451544761657715
1739550768200707000,5.40670703125,-0.14687025547027588,-0.07567307353019714,-0.6171507835388184
1739550768210776000,5.416776123046875,-0.1192120835185051,0.05935328081250191,-0.557744562625885
1739550768220845300,5.42684521484375,-0.11922326683998108,0.12962079048156738,-0.45330819487571716
1739550768230914000,5.4369140625,-0.11695872992277145,0.18628649413585663,-0.3176533877849579
1739550768240983300,5.4469833984375,-0.09562680870294571,0.24989211559295654,-0.18429933488368988
1739550768251053000,5.457052978515625,-0.07542774081230164,0.27504849433898926,-0.058384642004966736
1739550768261122300,5.467122314453125,-0.05893850699067116,0.24529697000980377,0.05749136209487915
1739550768271191000,5.47719091796875,-0.030716709792613983,0.17058080434799194,0.15789853036403656
1739550768281260300,5.48726025390625,0.0017834422178566456,0.10933928191661835,0.2490505427122116
1739550768291329000,5.4973291015625,0.03944961726665497,0.09022071957588196,0.3256787061691284
1739550768301398300,5.507398193359375,0.0788462907075882,0.09657901525497437,0.36527299880981445
1739550768311468000,5.517468017578125,0.11725740134716034,0.11205907166004181,0.39704522490501404
1739550768321537300,5.527537353515625,0.1525203138589859,0.13623498380184174,0.4152950644493103
1739550768331606300,5.537606201171875,0.16970689594745636,0.1351442188024521,0.390186607837677
1739550768341675300,5.54767529296875,0.16309639811515808,0.08725898712873459,0.32750165462493896
1739550768351744300,5.557744140625,0.13333025574684143,0.01681600697338581,0.2543773949146271
1739550768361813200,5.567813232421875,0.09764363616704941,-0.06801445782184601,0.16230686008930206
1739550768371883300,5.57788330078125,0.062436532229185104,-0.13825659453868866,0.07216185331344604
1739550768381952300,5.5879521484375,0.01406180765479803,-0.18286214768886566,-0.01482790894806385
1739550768392021200,5.598021240234375,-0.042843833565711975,-0.23066338896751404,-0.0607076957821846
1739550768402090200,5.60809033203125,-0.10159903019666672,-0.29821285605430603,-0.0701291561126709
1739550768412159200,5.6181591796875,-0.15531452000141144,-0.36928465962409973,-0.038189053535461426
1739550768422228200,5.628228271484375,-0.187174454331398,-0.3898080587387085,0.007643148768693209
1739550768432298200,5.63829833984375,-0.22020770609378815,-0.36872217059135437,0.05849996954202652
1739550768442367200,5.6483671875,-0.23952680826187134,-0.2863577902317047,0.10123172402381897
1739550768452436200,5.658436279296875,-0.23440654575824738,-0.16007784008979797,0.13670480251312256
1739550768462505200,5.668505126953125,-0.2189202606678009,-0.002872244454920292,0.16233612596988678
1739550768472574200,5.67857421875,-0.21019014716148376,0.15364612638950348,0.167812779545784
1739550768482643200,5.688643310546875,-0.19730150699615479,0.2705812454223633,0.1633133590221405
1739550768492712200,5.698712158203125,-0.18347975611686707,0.355374276638031,0.1560124009847641
1739550768502782200,5.7087822265625,-0.1680757701396942,0.3892616629600525,0.1441645324230194
1739550768512851200,5.718851318359375,-0.1492658108472824,0.3773088753223419,0.12559989094734192
1739550768522920200,5.728920166015625,-0.12011697143316269,0.3292641341686249,0.10372389107942581
1739550768532989200,5.7389892578125,-0.09551534801721573,0.2852897047996521,0.07250150293111801
1739550768543058200,5.74905810546875,-0.0820874273777008,0.25100177526474,0.03999176248908043
1739550768553127200,5.759127197265625,-0.07714224606752396,0.2143089473247528,0.00411570630967617
1739550768563197200,5.769197265625,-0.07943762838840485,0.1968223750591278,-0.02302376925945282
1739550768573266200,5.77926611328125,-0.08442670106887817,0.181625097990036,-0.045925550162792206
1739550768583335200,5.789335205078125,-0.0944947823882103,0.14351233839988708,-0.06969266384840012
1739550768593404400,5.799404296875,-0.10243994742631912,0.09154212474822998,-0.10052299499511719
1739550768603473200,5.80947314453125,-0.11062464118003845,0.06156504526734352,-0.12735514342784882
1739550768613542100,5.819542236328125,-0.11719314008951187,0.07775226980447769,-0.15915939211845398
1739550768623612200,5.829612060546875,-0.12214422225952148,0.0997782051563263,-0.18194885551929474
1739550768633681400,5.839681396484375,-0.12615513801574707,0.12038391828536987,-0.19583161175251007
1739550768643750100,5.849750244140625,-0.12286213040351868,0.13857144117355347,-0.1872149556875229
1739550768653819100,5.859819091796875,-0.10948501527309418,0.14888602495193481,-0.16906322538852692
1739550768663888100,5.86988818359375,-0.1013442650437355,0.16221807897090912,-0.1338397115468979
1739550768673957000,5.87995703125,-0.08852650970220566,0.15761305391788483,-0.08895523846149445
1739550768684027100,5.890027099609375,-0.07205192744731903,0.13406458497047424,-0.04240265488624573
1739550768694096100,5.90009619140625,-0.05196307972073555,0.09769904613494873,-0.005177046172320843
1739550768704165000,5.9101650390625,-0.03594576194882393,0.06723381578922272,0.01792161539196968
1739550768714234000,5.920234130859375,-0.017022306099534035,0.04205072671175003,0.025479428470134735
1739550768724303400,5.930303466796875,-0.007346775848418474,0.005995522253215313,0.014925852417945862
1739550768734372000,5.9403720703125,0.0033355052582919598,0.003931340761482716,0.0023642852902412415
1739550768744442000,5.950442138671875,0.02502002939581871,0.02547604590654373,0.0006177844479680061
1739550768754511000,5.960510986328125,0.04462207108736038,0.04239983484148979,0.010795790702104568
1739550768764580400,5.970580322265625,0.06314249336719513,0.0657309889793396,0.024808011949062347
1739550768774649000,5.980649169921875,0.0810290277004242,0.07878454774618149,0.043325021862983704
1739550768784718300,5.99071826171875,0.09896674752235413,0.08071480691432953,0.05599873885512352
1739550768794787000,6.000787109375,0.10740634053945541,0.07434844970703125,0.06234127655625343
1739550768804857300,6.010857421875,0.121065154671669,0.07437854260206223,0.05426284670829773
1739550768814926000,6.020926025390625,0.12153785675764084,0.07244759052991867,0.04459885507822037
1739550768824995300,6.030995361328125,0.1300748735666275,0.04022706300020218,0.031467609107494354
1739550768835064000,6.04106396484375,0.13764223456382751,-0.014119665138423443,0.013835752382874489
1739550768845133300,6.05113330078125,0.1474916785955429,-0.06940821558237076,0.005278483033180237
1739550768855202300,6.061202392578125,0.16140903532505035,-0.07267329096794128,-0.007731626741588116
1739550768865272300,6.071272216796875,0.1796058863401413,-0.044081322848796844,-0.0071854135021567345
1739550768875341000,6.081341064453125,0.198405459523201,-0.0289462823420763,0.009304117411375046
1739550768885410300,6.091410400390625,0.22575850784778595,-0.033356476575136185,0.0391504280269146
1739550768895479300,6.101479248046875,0.25162848830223083,-0.030975475907325745,0.08615775406360626
1739550768905548500,6.111548583984375,0.2758081257343292,-0.02480972558259964,0.12936566770076752
1739550768915617500,6.121617431640625,0.28772541880607605,-0.03667787089943886,0.15980423986911774
1739550768925687600,6.1316875,0.2962978780269623,-0.02796267718076706,0.1760828197002411
1739550768935756800,6.1417568359375,0.2895309627056122,-0.038848649710416794,0.16806134581565857
1739550768945825500,6.151825439453125,0.2828235328197479,-0.05788465961813927,0.15249650180339813
1739550768955894500,6.16189453125,0.2722063958644867,-0.08464153110980988,0.15182794630527496
1739550768965963500,6.171963623046875,0.2557986378669739,-0.07853490114212036,0.16660448908805847
1739550768976032500,6.182032470703125,0.2480323165655136,-0.05906160920858383,0.1847536712884903
1739550768986102500,6.1921025390625,0.23213981091976166,-0.03344925120472908,0.21784710884094238
1739550768996171500,6.202171630859375,0.23104806244373322,0.0027735354378819466,0.27374157309532166
1739550769006240500,6.212240478515625,0.21091243624687195,0.0634685754776001,0.3506150543689728
1739550769016309500,6.2223095703125,0.19145138561725616,0.11967820674180984,0.43395406007766724
1739550769026378800,6.232378662109375,0.19629940390586853,0.17878733575344086,0.5161168575286865
1739550769036447500,6.242447509765625,0.21485751867294312,0.27273812890052795,0.565294086933136
1739550769046517500,6.252517578125,0.21450971066951752,0.3297913074493408,0.5839380621910095
1739550769056586500,6.26258642578125,0.17677004635334015,0.32576072216033936,0.5678384900093079
1739550769066655700,6.27265576171875,0.1482744812965393,0.2749806046485901,0.41864344477653503
1739550769076724500,6.282724365234375,0.1581321805715561,0.19695612788200378,0.06781405955553055
1739550769086793700,6.292793701171875,0.178611621260643,-0.01824246719479561,-0.43352603912353516
1739550769096862500,6.302862548828125,0.17333737015724182,-0.33313336968421936,-0.9027172327041626
1739550769106932700,6.3129326171875,0.18849074840545654,-0.5502207279205322,-1.2471941709518433
1739550769117001500,6.32300146484375,0.22309620678424835,-0.687602162361145,-1.3373117446899414
1739550769127070700,6.33307080078125,0.24192209541797638,-0.7229872941970825,-1.1450164318084717
1739550769137139500,6.343139404296875,0.21841703355312347,-0.6564582586288452,-0.7002636194229126
1739550769147208700,6.353208740234375,0.15654753148555756,-0.519889235496521,-0.12768849730491638
1739550769157277700,6.363277587890625,0.10128426551818848,-0.3222993314266205,0.3858460485935211
1739550769167347700,6.37334765625,0.08466614037752151,-0.07734843343496323,0.7127161026000977
1739550769177416400,6.38341650390625,0.03268735855817795,0.0805080384016037,0.8493764400482178
1739550769187485400,6.3934853515625,-0.034900739789009094,0.15238995850086212,0.8356513381004333
1739550769197554700,6.4035546875,-0.0984465628862381,0.1753331571817398,0.7331708073616028
1739550769207623400,6.41362353515625,-0.16268759965896606,0.16864942014217377,0.5713310241699219
1739550769217692700,6.423692626953125,-0.22478675842285156,0.14388492703437805,0.3894807696342468
1739550769227762400,6.433762451171875,-0.26813608407974243,0.11104440689086914,0.23098380863666534
1739550769237831700,6.443831787109375,-0.2869929373264313,0.05564862862229347,0.11786534637212753
1739550769247900400,6.453900390625,-0.2781757414340973,-0.034364085644483566,0.03475049138069153
1739550769257969700,6.4639697265625,-0.24539560079574585,-0.11584492772817612,-0.0026880651712417603
1739550769268038400,6.474038330078125,-0.18612535297870636,-0.14396338164806366,-0.007397333160042763
1739550769278107600,6.484107666015625,-0.10999663174152374,-0.1323171854019165,0.028332633897662163
1739550769288177400,6.494177490234375,-0.025905190035700798,-0.08418746292591095,0.08119185268878937
1739550769298246700,6.50424658203125,0.035895973443984985,-0.03329505771398544,0.12951484322547913
1739550769308315400,6.5143154296875,0.06295156478881836,-0.007650147657841444,0.1667809933423996
1739550769318384600,6.524384521484375,0.09080322086811066,0.010142169892787933,0.19729600846767426
1739550769328453600,6.53445361328125,0.11566036194562912,0.011499850079417229,0.19933971762657166
1739550769338522600,6.544522705078125,0.12326392531394958,-0.0009443061426281929,0.17796121537685394
1739550769348592600,6.554592529296875,0.11480039358139038,-0.033664435148239136,0.14522244036197662
1739550769358661600,6.56466162109375,0.09621789306402206,-0.07820650190114975,0.11208348721265793
1739550769368730600,6.574730712890625,0.07669931650161743,-0.09993895888328552,0.08606040477752686
1739550769378799600,6.584799560546875,0.05341954901814461,-0.10499457269906998,0.06894201040267944
1739550769388868600,6.59486865234375,0.028073713183403015,-0.10764974355697632,0.07595863938331604
1739550769398938600,6.604938720703125,0.00027223769575357437,-0.11501561105251312,0.10175498574972153
1739550769409007600,6.615007568359375,-0.019784826785326004,-0.11250558495521545,0.11676216125488281
1739550769419076600,6.62507666015625,-0.03539026528596878,-0.08203043043613434,0.11311102658510208
1739550769429145600,6.6351455078125,-0.049192361533641815,-0.04397919028997421,0.09462043642997742
1739550769439214600,6.645214599609375,-0.05001494660973549,-0.01315905712544918,0.039783187210559845
1739550769449283600,6.65528369140625,-0.05097688362002373,0.015897627919912338,-0.030972477048635483
1739550769459353600,6.665353515625,-0.048886097967624664,0.035074084997177124,-0.11121474951505661
1739550769469422600,6.675422607421875,-0.045219458639621735,0.04393015801906586,-0.1927543431520462
1739550769479491600,6.68549169921875,-0.03478871285915375,0.02733120694756508,-0.25318729877471924
1739550769489560600,6.695560546875,-0.008617027662694454,0.042359158396720886,-0.2839447259902954
1739550769499629600,6.705629638671875,0.01162106916308403,0.09954051673412323,-0.27883613109588623
1739550769509699600,6.715699462890625,0.03125708922743797,0.17133748531341553,-0.23362497985363007
1739550769519768600,6.7257685546875,0.04342629760503769,0.22799575328826904,-0.14387883245944977
1739550769529837600,6.735837646484375,0.06959745287895203,0.2710108458995819,-0.03495767340064049
1739550769539906600,6.745906494140625,0.13776031136512756,0.31299856305122375,0.020156484097242355
1739550769549975600,6.7559755859375,0.13766416907310486,0.3774673044681549,0.06550852209329605
1739550769560044500,6.76604443359375,0.11848392337560654,0.36094292998313904,0.10600323975086212
1739550769570114600,6.776114501953125,0.08315575867891312,0.27403226494789124,0.1181190237402916
1739550769580183600,6.78618359375,0.06859707832336426,0.19222596287727356,0.08740411698818207
1739550769590252500,6.79625244140625,0.06176234036684036,0.15323221683502197,0.03049556165933609
1739550769600321500,6.806321533203125,0.0596722774207592,0.12408395111560822,-0.014038302935659885
1739550769610390800,6.816390869140625,0.05196721479296684,0.05877232179045677,-0.05169672891497612
1739550769620459500,6.82645947265625,0.05536413937807083,0.026602143421769142,-0.07347367703914642
1739550769630529500,6.836529541015625,0.07450774312019348,0.006729102227836847,-0.08739002048969269
1739550769640598500,6.8465986328125,0.0896298736333847,-0.032229118049144745,-0.09968120604753494
1739550769650667800,6.856667724609375,0.09798261523246765,-0.08267870545387268,-0.12322967499494553
1739550769660736500,6.866736572265625,0.10713650286197662,-0.12649141252040863,-0.13354618847370148
1739550769670805800,6.8768056640625,0.11380905658006668,-0.1793927103281021,-0.14139772951602936
1739550769680875500,6.88687548828125,0.10984616726636887,-0.23199431598186493,-0.1428549587726593
1739550769690944800,6.89694482421875,0.09828618168830872,-0.27145835757255554,-0.14598843455314636
1739550769701013500,6.907013427734375,0.08674626797437668,-0.3051914870738983,-0.13601000607013702
1739550769711082500,6.91708251953125,0.06519170850515366,-0.3003906011581421,-0.13711975514888763
1739550769721151500,6.9271513671875,0.03999065235257149,-0.28472793102264404,-0.1301664113998413
1739550769731220500,6.937220458984375,0.011816537007689476,-0.24307797849178314,-0.10176432877779007
1739550769741290500,6.94729052734375,-0.01306147687137127,-0.19737552106380463,-0.05156967043876648
1739550769751359500,6.957359375,-0.0359438881278038,-0.12225761264562607,0.00913921557366848
1739550769761428500,6.967428466796875,-0.04822360724210739,-0.030705763027071953,0.0686790943145752
1739550769771497500,6.97749755859375,-0.05846399441361427,0.061210840940475464,0.10827496647834778
1739550769781566700,6.987566650390625,-0.07333562523126602,0.12659740447998047,0.12852413952350616
1739550769791636500,6.997636474609375,-0.08573610335588455,0.1467370241880417,0.14465756714344025
1739550769801705500,7.00770556640625,-0.09772787988185883,0.1357431709766388,0.14216025173664093
1739550769811774500,7.0177744140625,-0.10960131883621216,0.10872673988342285,0.12455808371305466
1739550769821843700,7.02784375,-0.12292230874300003,0.07049742341041565,0.08723372966051102
1739550769831912400,7.037912353515625,-0.14054125547409058,0.032195575535297394,0.041840940713882446
1739550769841981700,7.047981689453125,-0.1537652164697647,0.015017194673418999,0.0018794620409607887
1739550769852051500,7.058051513671875,-0.16632814705371857,-0.004041184671223164,-0.018708106130361557
1739550769862120700,7.06812060546875,-0.16806678473949432,-0.007664586417376995,-0.01363014243543148
1739550769872189400,7.078189453125,-0.1689850389957428,-0.005022730678319931,-0.0014424528926610947
1739550769882258700,7.0882587890625,-0.16816812753677368,-0.008806751109659672,0.016194665804505348
1739550769892327400,7.098327392578125,-0.1676674485206604,-0.008854687213897705,0.033253543078899384
1739550769902397700,7.108397705078125,-0.17127291858196259,0.03597916662693024,0.03619186580181122
1739550769912470000,7.118469970703125,-0.17467564344406128,0.06662656366825104,0.027217011898756027
1739550769922539300,7.128539306640625,-0.1767795979976654,0.09015291929244995,0.025960279628634453
1739550769932608000,7.13860791015625,-0.17438647150993347,0.1230355054140091,0.03885903209447861
1739550769942677200,7.14867724609375,-0.16606545448303223,0.12600436806678772,0.04869724065065384
1739550769952747000,7.1587470703125,-0.16791421175003052,0.12311802804470062,0.07078150659799576
1739550769962816300,7.168816162109375,-0.16794073581695557,0.11097700893878937,0.08671286702156067
1739550769972885200,7.17888525390625,-0.15590457618236542,0.097938172519207,0.11002059280872345
1739550769982954200,7.188954345703125,-0.1348642259836197,0.06917154043912888,0.15394200384616852
1739550769993023200,7.199023193359375,-0.11284893751144409,0.049903567880392075,0.21853724122047424
1739550770003092200,7.20909228515625,-0.11088383197784424,0.009514568373560905,0.28526511788368225
1739550770013162200,7.219162353515625,-0.12639914453029633,-0.028103381395339966,0.3166142404079437
1739550770023231200,7.229231201171875,-0.12184341251850128,-0.03422458842396736,0.29560890793800354
1739550770033300200,7.23930029296875,-0.12278297543525696,-0.053995631635189056,0.18761186301708221
1739550770043369200,7.249369140625,-0.14220201969146729,-0.17700108885765076,0.014784515835344791
1739550770053438200,7.259438232421875,-0.18919242918491364,-0.42203211784362793,-0.18665377795696259
1739550770063508200,7.26950830078125,-0.2351689487695694,-0.6329101324081421,-0.38890498876571655
1739550770073577200,7.2795771484375,-0.2363702952861786,-0.6904855370521545,-0.5382433533668518
1739550770083646200,7.289646240234375,-0.23348234593868256,-0.6016891002655029,-0.5972965955734253
1739550770093715200,7.299715087890625,-0.21550440788269043,-0.41491469740867615,-0.578937292098999
1739550770103784200,7.3097841796875,-0.18395215272903442,-0.16470636427402496,-0.47082164883613586
1739550770113853200,7.319853271484375,-0.1503036618232727,0.08691468834877014,-0.30265048146247864
1739550770123923200,7.329923095703125,-0.13399039208889008,0.2818843722343445,-0.13523143529891968
1739550770133992200,7.3399921875,-0.1180548295378685,0.39193472266197205,0.005620485171675682
1739550770144061200,7.350061279296875,-0.0956958532333374,0.3782024383544922,0.09953714907169342
1739550770154130200,7.360130126953125,-0.07682948559522629,0.2929341197013855,0.16911569237709045
1739550770164199200,7.37019921875,-0.056090060621500015,0.16430829465389252,0.21702496707439423
1739550770174269200,7.380269287109375,-0.03867698460817337,0.06951708346605301,0.25881582498550415
1739550770184338200,7.390338134765625,-0.023210717365145683,0.011983823031187057,0.2971470355987549
1739550770194407200,7.4004072265625,-0.01464758813381195,-0.025263147428631783,0.33014705777168274
1739550770204476200,7.41047607421875,-0.0005862400867044926,-0.06887713819742203,0.36362919211387634
1739550770214545200,7.420545166015625,0.02340538054704666,-0.10074079781770706,0.3679586946964264
1739550770224615200,7.430615234375,0.040363654494285583,-0.11193150281906128,0.33291804790496826
1739550770234684200,7.44068408203125,0.03840462863445282,-0.09115538001060486,0.2647903859615326
1739550770244753200,7.450753173828125,0.022280007600784302,-0.06862996518611908,0.17031939327716827
1739550770254822100,7.460822265625,0.0004223785363137722,-0.0679633691906929,0.07823554426431656
1739550770264891100,7.47089111328125,-0.024615328758955002,-0.09617743641138077,0.01656659133732319
1739550770274960400,7.48096044921875,-0.054936483502388,-0.1534673571586609,0.00033249426633119583
1739550770285030100,7.491030029296875,-0.0840706005692482,-0.22640398144721985,0.008996989578008652
1739550770295099100,7.50109912109375,-0.11380186676979065,-0.2721216678619385,0.03574497997760773
1739550770305168100,7.511168212890625,-0.15378665924072266,-0.2858939468860626,0.05514506250619888
1739550770315237400,7.5212373046875,-0.1934238225221634,-0.29656922817230225,0.055887285619974136
1739550770325306000,7.53130615234375,-0.21876439452171326,-0.30536970496177673,0.03314433991909027
1739550770335376400,7.54137646484375,-0.2532038688659668,-0.3219121992588043,-0.010401804000139236
1739550770345445000,7.551445068359375,-0.2805858850479126,-0.337606817483902,-0.04438117519021034
1739550770355514400,7.561514404296875,-0.283994197845459,-0.3264942467212677,-0.07365011423826218
1739550770365583000,7.5715830078125,-0.27556291222572327,-0.26802220940589905,-0.0782659500837326
1739550770375652400,7.58165234375,-0.26256614923477173,-0.1455940157175064,-0.04597778618335724
1739550770385722000,7.59172216796875,-0.24517390131950378,0.006898713763803244,0.01042438205331564
1739550770395791400,7.601791259765625,-0.2100079208612442,0.172414168715477,0.07244913280010223
1739550770405860000,7.611860107421875,-0.16570602357387543,0.29459983110427856,0.11911580711603165
1739550770415929300,7.621929443359375,-0.11947089433670044,0.33884719014167786,0.14211273193359375
1739550770425998300,7.631998291015625,-0.07679643481969833,0.36960387229919434,0.14927807450294495
1739550770436067000,7.642067138671875,-0.04216068610548973,0.3860608637332916,0.11825569719076157
1739550770446137000,7.65213720703125,-0.015109931118786335,0.3737142086029053,0.06374718993902206
1739550770456206000,7.6622060546875,-0.0016979854553937912,0.3453848361968994,0.00433153472840786
1739550770466275300,7.672275390625,0.013962025754153728,0.3443300127983093,-0.06557130813598633
1739550770476344000,7.682343994140625,0.024314530193805695,0.3688449561595917,-0.14227913320064545
1739550770486413300,7.692413330078125,0.028993505984544754,0.37085509300231934,-0.21360206604003906
1739550770496483000,7.702483154296875,0.034109171479940414,0.322240948677063,-0.2653574049472809
1739550770506552300,7.71255224609375,0.034328050911426544,0.2264060378074646,-0.304423063993454
1739550770516621000,7.72262109375,0.030974330380558968,0.12118081748485565,-0.3244550824165344
1739550770526690300,7.732690185546875,0.027954572811722755,0.03205226734280586,-0.3299254775047302
1739550770536759000,7.742759033203125,0.018632443621754646,-0.014537336304783821,-0.31393614411354065
1739550770546829300,7.752829345703125,0.009438714012503624,-0.027550071477890015,-0.29435205459594727
1739550770556898000,7.76289794921875,0.005360083654522896,-0.037228528410196304,-0.2660447955131531
1739550770566967300,7.77296728515625,0.002730993088334799,-0.04243061691522598,-0.23889794945716858
1739550770577036000,7.7830361328125,0.0031930520199239254,-0.037092577666044235,-0.2178211659193039
1739550770587105300,7.793105224609375,0.00811762735247612,-0.030927559360861778,-0.20396441221237183
1739550770597174300,7.80317431640625,0.009512857533991337,-0.04183480143547058,-0.20267464220523834
1739550770607244300,7.813244384765625,0.01124767679721117,-0.06626664102077484,-0.2016005963087082
1739550770617313000,7.82331298828125,0.01952824369072914,-0.08784224092960358,-0.19009439647197723
1739550770627382300,7.83338232421875,0.03159414604306221,-0.10143052041530609,-0.16863256692886353
1739550770637451300,7.843451171875,0.043893955647945404,-0.08144029974937439,-0.1442081779241562
1739550770647520300,7.853520263671875,0.07281336933374405,-0.03729471191763878,-0.12732988595962524
1739550770657590300,7.86359033203125,0.10862995684146881,0.013191098347306252,-0.11652383953332901
1739550770667659300,7.8736591796875,0.1424853503704071,0.09045965224504471,-0.12020738422870636
1739550770677728300,7.883728271484375,0.17888782918453217,0.14400967955589294,-0.12460480630397797
1739550770687797200,7.89379736328125,0.20630960166454315,0.1944497972726822,-0.13300883769989014
1739550770697866200,7.9038662109375,0.22583884000778198,0.22689908742904663,-0.1364952027797699
1739550770707936300,7.913936279296875,0.23917372524738312,0.2241748869419098,-0.12997105717658997
1739550770718005200,7.924005126953125,0.2543225884437561,0.17708539962768555,-0.11558625847101212
1739550770728074200,7.93407421875,0.2683252692222595,0.10990895330905914,-0.10113200545310974
1739550770738143200,7.944143310546875,0.28406164050102234,0.08610454946756363,-0.08713282644748688
1739550770748212200,7.954212158203125,0.2984042465686798,0.10824867337942123,-0.0770174115896225
1739550770758281200,7.96428125,0.31169393658638,0.1488136649131775,-0.07487330585718155
1739550770768351200,7.974351318359375,0.3231153190135956,0.17510443925857544,-0.06525447964668274
1739550770778420200,7.984420166015625,0.32294967770576477,0.19733063876628876,-0.06172925606369972
1739550770788489200,7.9944892578125,0.33077535033226013,0.19753414392471313,-0.061673007905483246
1739550770798558200,8.00455810546875,0.33438846468925476,0.15692360699176788,-0.056930989027023315
1739550770808627200,8.014627197265625,0.3241223096847534,0.11249092221260071,-0.05009675398468971
1739550770818697200,8.024697265625,0.3184729516506195,0.0956331118941307,-0.04158236086368561
1739550770828766200,8.03476611328125,0.3184981942176819,0.0879821851849556,-0.03105269931256771
1739550770838835200,8.044835205078124,0.3193624019622803,0.08123347163200378,-0.024325819686055183
1739550770848904200,8.054904296875,0.31319737434387207,0.09423129260540009,-0.01965622790157795
1739550770858973200,8.06497314453125,0.29998862743377686,0.12769949436187744,-0.011320533230900764
1739550770869043200,8.075043212890625,0.2926129996776581,0.1519443839788437,-0.01971774734556675
1739550770879112200,8.0851123046875,0.2742385268211365,0.15190763771533966,-0.026073379442095757
1739550770889181200,8.09518115234375,0.2506920397281647,0.12067055702209473,-0.02557702735066414
1739550770899250200,8.105250244140626,0.2312813252210617,0.08498259633779526,-0.01693081110715866
1739550770909319400,8.1153193359375,0.209309920668602,0.08891379088163376,-0.009489571675658226
1739550770919389400,8.125389404296875,0.194011390209198,0.08854307979345322,0.006761569529771805
1739550770929458400,8.13545849609375,0.17201447486877441,0.11277344822883606,0.04674188047647476
1739550770939527400,8.14552734375,0.14757117629051208,0.1400143951177597,0.09289339929819107
1739550770949596400,8.155596435546874,0.11963072419166565,0.19185176491737366,0.15068583190441132
1739550770959665700,8.165665771484376,0.10293164104223251,0.2574499547481537,0.2018696665763855
1739550770969735400,8.1757353515625,0.12415918707847595,0.35376837849617004,0.22160039842128754
1739550770979804400,8.185804443359375,0.10648486018180847,0.41722777485847473,0.21408948302268982
1739550770989873400,8.195873291015625,0.05435965582728386,0.40212690830230713,0.19527167081832886
1739550770999942700,8.205942626953124,0.03326768800616264,0.38726890087127686,0.13938097655773163
1739550771010011400,8.216011474609376,0.06868329644203186,0.31100863218307495,0.012717196717858315
1739550771020080600,8.22608056640625,0.11289310455322266,0.23578418791294098,-0.19577822089195251
1739550771030150400,8.236150390625,0.1449889838695526,0.17104022204875946,-0.429157555103302
1739550771040219600,8.2462197265625,0.13823014497756958,0.1520332396030426,-0.6278176307678223
1739550771050288400,8.256288330078124,0.11110125482082367,0.15737110376358032,-0.74777752161026
1739550771060357400,8.266357421875,0.10293173789978027,0.11316104233264923,-0.7687373757362366
1739550771070426400,8.27642626953125,0.10726158320903778,0.005182940047234297,-0.6859066486358643
1739550771080496600,8.28649658203125,0.11748865246772766,-0.10093604028224945,-0.5324196219444275
1739550771090565400,8.2965654296875,0.13674502074718475,-0.19978508353233337,-0.36193546652793884
1739550771100634400,8.30663427734375,0.1527319848537445,-0.23911811411380768,-0.20255248248577118
1739550771110703400,8.316703369140624,0.1458008885383606,-0.22345469892024994,-0.05568496510386467
1739550771120772400,8.3267724609375,0.13633787631988525,-0.18682797253131866,0.08202442526817322
1739550771130842400,8.33684228515625,0.12610553205013275,-0.1103825718164444,0.19856397807598114
1739550771140911400,8.346911376953125,0.09683313220739365,-0.020035363733768463,0.29700055718421936
1739550771150980400,8.35698046875,0.06064837425947189,0.040878523141145706,0.3837721049785614
1739550771161049300,8.36704931640625,0.023175032809376717,0.05505053326487541,0.44532468914985657
1739550771171118600,8.37711865234375,0.0554874949157238,0.029838288202881813,0.4128777086734772
1739550771181188400,8.387188232421876,0.01583382487297058,-0.0031265863217413425,0.37666672468185425
1739550771191257600,8.397257568359375,-0.06995061039924622,-0.12534381449222565,0.3538586497306824
1739550771201326300,8.407326416015625,-0.09593560546636581,-0.34243565797805786,0.29893043637275696
1739550771211395600,8.4173955078125,-0.08618943393230438,-0.5353289842605591,0.18946810066699982
1739550771221464300,8.42746435546875,-0.08593031018972397,-0.6380966305732727,0.07396227866411209
1739550771231533600,8.437533447265626,-0.050659891217947006,-0.645847737789154,-0.01115524210035801
1739550771241603300,8.447603271484375,0.0077826473861932755,-0.5486255288124084,-0.054163962602615356
1739550771251672600,8.457672607421875,0.07443725317716599,-0.3565315306186676,-0.07192892581224442
1739550771261741300,8.4677412109375,0.1214846596121788,-0.17154169082641602,-0.05179356038570404
1739550771271810600,8.477810546875,0.15217554569244385,0.01387733593583107,0.014578696340322495
1739550771281879600,8.487879638671876,0.20014387369155884,0.19795475900173187,0.12302208691835403
1739550771291949600,8.497949462890626,0.23237624764442444,0.3332121670246124,0.23715214431285858
1739550771302018300,8.508018310546875,0.23190833628177643,0.3579058051109314,0.3009667992591858
1739550771312087600,8.518087646484375,0.21373413503170013,0.3069160580635071,0.310129314661026
1739550771322156500,8.528156494140624,0.1939591020345688,0.2267242968082428,0.2699108123779297
1739550771332225500,8.5382255859375,0.1744840145111084,0.12522320449352264,0.1846374273300171
1739550771342295300,8.54829541015625,0.14061444997787476,0.04657871276140213,0.07815945893526077
1739550771352364500,8.558364501953125,0.0986226350069046,-0.024746961891651154,-0.013080013915896416
1739550771362433500,8.56843359375,0.056947894394397736,-0.11184830963611603,-0.06986606121063232
1739550771372502500,8.57850244140625,0.029721200466156006,-0.16919219493865967,-0.06440328061580658
1739550771382571500,8.588571533203124,0.01449564564973116,-0.1742607206106186,-0.007547185756266117
1739550771392640300,8.59864013671875,0.0019183093681931496,-0.15012617409229279,0.06845370680093765
1739550771402710500,8.60871044921875,-0.0055167037062346935,-0.1262650489807129,0.12887176871299744
1739550771412779300,8.618779296875,-0.011272944509983063,-0.12056706845760345,0.15157940983772278
1739550771422848500,8.6288486328125,-0.015918562188744545,-0.11935213208198547,0.13318708539009094
1739550771432917200,8.638917236328124,-0.015867317095398903,-0.10827706754207611,0.1045706495642662
1739550771442986500,8.648986572265626,-0.010164156556129456,-0.09039688110351562,0.06352441012859344
1739550771453056300,8.65905615234375,-0.008282260969281197,-0.1105743870139122,0.019442643970251083
1739550771463125500,8.66912548828125,-0.001685077790170908,-0.1324748992919922,-0.022592954337596893
1739550771473194200,8.6791943359375,0.0025051748380064964,-0.16198937594890594,-0.04612411931157112
1739550771483263500,8.689263427734375,0.0125450249761343,-0.18587659299373627,-0.05984845757484436
1739550771493332500,8.69933251953125,0.02361585944890976,-0.196112260222435,-0.0625244528055191
1739550771503402500,8.709402587890626,0.03558836504817009,-0.16921167075634003,-0.04145032912492752
1739550771513471500,8.719471435546875,0.04789438843727112,-0.11252987384796143,-0.00637291744351387
1739550771523540500,8.72954052734375,0.062013931572437286,-0.06982076168060303,0.03452684357762337
1739550771533609500,8.739609375,0.06444235891103745,-0.02779265306890011,0.061409302055835724
1739550771543678500,8.749678466796874,0.05705048888921738,-0.023389382287859917,0.06559845060110092
1739550771553747500,8.75974755859375,0.047669023275375366,-0.053004659712314606,0.041209347546100616
1739550771563817500,8.7698173828125,0.035929277539253235,-0.07313016802072525,0.005248949863016605
1739550771573886500,8.779886474609375,0.012556023895740509,-0.07488319277763367,-0.03930187225341797
1739550771583955500,8.78995556640625,-0.008092794567346573,-0.06234769895672798,-0.0805201455950737
1739550771594024400,8.8000244140625,-0.03247170150279999,-0.04535050690174103,-0.10763156414031982
1739550771604093400,8.810093505859374,-0.06221015006303787,-0.041658032685518265,-0.11073574423789978
1739550771614163500,8.82016357421875,-0.09548082947731018,-0.050573233515024185,-0.09207230061292648
1739550771624232400,8.830232421875,-0.11557890474796295,-0.062380094081163406,-0.06825138628482819
1739550771634301400,8.840301513671875,-0.14027100801467896,-0.03689700365066528,-0.04899636656045914
1739550771644370400,8.850370361328125,-0.16304689645767212,-0.008106634020805359,-0.05155140161514282
1739550771654439400,8.860439453125,-0.18415629863739014,0.019803093746304512,-0.08723688870668411
1739550771664509400,8.870509521484376,-0.20066045224666595,0.04792926833033562,-0.1634613573551178
1739550771674578400,8.880578369140625,-0.21821409463882446,0.061010558158159256,-0.22691082954406738
1739550771684647700,8.890647705078125,-0.2334444373846054,0.04207441955804825,-0.2595771551132202
1739550771694716400,8.90071630859375,-0.22029338777065277,0.014746055006980896,-0.274600625038147
1739550771704785400,8.910785400390624,-0.20581696927547455,0.005350689869374037,-0.2630361318588257
1739550771714855400,8.92085546875,-0.2042577862739563,0.031055087223649025,-0.22030428051948547
1739550771724924700,8.930924560546876,-0.19341446459293365,0.06774598360061646,-0.1655571460723877
1739550771734993400,8.940993408203125,-0.17906709015369415,0.07979179918766022,-0.10897529125213623
1739550771745062400,8.9510625,-0.1697436422109604,0.06330124288797379,-0.06597402691841125
1739550771755131400,8.96113134765625,-0.16519787907600403,0.033902738243341446,-0.0305786170065403
1739550771765200400,8.971200439453124,-0.16158849000930786,0.0011072410270571709,-0.015079020522534847
1739550771775270400,8.9812705078125,-0.16046114265918732,-0.016385037451982498,-0.018107395619153976
1739550771785339400,8.99133935546875,-0.16664500534534454,-0.03408307582139969,-0.01264684833586216
1739550771795408400,9.001408447265625,-0.1777144968509674,-0.06006743386387825,0.012433303520083427
1739550771805477400,9.011477294921875,-0.1889794021844864,-0.07301146537065506,0.047556668519973755
1739550771815546600,9.021546630859374,-0.19143541157245636,-0.06697437167167664,0.10993105918169022
1739550771825616400,9.031616455078124,-0.1968890279531479,-0.05815931037068367,0.1751002073287964
1739550771835685400,9.041685302734376,-0.19524824619293213,-0.08017979562282562,0.2257174551486969
1739550771845754400,9.05175439453125,-0.19646504521369934,-0.10824977606534958,0.2609494626522064
1739550771855823600,9.06182373046875,-0.20022152364253998,-0.09393556416034698,0.26732590794563293
1739550771865892400,9.071892333984374,-0.224595308303833,-0.06590019911527634,0.22432570159435272
1739550771875962400,9.08196240234375,-0.24365803599357605,-0.11270683258771896,0.13424371182918549
1739550771886031400,9.09203125,-0.2592580318450928,-0.24965190887451172,0.047389499843120575
1739550771896100600,9.1021005859375,-0.2720676362514496,-0.3783130645751953,-0.01114286296069622
1739550771906169300,9.11216943359375,-0.28551366925239563,-0.4739181399345398,-0.06709108501672745
1739550771916234800,9.12223486328125,-0.29344213008880615,-0.5462198853492737,-0.11935336142778397
1739550771926304800,9.1323046875,-0.2936096489429474,-0.531467854976654,-0.15652549266815186
1739550771936373800,9.142373779296875,-0.2771271765232086,-0.4865535795688629,-0.1828065812587738
1739550771946442500,9.1524423828125,-0.12053833901882172,-0.4276428520679474,-0.21714192628860474
1739550771956511700,9.16251171875,-0.06378432363271713,-0.29576367139816284,-0.19994960725307465
1739550771966580700,9.172580810546876,-0.10852862149477005,-0.08004999905824661,-0.18732967972755432
1739550771976650800,9.182650634765626,-0.14509910345077515,0.1021985113620758,-0.15919911861419678
1739550771986719500,9.192719482421875,-0.15550567209720612,0.16435189545154572,-0.10383492708206177
1739550771996788700,9.202788818359375,-0.1080554872751236,0.17383374273777008,-0.0407622791826725
1739550772006857700,9.212857666015625,0.06673363596200943,0.14116555452346802,-0.032431647181510925
1739550772016926700,9.2229267578125,0.164438858628273,0.24036084115505219,-0.010931141674518585
1739550772026995700,9.23299560546875,0.2390233427286148,0.3427002429962158,0.011400262825191021
1739550772037065700,9.243065673828125,0.27022016048431396,0.42380574345588684,0.06377478688955307
1739550772047134700,9.253134765625,0.2866678237915039,0.5086468458175659,0.1455700397491455
1739550772057203700,9.26320361328125,0.2857273519039154,0.4794817268848419,0.25016456842422485
1739550772067272700,9.273272705078124,0.24821271002292633,0.3478909432888031,0.3624727427959442
1739550772077341700,9.283341796875,0.19855602085590363,0.21003951132297516,0.4824855923652649
1739550772087411700,9.29341162109375,0.15096347033977509,0.12242737412452698,0.617123007774353
1739550772097480700,9.303480712890625,0.060830388218164444,0.02836119756102562,0.7305623888969421
1739550772107549700,9.3135498046875,-0.00395180145278573,-0.053614627569913864,0.796251118183136
1739550772117618700,9.32361865234375,-0.04471025615930557,-0.10199327766895294,0.7946210503578186
1739550772127687700,9.333687744140626,-0.05900530517101288,-0.1534402221441269,0.7294228672981262
1739550772137757700,9.3437578125,-0.1348603367805481,-0.1895568072795868,0.6417059302330017
1739550772147826700,9.35382666015625,-0.21094737946987152,-0.19104045629501343,0.5055148005485535
1739550772157895700,9.363895751953125,-0.27192819118499756,-0.19419467449188232,0.3085794150829315
1739550772167964700,9.373964599609375,-0.3164229691028595,-0.2040470391511917,0.11058802902698517
1739550772178033700,9.38403369140625,-0.3741808235645294,-0.2517623007297516,-0.0365971103310585
1739550772188103700,9.394103759765626,-0.4315786063671112,-0.30819812417030334,-0.12255355715751648
1739550772198173000,9.4041728515625,-0.4621906280517578,-0.33807069063186646,-0.16383907198905945
1739550772208241700,9.41424169921875,-0.43989038467407227,-0.32531601190567017,-0.18488603830337524
1739550772218310700,9.424310546875,-0.42788392305374146,-0.2923165559768677,-0.17916347086429596
1739550772228379600,9.434379638671874,-0.41798362135887146,-0.21711313724517822,-0.1524389088153839
1739550772238450000,9.444449951171874,-0.4015938341617584,-0.07433025538921356,-0.10218995809555054
1739550772248518700,9.4545185546875,-0.37578248977661133,0.07752318680286407,-0.034359514713287354
1739550772258587600,9.464587646484375,-0.34013816714286804,0.20187096297740936,0.032523371279239655
1739550772268656600,9.47465673828125,-0.2986283004283905,0.31307634711265564,0.09421176463365555
1739550772278725600,9.4847255859375,-0.25850802659988403,0.37856027483940125,0.1409745216369629
1739550772288795600,9.494795654296874,-0.22278065979480743,0.4128607213497162,0.17136386036872864
1739550772298864600,9.50486474609375,-0.1834281086921692,0.39389052987098694,0.1799672245979309
1739550772308933600,9.51493359375,-0.11353131383657455,0.3134004771709442,0.16272778809070587
1739550772319002600,9.525002685546875,-0.10266506671905518,0.3040284216403961,0.12934786081314087
1739550772329071900,9.53507177734375,-0.10609282553195953,0.2729240357875824,0.07175726443529129
1739550772339140600,9.545140625,-0.10397566854953766,0.24988970160484314,-0.018288061022758484
1739550772349210600,9.555210693359374,-0.09243512898683548,0.23067258298397064,-0.11229366064071655
1739550772359279600,9.565279541015625,-0.0836908221244812,0.21253517270088196,-0.1944018006324768
1739550772369348900,9.575348876953125,-0.07989848405122757,0.16842763125896454,-0.24885092675685883
1739550772379417600,9.58541748046875,-0.07586318999528885,0.11102575808763504,-0.2849525809288025
1739550772389486800,9.59548681640625,-0.06955575942993164,0.09609527885913849,-0.29919329285621643
1739550772399556600,9.605556640625,-0.06667856872081757,0.12135292589664459,-0.28565433621406555
1739550772409625900,9.6156259765625,-0.05570368096232414,0.1531641185283661,-0.2298845648765564
1739550772419694600,9.625694580078125,-0.02181977406144142,0.14856760203838348,-0.16031312942504883
1739550772429763800,9.635763916015625,0.003954831510782242,0.13405124843120575,-0.09242088347673416
1739550772439832600,9.64583251953125,0.0193377286195755,0.11847107857465744,-0.04698827862739563
1739550772449902800,9.65590283203125,0.04384573549032211,0.090130515396595,-0.026001503691077232
1739550772459971600,9.6659716796875,0.07520268857479095,0.06005028635263443,-0.023272402584552765
1739550772470040800,9.676040771484375,0.09581022709608078,0.028597021475434303,-0.04685496166348457
1739550772480109600,9.686109619140625,0.10944024473428726,-0.01590815931558609,-0.0737830176949501
1739550772490178600,9.696178466796875,0.12193473428487778,-0.06449779868125916,-0.09698794037103653
1739550772500248600,9.70624853515625,0.12989506125450134,-0.11518608033657074,-0.12080465257167816
1739550772510317800,9.71631787109375,0.13563017547130585,-0.13199567794799805,-0.14284656941890717
1739550772520386800,9.72638671875,0.13570906221866608,-0.13975436985492706,-0.15615209937095642
1739550772530455600,9.73645556640625,0.14323969185352325,-0.14742186665534973,-0.14615033566951752
1739550772540524800,9.74652490234375,0.15354694426059723,-0.10306572914123535,-0.13597293198108673
1739550772550594800,9.7565947265625,0.17036667466163635,-0.053444646298885345,-0.12325499206781387
1739550772560663800,9.766663818359374,0.18306078016757965,-0.004397570621222258,-0.11670826375484467
1739550772570732500,9.776732666015626,0.19565246999263763,0.04906432330608368,-0.1063685417175293
1739550772580801800,9.7868017578125,0.20167821645736694,0.09596451371908188,-0.10007062554359436
1739550772590870500,9.79687060546875,0.2043887823820114,0.10786166042089462,-0.0879303365945816
1739550772600940800,9.80694091796875,0.21140451729297638,0.10879149287939072,-0.09105993807315826
1739550772611009500,9.817009521484374,0.22015325725078583,0.11969048529863358,-0.09853462874889374
1739550772621078800,9.827078857421874,0.22833946347236633,0.13316947221755981,-0.10270175337791443
1739550772631147500,9.8371474609375,0.2339363545179367,0.14697955548763275,-0.10242291539907455
1739550772641216800,9.847216796875,0.24023176729679108,0.15763480961322784,-0.09403403848409653
1739550772651285800,9.85728564453125,0.24927987158298492,0.1678387075662613,-0.0654924139380455
1739550772661355800,9.867355712890625,0.25372445583343506,0.15912586450576782,-0.0355244055390358
1739550772671424500,9.877424560546874,0.2574113607406616,0.13084203004837036,-0.014096612110733986
1739550772681493800,9.88749365234375,0.2666500210762024,0.09545348584651947,-0.00803759228438139
1739550772691562800,9.897562744140625,0.27740785479545593,0.04664439707994461,0.00216098316013813
1739550772701631700,9.9076318359375,0.28368252515792847,0.05541522800922394,0.0014581307768821716
1739550772711701500,9.917701416015625,0.2921806871891022,0.07975412160158157,0.012574165128171444
1739550772721770800,9.927770751953124,0.2866446375846863,0.1053539589047432,0.034336384385824203
1739550772731839700,9.93783984375,0.29243701696395874,0.11836296319961548,0.06861606240272522
1739550772741908700,9.94790869140625,0.2923051118850708,0.10414617508649826,0.09572967141866684
1739550772751977700,9.957977783203125,0.286535382270813,0.051993228495121,0.11376433819532394
1739550772762047700,9.9680478515625,0.28070056438446045,-0.05961200222373009,0.10036292672157288
1739550772772116700,9.97811669921875,0.2909393608570099,-0.20958177745342255,0.062140971422195435
1739550772782185700,9.988185791015624,0.3056080639362335,-0.3237171769142151,0.007240120321512222
1739550772792254700,9.998254638671876,0.3167653977870941,-0.39920714497566223,-0.08700915426015854
1739550772802323500,10.008323486328125,0.33541175723075867,-0.41659796237945557,-0.20322825014591217
1739550772812393700,10.018393798828125,0.31640103459358215,-0.3581479787826538,-0.308824747800827
1739550772822462700,10.028462646484375,0.2944931983947754,-0.2917101979255676,-0.3898046314716339
1739550772832531700,10.03853173828125,0.3120388984680176,-0.25909340381622314,-0.4346277713775635
1739550772842600700,10.0486005859375,0.31903159618377686,-0.2798433303833008,-0.4419521689414978
1739550772852669700,10.058669677734375,0.2888728976249695,-0.2955671548843384,-0.392953485250473
1739550772862739700,10.06873974609375,0.23931272327899933,-0.29006966948509216,-0.3026822507381439
1739550772872808700,10.07880859375,0.1881621927022934,-0.23987893760204315,-0.17499911785125732
1739550772882877700,10.088877685546874,0.14880356192588806,-0.18346725404262543,-0.03139609098434448
1739550772892946700,10.09894677734375,0.1072702407836914,-0.14749354124069214,0.10164477676153183
1739550772903015700,10.109015625,0.05478765815496445,-0.10469312220811844,0.21287621557712555
1739550772913086000,10.1190859375,0.006784182973206043,-0.05860978737473488,0.30593451857566833
1739550772923155000,10.129155029296875,-0.02637357823550701,0.033827509731054306,0.38826724886894226
1739550772933224000,10.139223876953125,-0.045895613729953766,0.1618126481771469,0.45019957423210144
1739550772943293200,10.149293212890624,-0.05579204112291336,0.2867441475391388,0.48177370429039
1739550772953362000,10.15936181640625,-0.049869436770677567,0.3665897250175476,0.48571333289146423
1739550772963431000,10.169430908203125,-0.05069613829255104,0.3569510877132416,0.472801148891449
1739550772973501000,10.1795009765625,-0.04624679684638977,0.28916722536087036,0.451688677072525
1739550772983570200,10.189570068359375,-0.038062211126089096,0.18932029604911804,0.3793361783027649
1739550772993639000,10.199638916015624,-0.020246196538209915,0.027184922248125076,0.26017171144485474
1739550773003708000,10.2097080078125,-0.014763771556317806,-0.16339139640331268,0.1270643025636673
1739550773013777000,10.21977685546875,-0.0031515900045633316,-0.31427809596061707,0.020104290917515755
1739550773023847200,10.22984716796875,0.03432009741663933,-0.38378462195396423,-0.039420679211616516
1739550773033916000,10.239916015625,0.08972716331481934,-0.35494205355644226,-0.03643527254462242
1739550773043985000,10.24998486328125,0.15219616889953613,-0.27020263671875,0.02538898214697838
1739550773054054100,10.26005419921875,0.20106357336044312,-0.14343322813510895,0.1327868103981018
1739550773064123000,10.270122802734376,0.24466195702552795,0.004323873203247786,0.2561224699020386
1739550773074193000,10.28019287109375,0.2894171476364136,0.1612865924835205,0.3494987487792969
1739550773084262000,10.290261962890625,0.31215929985046387,0.2706804871559143,0.3852381110191345
1739550773094331100,10.3003310546875,0.3040667474269867,0.33327195048332214,0.3713984787464142
1739550773104400000,10.31039990234375,0.28636282682418823,0.32352447509765625,0.2972898483276367
1739550773114469000,10.32046923828125,0.25819724798202515,0.27106207609176636,0.20228211581707
1739550773124539000,10.330538818359376,0.22813960909843445,0.18724702298641205,0.09762142598628998
1739550773134608100,10.340608154296875,0.20212692022323608,0.10239072144031525,-0.0007544169202446938
1739550773144676900,10.3506767578125,0.163596972823143,0.015443135052919388,-0.08149389177560806
1739550773154746000,10.36074609375,0.12579447031021118,-0.055764466524124146,-0.13504500687122345
1739550773164814800,10.37081494140625,0.09902843087911606,-0.08391860127449036,-0.14675599336624146
1739550773174885000,10.380885009765626,0.07481151074171066,-0.06905709952116013,-0.12301898002624512
1739550773184953900,10.390953857421875,0.05151001363992691,-0.05764615908265114,-0.08807578682899475
1739550773195023000,10.401023193359375,0.03159675747156143,-0.06384412944316864,-0.06142260134220123
1739550773205091800,10.411091796875,0.020361386239528656,-0.08584041148424149,-0.05226629972457886
1739550773215161000,10.4211611328125,0.011189458891749382,-0.12187936902046204,-0.07458092272281647
1739550773225230000,10.43122998046875,-0.0036190925166010857,-0.14320573210716248,-0.1118585616350174
1739550773235300000,10.441300048828126,-0.014491980895400047,-0.1392754316329956,-0.14375896751880646
1739550773245368800,10.451368896484375,-0.02407127059996128,-0.09773021936416626,-0.165336012840271
1739550773255438000,10.46143798828125,-0.024534128606319427,-0.049081191420555115,-0.18004544079303741
1739550773265507000,10.471507080078124,-0.024273380637168884,-0.021244604140520096,-0.18871678411960602
1739550773275575800,10.481575927734376,-0.021366804838180542,-0.03808057680726051,-0.18242107331752777
1739550773285646000,10.49164599609375,-0.028213968500494957,-0.0794479250907898,-0.17216569185256958
1739550773295715000,10.501715087890625,-0.033917926251888275,-0.12431339919567108,-0.1638084352016449
1739550773305784000,10.5117841796875,-0.03511141613125801,-0.14324641227722168,-0.16694118082523346
1739550773315852800,10.521852783203125,-0.03704007714986801,-0.11142989248037338,-0.18020105361938477
1739550773325922000,10.531922119140624,-0.046691879630088806,-0.08582735806703568,-0.19851700961589813
1739550773335992000,10.541991943359376,-0.05224829912185669,-0.06603873521089554,-0.2025735229253769
1739550773346061000,10.55206103515625,-0.057574398815631866,-0.0419609397649765,-0.18306061625480652
1739550773356129800,10.5621298828125,-0.06810479611158371,-0.016849460080266,-0.15195517241954803
1739550773366199000,10.572198974609375,-0.07251708954572678,0.01581714116036892,-0.11179549992084503
1739550773376268000,10.58226806640625,-0.07804980874061584,0.02690201811492443,-0.06440215557813644
1739550773386338000,10.592338134765624,-0.09270448237657547,0.022946789860725403,-0.01622946187853813
1739550773396406800,10.60240673828125,-0.10918252915143967,0.03256319835782051,0.030152684077620506
1739550773406476000,10.61247607421875,-0.12285900115966797,0.020734570920467377,0.057780902832746506
1739550773416545000,10.622544921875,-0.14136050641536713,0.018690329045057297,0.0782153382897377
1739550773426614000,10.632614013671875,-0.17012974619865417,0.003213698510080576,0.0825374573469162
1739550773436683800,10.642683837890624,-0.18533825874328613,-0.004639431368559599,0.0929940938949585
1739550773446753000,10.6527529296875,-0.20495115220546722,-0.01107778586447239,0.09922625124454498
1739550773456822000,10.662822021484375,-0.21022740006446838,-0.008186658844351768,0.10669375956058502
1739550773466891000,10.67289111328125,-0.20770713686943054,0.0005612242966890335,0.10931476950645447
1739550773476960000,10.6829599609375,-0.2060951292514801,0.0045783366076648235,0.10218096524477005
1739550773487029000,10.693029052734374,-0.20399461686611176,0.009326254948973656,0.08708912879228592
1739550773497099000,10.70309912109375,-0.19794151186943054,0.00911400094628334,0.0726713091135025
1739550773507168000,10.71316796875,-0.19834978878498077,-0.008484302088618279,0.0495205819606781
1739550773517237000,10.723237060546875,-0.19841769337654114,-0.02612508088350296,0.023175794631242752
1739550773527306000,10.733305908203125,-0.2036924511194229,-0.03417987748980522,-0.004213293083012104
1739550773537375000,10.743375,-0.2015102505683899,-0.058636751025915146,-0.03186063468456268
1739550773547445000,10.753445068359374,-0.21135313808918,-0.05673997476696968,-0.04908349737524986
1739550773557514000,10.763513916015626,-0.22768843173980713,-0.05374898016452789,-0.06076332554221153
1739550773567583000,10.7735830078125,-0.2297510951757431,-0.04049070179462433,-0.07692897319793701
1739550773577652000,10.78365185546875,-0.23658183217048645,-0.04194052517414093,-0.0721195712685585
1739550773587721200,10.79372119140625,-0.24335207045078278,-0.04590793699026108,-0.049575742334127426
1739550773597791000,10.803791015625,-0.237153559923172,-0.04502084106206894,-0.01401135791093111
1739550773607860000,10.81385986328125,-0.2299608439207077,-0.04177350923418999,0.031000446528196335
1739550773617929000,10.823928955078125,-0.216305211186409,-0.05342191085219383,0.07547896355390549
1739550773627998000,10.833998046875,-0.21030019223690033,-0.0672440230846405,0.09923674166202545
1739550773638067000,10.84406689453125,-0.22700034081935883,-0.08312071859836578,0.10145808756351471
1739550773648136000,10.854135986328124,-0.24528372287750244,-0.1014961302280426,0.07583194226026535
1739550773658206000,10.8642060546875,-0.25579869747161865,-0.1351664811372757,0.01765945367515087
1739550773668275000,10.87427490234375,-0.26525890827178955,-0.18822334706783295,-0.08432339131832123
1739550773678344000,10.884343994140625,-0.27434319257736206,-0.2315596342086792,-0.21637490391731262
1739550773688413000,10.894412841796875,-0.28113028407096863,-0.24527867138385773,-0.34667545557022095
1739550773698482000,10.90448193359375,-0.2924244701862335,-0.25718194246292114,-0.45124551653862
1739550773708552000,10.914552001953124,-0.2976195514202118,-0.2706669867038727,-0.5259084105491638
1739550773718621000,10.924620849609376,-0.2913603186607361,-0.2576388120651245,-0.5398926734924316
1739550773728690000,10.93468994140625,-0.2888501286506653,-0.20434609055519104,-0.5093494653701782
1739550773738759200,10.94475927734375,-0.30430126190185547,-0.12130126357078552,-0.43948519229888916
1739550773748828000,10.954827880859375,-0.32150205969810486,-0.027830300852656364,-0.3533738851547241
1739550773758898000,10.96489794921875,-0.3241138160228729,0.05814079940319061,-0.25497832894325256
1739550773768967000,10.974966796875,-0.30650216341018677,0.14881578087806702,-0.15251435339450836
1739550773779036200,10.9850361328125,-0.281829297542572,0.23836855590343475,-0.0465538315474987
1739550773789105000,10.99510498046875,-0.2623034417629242,0.3107675015926361,0.0682559609413147
1739550773799174100,11.005174072265625,-0.22377413511276245,0.35351523756980896,0.1905142366886139
1739550773809243000,11.015242919921874,-0.18738742172718048,0.36391445994377136,0.3197304308414459
1739550773819313200,11.025313232421874,-0.16427971422672272,0.3683971166610718,0.42517322301864624
1739550773829382000,11.0353818359375,-0.14833523333072662,0.3351903557777405,0.4971349537372589
1739550773839451100,11.045451171875,-0.13805276155471802,0.24418532848358154,0.5300045013427734
1739550773849519900,11.055519775390625,-0.1436334103345871,0.1150255873799324,0.5253112316131592
1739550773859589000,11.065589111328125,-0.1560530662536621,-0.0315910167992115,0.4744960367679596
1739550773869659000,11.075658935546874,-0.1705969274044037,-0.18989147245883942,0.3629215657711029
1739550773879728000,11.08572802734375,-0.19386416673660278,-0.3327077627182007,0.21710893511772156
1739550773889796900,11.095796875,-0.22387710213661194,-0.40194374322891235,0.06659621000289917
1739550773899866000,11.1058662109375,-0.2454950362443924,-0.4016454815864563,-0.059169966727495193
1739550773909934800,11.115934814453125,-0.26597416400909424,-0.33249959349632263,-0.1454555094242096
1739550773920003800,11.12600390625,-0.2871875762939453,-0.20134049654006958,-0.2008199691772461
1739550773930073900,11.136073974609374,-0.28931912779808044,-0.0800451710820198,-0.22865603864192963
1739550773940142800,11.146142822265626,-0.2725563943386078,0.045775070786476135,-0.23701117932796478
1739550773950211800,11.1562119140625,-0.2419441193342209,0.1891210526227951,-0.23809535801410675
1739550773960280800,11.16628076171875,-0.20781545341014862,0.3179647922515869,-0.24133135378360748
1739550773970349800,11.176349853515624,-0.17064477503299713,0.3832170069217682,-0.25519177317619324
1739550773980419800,11.186419921875,-0.13925622403621674,0.3738762438297272,-0.25755318999290466
1739550773990488800,11.19648876953125,-0.10672218352556229,0.3411944806575775,-0.23830784857273102
1739550774000557800,11.206557861328125,-0.07906339317560196,0.2659822702407837,-0.21045732498168945
1739550774010626800,11.216626708984375,-0.05336146429181099,0.1707761287689209,-0.17119088768959045
1739550774020695800,11.22669580078125,-0.023441648110747337,0.07919401675462723,-0.13769684731960297
1739550774030765800,11.236765869140624,0.0031917323358356953,0.005891137756407261,-0.12389436364173889
1739550774040834800,11.246834716796876,0.024728981778025627,-0.05736745893955231,-0.14297299087047577
1739550774050903800,11.25690380859375,0.037059810012578964,-0.10615037381649017,-0.17833304405212402
1739550774060973000,11.26697314453125,0.04769700765609741,-0.14379867911338806,-0.21290913224220276
1739550774071041800,11.277041748046875,0.052195195108652115,-0.15281541645526886,-0.24309077858924866
1739550774081110800,11.28711083984375,0.053221579641103745,-0.11627259105443954,-0.26088178157806396
1739550774091180800,11.297180908203124,0.0546213835477829,-0.06327767670154572,-0.2699257731437683
1739550774101250000,11.30725,0.061586350202560425,-0.0044308737851679325,-0.28054991364479065
1739550774111318800,11.31731884765625,0.05818328261375427,0.05243956297636032,-0.28286582231521606
1739550774121387800,11.3273876953125,0.06500949710607529,0.10239620506763458,-0.27804097533226013
1739550774131456800,11.337456787109375,0.07284151017665863,0.12967440485954285,-0.2642418146133423
1739550774141527000,11.347527099609374,0.08106854557991028,0.11090630292892456,-0.2548113167285919
1739550774151595800,11.357595703125,0.08618513494729996,0.09465549141168594,-0.23595179617404938
1739550774161664800,11.367664794921875,0.10113053023815155,0.05425294116139412,-0.21738342940807343
1739550774171733800,11.377733642578125,0.11096331477165222,0.03203335031867027,-0.1997613161802292
1739550774181802800,11.387802734375,0.11211860179901123,0.03056967630982399,-0.19570638239383698
1739550774191872000,11.3978720703125,0.11727828532457352,0.04278158023953438,-0.18252752721309662
1739550774201941800,11.407941650390624,0.1279708743095398,0.023325858637690544,-0.1580331027507782
1739550774212010800,11.4180107421875,0.13819819688796997,-0.0038499413058161736,-0.11683569103479385
1739550774222079700,11.428079833984375,0.15062958002090454,-0.025268679484725,-0.0601271390914917
1739550774232149000,11.43814892578125,0.17486508190631866,-0.019732827320694923,0.010323509573936462
1739550774242217700,11.4482177734375,0.20490527153015137,0.0016206642612814903,0.07730627059936523
1739550774252287000,11.458286865234374,0.22617147862911224,0.02434135042130947,0.11808134615421295
1739550774262356700,11.468356689453126,0.24398189783096313,0.031151585280895233,0.12398290634155273
1739550774272426000,11.478426025390625,0.26008719205856323,0.04331430420279503,0.1176004558801651
1739550774282494700,11.48849462890625,0.2670140564441681,0.06702176481485367,0.1077643409371376
1739550774292564000,11.49856396484375,0.2706335783004761,0.08415520936250687,0.09575881063938141
1739550774302632700,11.5086328125,0.27317821979522705,0.10250838845968246,0.07850471884012222
1739550774312703000,11.518702880859376,0.2832014262676239,0.12030048668384552,0.05668950453400612
1739550774322771700,11.528771728515625,0.2883296012878418,0.11921313405036926,0.040602412074804306
1739550774332841000,11.538841064453125,0.288857102394104,0.1327698677778244,0.021711956709623337
1739550774342909700,11.54890966796875,0.286059707403183,0.14516128599643707,0.005991315469145775
1739550774352978700,11.558978759765624,0.2806555926799774,0.1569865345954895,-0.005606429651379585
1739550774363048700,11.569048583984374,0.2810702323913574,0.1537366807460785,-0.00015600398182868958
1739550774373118000,11.579117919921876,0.2724190652370453,0.13148145377635956,0.025609787553548813
1739550774383187000,11.58918701171875,0.2703532576560974,0.11304518580436707,0.04810630530118942
1739550774393255700,11.599255615234375,0.2682870030403137,0.09693033993244171,0.07027360796928406
1739550774403325000,11.609324951171875,0.2661040127277374,0.09012329578399658,0.0856080874800682
1739550774413393700,11.6193935546875,0.27220210433006287,0.092107854783535,0.10628189891576767
1739550774423464000,11.6294638671875,0.2786506712436676,0.0820043534040451,0.13287729024887085
1739550774433532700,11.63953271484375,0.2730870544910431,0.09099547564983368,0.16941404342651367
1739550774443602000,11.649601806640625,0.2582623064517975,0.1003333181142807,0.20615313947200775
1739550774453670700,11.659670654296875,0.24883629381656647,0.08266830444335938,0.23810549080371857
1739550774463740000,11.669739990234374,0.23816846311092377,0.04226468876004219,0.2665483057498932
1739550774473808600,11.67980859375,0.24441182613372803,0.012157956138253212,0.29705777764320374
1739550774483879000,11.68987890625,0.2618347406387329,0.022159991785883904,0.3228166699409485
1739550774493947600,11.69994775390625,0.2630522847175598,0.0629284530878067,0.32334184646606445
1739550774504017000,11.710016845703125,0.2550329864025116,0.07520748674869537,0.31536009907722473
1739550774514086000,11.7200859375,0.25703737139701843,0.02720135636627674,0.29581648111343384
1739550774524155000,11.73015478515625,0.26130348443984985,-0.035288918763399124,0.2462952584028244
1739550774534224600,11.740224609375,0.27265816926956177,-0.1015617623925209,0.12102757394313812
1739550774544294000,11.7502939453125,0.2876693308353424,-0.16829311847686768,-0.0620168037712574
1739550774554363000,11.76036279296875,0.2979157269001007,-0.2127400040626526,-0.25104910135269165
1739550774564432000,11.770431884765625,0.28402575850486755,-0.20168469846248627,-0.40142369270324707
1739550774574500900,11.7805009765625,0.2878681421279907,-0.17688041925430298,-0.4738927185535431
1739550774584569900,11.79056982421875,0.29453885555267334,-0.14845728874206543,-0.46640604734420776
1739550774594640000,11.800639892578126,0.28776708245277405,-0.12888233363628387,-0.38429203629493713
1739550774604708900,11.810708984375,0.2531830072402954,-0.10022325813770294,-0.22853919863700867
1739550774614777900,11.82077783203125,0.2199883759021759,-0.05945584177970886,-0.02242094650864601
1739550774624846800,11.830846923828124,0.1853715479373932,0.006632364355027676,0.16611036658287048
1739550774634915800,11.840915771484376,0.14289015531539917,0.09159908443689346,0.31276336312294006
1739550774644984800,11.85098486328125,0.09672479331493378,0.19073818624019623,0.42617326974868774
1739550774655054800,11.861054931640625,0.06823776662349701,0.2569212019443512,0.5047088265419006
1739550774665123800,11.871123779296875,0.030918356031179428,0.27722620964050293,0.5555235147476196
1739550774675192800,11.88119287109375,0.002400826197117567,0.25887513160705566,0.5566045045852661
1739550774685261800,11.89126171875,-0.013277469202876091,0.2552207410335541,0.5251706838607788
1739550774695330800,11.901330810546876,-0.029344184324145317,0.2324099987745285,0.42974668741226196
1739550774705400800,11.91140087890625,0.041966479271650314,0.1679268777370453,0.2844374477863312
1739550774715469800,11.9214697265625,0.07915740460157394,0.18725167214870453,0.13368238508701324
1739550774725538800,11.931538818359375,0.04800267890095711,0.20824669301509857,-0.0003728838637471199
1739550774735607800,11.94160791015625,-0.037167564034461975,0.1595727652311325,-0.070639468729496
1739550774745676800,11.9516767578125,-0.0956583023071289,-0.028661314398050308,-0.10581795871257782
1739550774755745800,11.961745849609375,-0.05472128465771675,-0.2936690151691437,-0.15173643827438354
1739550774765815800,11.97181591796875,0.029684940353035927,-0.4482197165489197,-0.21206235885620117
1739550774775884800,11.981884765625,0.12051491439342499,-0.3764670193195343,-0.25827524065971375
1739550774785953800,11.991953857421874,0.19861078262329102,-0.15470878779888153,-0.2706807553768158
1739550774796022800,12.002022705078126,0.24343180656433105,0.024642352014780045,-0.23924101889133453
1739550774806091800,12.012091796875,0.2664700150489807,0.12338118255138397,-0.14729246497154236
1739550774816161000,12.0221611328125,0.2818000018596649,0.19662877917289734,-0.015557033009827137
1739550774826230800,12.032230712890625,0.2877042293548584,0.23079314827919006,0.1135929673910141
1739550774836299800,12.0422998046875,0.2767951786518097,0.21845780313014984,0.19856469333171844
1739550774846368800,12.05236865234375,0.24946102499961853,0.17282027006149292,0.23336635529994965
1739550774856438000,12.06243798828125,0.20200254023075104,0.09831416606903076,0.2285056710243225
1739550774866506800,12.0725068359375,0.15865452587604523,-0.003043876029551029,0.21421195566654205
1739550774876577000,12.082576904296875,0.12106211483478546,-0.10039865970611572,0.1936209350824356
1739550774886645800,12.092645751953125,0.08079273998737335,-0.1465642899274826,0.16891132295131683
1739550774896715000,12.102715087890624,0.038647960871458054,-0.18991218507289886,0.1391865313053131
1739550774906783700,12.11278369140625,-0.012385128065943718,-0.24706149101257324,0.09965776652097702
1739550774916853800,12.122853759765626,-0.04617597907781601,-0.263583242893219,0.062095195055007935
1739550774926922500,12.132922607421875,-0.0627104863524437,-0.26180770993232727,0.0191503893584013
1739550774936992800,12.14299267578125,-0.06815341114997864,-0.24359741806983948,-0.01873588189482689
1739550774947061500,12.1530615234375,-0.07186399400234222,-0.22826586663722992,-0.0500812903046608
1739550774957130800,12.163130859375,-0.06628692895174026,-0.20784802734851837,-0.06903534382581711
1739550774967199500,12.173199462890626,-0.05684948340058327,-0.15980513393878937,-0.07709486782550812
1739550774977268500,12.1832685546875,-0.046660494059324265,-0.09987387806177139,-0.07496140897274017
1739550774987337500,12.19333740234375,-0.03662516921758652,-0.0519510954618454,-0.07021725177764893
1739550774997407700,12.20340771484375,-0.0305367149412632,-0.03969486057758331,-0.07090770453214645
1739550775007476500,12.2134765625,-0.02537417784333229,-0.0475463904440403,-0.07571764290332794
1739550775017545500,12.22354541015625,-0.02491185814142227,-0.05664718523621559,-0.082872174680233
1739550775027614700,12.23361474609375,-0.023712370544672012,-0.07035953551530838,-0.10149352997541428
1739550775037683500,12.243683349609375,-0.02680180035531521,-0.09259556233882904,-0.12630803883075714
