time,seconds_elapsed,z,y,x
1739550762854045700,0.060045654296875,-36.847320556640625,21.268310546875,22.055721282958984
1739550762864114400,0.070114501953125,-36.824127197265625,21.202056884765625,22.38457679748535
1739550762874183700,0.08018359375,-36.942169189453125,21.67650604248047,22.309181213378906
1739550762884252700,0.090252685546875,-36.399200439453125,21.77672576904297,22.560327529907227
1739550762894321700,0.10032177734375,-36.350250244140625,20.93181610107422,22.540164947509766
1739550762904389600,0.1103896484375,-36.579010009765625,21.3291015625,22.359434127807617
1739550762914458600,0.120458740234375,-36.806427001953125,21.055030822753906,22.487531661987305
1739550762924527600,0.130527587890625,-36.555816650390625,20.837493896484375,22.531675338745117
1739550762934596600,0.1405966796875,-36.833099365234375,20.949310302734375,22.530614852905273
1739550762944665600,0.15066552734375,-37.329803466796875,20.945655822753906,22.37053680419922
1739550762954734600,0.160734619140625,-37.098541259765625,20.77582550048828,22.39031982421875
1739550762964803600,0.170803466796875,-36.974945068359375,20.62360382080078,22.39173698425293
1739550762974872600,0.18087255859375,-36.826385498046875,20.66039276123047,22.488615036010742
1739550762984941600,0.190941650390625,-36.771820068359375,20.787200927734375,22.300039291381836
1739550762995009500,0.201009521484375,-36.906829833984375,20.815650939941406,22.708345413208008
1739550763005078500,0.21107861328125,-36.684478759765625,20.74047088623047,22.719486236572266
1739550763015147800,0.221147705078125,-36.901214599609375,20.669166564941406,22.69106674194336
1739550763025216500,0.231216552734375,-36.830108642578125,20.723114013671875,22.773962020874023
1739550763035285500,0.241285400390625,-36.813018798828125,20.552566528320312,22.859994888305664
1739550763045354500,0.2513544921875,-36.773651123046875,20.489173889160156,22.663311004638672
1739550763055423500,0.261423583984375,-36.356781005859375,20.406944274902344,22.609113693237305
1739550763065492700,0.27149267578125,-36.386016845703125,20.304473876953125,22.92738914489746
1739550763075561500,0.2815615234375,-36.475067138671875,20.37781524658203,22.617019653320312
1739550763085629400,0.29162939453125,-36.558868408203125,20.26520538330078,22.9117488861084
1739550763095698700,0.30169873046875,-36.511505126953125,20.45874786376953,22.634334564208984
1739550763105767400,0.311767333984375,-36.828216552734375,20.420257568359375,22.536460876464844
1739550763115836700,0.321836669921875,-36.624908447265625,20.685699462890625,22.524520874023438
1739550763125905400,0.331905517578125,-36.656402587890625,20.42742919921875,22.553466796875
1739550763135974700,0.341974609375,-36.731781005859375,20.5897216796875,22.760595321655273
1739550763146043600,0.352043701171875,-36.774383544921875,20.698745727539062,22.69219970703125
1739550763156112600,0.362112548828125,-36.782318115234375,20.50708770751953,22.81598472595215
1739550763166181600,0.372181640625,-36.937042236328125,20.332550048828125,22.547630310058594
1739550763176250400,0.38225048828125,-36.934173583984375,20.262115478515625,22.59720230102539
1739550763186318600,0.392318603515625,-36.842987060546875,20.36882781982422,22.566282272338867
1739550763196387600,0.4023876953125,-36.348052978515625,20.284019470214844,22.60661506652832
1739550763206456600,0.41245654296875,-36.685333251953125,20.2578125,22.706645965576172
1739550763216525600,0.422525634765625,-36.649566650390625,20.45221710205078,22.598512649536133
1739550763226594600,0.432594482421875,-36.682769775390625,20.332122802734375,22.646888732910156
1739550763236663600,0.44266357421875,-36.605377197265625,20.425872802734375,22.7371768951416
1739550763246732500,0.452732666015625,-36.800140380859375,20.461769104003906,22.81064224243164
1739550763256801500,0.462801513671875,-36.487091064453125,20.77532958984375,22.843069076538086
1739550763266870500,0.47287060546875,-36.466766357421875,20.4912109375,22.705869674682617
1739550763276939500,0.482939453125,-36.367401123046875,20.425575256347656,22.693565368652344
1739550763287007500,0.493007568359375,-36.384918212890625,20.306190490722656,22.68956184387207
1739550763297076500,0.503076416015625,-36.541290283203125,20.226844787597656,22.667102813720703
1739550763307145500,0.5131455078125,-36.814605712890625,20.294448852539062,22.91603660583496
1739550763317214500,0.52321435546875,-36.249786376953125,20.16259765625,22.839311599731445
1739550763327283700,0.53328369140625,-36.105804443359375,20.08074188232422,22.973072052001953
1739550763337352400,0.5433525390625,-36.477447509765625,20.201820373535156,22.81863784790039
1739550763347421700,0.553421630859375,-36.377044677734375,20.10730743408203,22.729328155517578
1739550763357490400,0.563490478515625,-36.496856689453125,20.04803466796875,22.675561904907227
1739550763367559700,0.5735595703125,-36.261444091796875,19.919273376464844,22.60772132873535
1739550763377628700,0.583628662109375,-36.558074951171875,19.926651000976562,22.828662872314453
1739550763387696400,0.5936962890625,-36.656768798828125,19.931251525878906,22.7056884765625
1739550763397765600,0.603765625,-36.535247802734375,20.09857177734375,22.925249099731445
1739550763407834600,0.613834716796875,-36.819061279296875,20.272109985351562,22.951465606689453
1739550763417903600,0.623903564453125,-36.816802978515625,20.24748992919922,23.03709602355957
1739550763427972600,0.63397265625,-37.025909423828125,20.28399658203125,22.938825607299805
1739550763438041600,0.64404150390625,-36.655792236328125,20.1424560546875,22.96495246887207
1739550763448110600,0.654110595703125,-36.458404541015625,20.021995544433594,23.043161392211914
1739550763458179600,0.6641796875,-36.542449951171875,19.945289611816406,23.095766067504883
1739550763468248600,0.67424853515625,-36.407745361328125,19.8985595703125,22.886720657348633
1739550763478317600,0.684317626953125,-36.678131103515625,19.91656494140625,22.864917755126953
1739550763488386600,0.694386474609375,-36.498687744140625,20.041030883789062,22.997596740722656
1739550763498454500,0.70445458984375,-36.437713623046875,19.87329864501953,22.70147132873535
1739550763508523500,0.7145234375,-36.598419189453125,19.979415893554688,22.759469985961914
1739550763518592500,0.724592529296875,-37.089263916015625,19.917144775390625,22.830577850341797
1739550763528661500,0.73466162109375,-36.457550048828125,19.602027893066406,22.95347023010254
1739550763538730500,0.74473046875,-36.576019287109375,19.7703857421875,22.879810333251953
1739550763548799500,0.754799560546875,-36.655242919921875,19.713783264160156,22.772750854492188
1739550763558868700,0.76486865234375,-36.858123779296875,19.693740844726562,23.026643753051758
1739550763568937500,0.7749375,-36.473297119140625,19.897926330566406,22.85212516784668
1739550763579006700,0.7850068359375,-36.750091552734375,19.7576904296875,22.704669952392578
1739550763589075500,0.795075439453125,-36.745086669921875,20.115676879882812,22.87912368774414
1739550763599144400,0.80514453125,-36.386505126953125,19.98541259765625,22.55653953552246
1739550763609212700,0.815212646484375,-36.386444091796875,19.8863525390625,22.68709945678711
1739550763619281400,0.825281494140625,-36.616058349609375,20.12775421142578,22.467622756958008
1739550763629350700,0.8353505859375,-36.496429443359375,20.152984619140625,22.647851943969727
1739550763639419600,0.845419677734375,-36.720489501953125,19.988052368164062,22.953840255737305
1739550763649488600,0.855488525390625,-36.466217041015625,19.9490966796875,22.993486404418945
1739550763659557600,0.8655576171875,-36.297027587890625,20.228050231933594,23.209487915039062
1739550763669626400,0.87562646484375,-36.144989013671875,19.993431091308594,22.96444320678711
1739550763679695600,0.885695556640625,-36.391326904296875,19.900222778320312,23.10378646850586
1739550763689764600,0.8957646484375,-36.325714111328125,20.158302307128906,22.985960006713867
1739550763699833600,0.90583349609375,-36.255889892578125,20.409286499023438,22.982759475708008
1739550763709902600,0.915902587890625,-36.072540283203125,20.405899047851562,23.114543914794922
1739550763719971600,0.9259716796875,-36.420196533203125,20.259376525878906,23.01829719543457
1739550763730039600,0.93603955078125,-36.448699951171875,20.25115966796875,22.780750274658203
1739550763740108500,0.946108642578125,-36.410491943359375,20.05194091796875,22.671323776245117
1739550763750177500,0.956177490234375,-36.296966552734375,19.875640869140625,22.88296127319336
1739550763760246500,0.96624658203125,-36.523345947265625,20.04582977294922,22.810598373413086
1739550763770315500,0.9763154296875,-36.432586669921875,19.805892944335938,22.853906631469727
1739550763780384500,0.986384521484375,-36.463348388671875,20.085052490234375,22.93454360961914
1739550763790453800,0.996453857421875,-36.432891845703125,19.991615295410156,22.766246795654297
1739550763800522500,1.0065224609375,-36.423065185546875,20.00336456298828,22.75321388244629
1739550763810591500,1.016591552734375,-35.829437255859375,20.079360961914062,22.820850372314453
1739550763820660500,1.026660400390625,-36.112030029296875,19.946670532226562,22.648710250854492
1739550763830729500,1.0367294921875,-36.236968994140625,19.8709716796875,22.813867568969727
1739550763840798700,1.046798828125,-36.253814697265625,20.044715881347656,22.873764038085938
1739550763850867500,1.056867431640625,-36.003509521484375,20.250518798828125,22.991905212402344
1739550763860936700,1.066936767578125,-35.900726318359375,20.331130981445312,23.055221557617188
1739550763871004700,1.077004638671875,-36.127044677734375,20.467803955078125,22.794654846191406
1739550763881073400,1.087073486328125,-36.487091064453125,20.3204345703125,22.747161865234375
1739550763891142700,1.097142578125,-36.495086669921875,20.156402587890625,22.688976287841797
1739550763901215000,1.107215087890625,-36.834747314453125,20.280929565429688,22.679359436035156
1739550763911284200,1.1172841796875,-36.799102783203125,20.147079467773438,22.63836097717285
1739550763921353200,1.127353271484375,-36.407989501953125,20.26665496826172,22.641407012939453
1739550763931422200,1.137422119140625,-36.500579833984375,20.25756072998047,22.645822525024414
1739550763941491200,1.1474912109375,-36.206634521484375,20.324440002441406,22.911781311035156
1739550763951560000,1.157559814453125,-36.350006103515625,20.155670166015625,22.986984252929688
1739550763961629200,1.167629150390625,-36.723907470703125,20.02947235107422,23.059921264648438
1739550763971698000,1.177697998046875,-36.231536865234375,20.38897705078125,22.726926803588867
1739550763981767200,1.18776708984375,-36.490875244140625,20.090049743652344,22.837974548339844
1739550763991836200,1.197836181640625,-36.646759033203125,20.21259307861328,23.024974822998047
1739550764001905200,1.2079052734375,-36.712554931640625,20.293655395507812,23.004398345947266
1739550764011974100,1.21797412109375,-36.758758544921875,20.219627380371094,22.99696922302246
1739550764022043100,1.228043212890625,-36.518402099609375,20.175453186035156,22.892332077026367
1739550764032112000,1.238112060546875,-36.571868896484375,20.280181884765625,23.159849166870117
1739550764042180000,1.24818017578125,-36.389068603515625,20.126296997070312,23.266956329345703
1739550764052249000,1.2582490234375,-36.641265869140625,20.273178100585938,23.107839584350586
1739550764062318000,1.268318115234375,-36.519439697265625,20.15697479248047,23.13980484008789
1739550764072387300,1.27838720703125,-36.507415771484375,19.97417449951172,23.130006790161133
1739550764082456000,1.2884560546875,-36.499114990234375,20.024139404296875,22.833131790161133
1739550764092525000,1.298525146484375,-36.466278076171875,19.916412353515625,22.88640785217285
1739550764102594000,1.308593994140625,-36.487945556640625,19.913360595703125,22.76156234741211
1739550764112663000,1.3186630859375,-36.098358154296875,20.266189575195312,22.983583450317383
1739550764122732300,1.328732177734375,-36.040008544921875,20.005142211914062,22.739431381225586
1739550764132801000,1.338801025390625,-35.967010498046875,20.116043090820312,23.002805709838867
1739550764142870300,1.348870361328125,-35.701385498046875,20.303604125976562,23.009801864624023
1739550764152939000,1.35893896484375,-36.184356689453125,20.055564880371094,23.060686111450195
1739550764163008300,1.36900830078125,-35.993255615234375,19.971847534179688,23.09957504272461
1739550764173077000,1.379076904296875,-36.051361083984375,20.171112060546875,23.208450317382812
1739550764183146000,1.38914599609375,-36.427520751953125,20.03150177001953,22.999187469482422
1739550764193215200,1.39921533203125,-36.724212646484375,19.935333251953125,22.934825897216797
1739550764203284000,1.409283935546875,-36.898651123046875,20.16046905517578,22.880399703979492
1739550764213353200,1.419353271484375,-36.646087646484375,20.062332153320312,23.113422393798828
1739550764223422000,1.429421875,-36.607452392578125,19.7012939453125,23.10455322265625
1739550764233491200,1.4394912109375,-36.587249755859375,19.755516052246094,23.206287384033203
1739550764243560200,1.449560302734375,-36.155181884765625,20.067230224609375,23.17058753967285
1739550764253629200,1.459629150390625,-36.385589599609375,20.163406372070312,23.14064598083496
1739550764263698200,1.4696982421875,-36.785186767578125,19.870986938476562,22.957141876220703
1739550764273766100,1.47976611328125,-36.508148193359375,19.80841827392578,22.878955841064453
1739550764283835100,1.489835205078125,-36.754058837890625,19.918319702148438,23.056007385253906
1739550764293904100,1.499904052734375,-36.431182861328125,20.085037231445312,22.839807510375977
1739550764303973000,1.50997314453125,-36.617462158203125,19.92424774169922,22.92649269104004
1739550764314042000,1.5200419921875,-36.304718017578125,19.794761657714844,22.849777221679688
1739550764324111000,1.530111083984375,-36.641082763671875,19.749786376953125,22.803436279296875
1739550764334180000,1.54018017578125,-36.436187744140625,19.712242126464844,22.63882064819336
1739550764344249000,1.5502490234375,-36.684234619140625,19.782455444335938,22.772977828979492
1739550764354318000,1.560318115234375,-36.561248779296875,19.96593475341797,22.616758346557617
1739550764364387000,1.570386962890625,-36.713958740234375,19.959251403808594,22.38384246826172
1739550764374456000,1.5804560546875,-36.716461181640625,19.580421447753906,22.71393394470215
1739550764384525000,1.590525146484375,-36.814727783203125,19.747840881347656,22.744218826293945
1739550764394594300,1.60059423828125,-36.807891845703125,19.631637573242188,22.724990844726562
1739550764404663000,1.6106630859375,-36.786895751953125,19.70500946044922,22.622901916503906
1739550764414732300,1.620732177734375,-36.698272705078125,19.580612182617188,22.624237060546875
1739550764424801000,1.630801025390625,-36.732452392578125,19.578224182128906,22.87693977355957
1739550764434870000,1.6408701171875,-36.711517333984375,19.72008514404297,22.972373962402344
1739550764444939300,1.650939208984375,-36.899444580078125,19.52819061279297,22.880464553833008
1739550764455008000,1.661008056640625,-36.672210693359375,19.629493713378906,22.881933212280273
1739550764465077200,1.6710771484375,-36.671112060546875,19.45433807373047,23.04862403869629
1739550764475146000,1.68114599609375,-36.395660400390625,19.581390380859375,23.095869064331055
1739550764485215200,1.69121533203125,-36.556488037109375,19.60350799560547,23.145612716674805
1739550764495284000,1.701283935546875,-36.481536865234375,19.71729278564453,23.139728546142578
1739550764505353200,1.711353271484375,-36.806427001953125,19.569862365722656,23.115020751953125
1739550764515422200,1.721422119140625,-36.562713623046875,19.56390380859375,23.321712493896484
1739550764525491000,1.731490966796875,-36.844635009765625,19.58173370361328,22.996776580810547
1739550764535560200,1.741560302734375,-36.731536865234375,19.571983337402344,22.93461036682129
1739550764545629000,1.75162890625,-36.951568603515625,19.38471221923828,22.969125747680664
1739550764555698200,1.7616982421875,-36.806976318359375,19.32207489013672,22.899045944213867
1739550764565767200,1.77176708984375,-36.564056396484375,19.416336059570312,23.06049156188965
1739550764575836200,1.781836181640625,-36.967742919921875,19.504791259765625,23.07522201538086
1739550764585905200,1.7919052734375,-36.871795654296875,19.38727569580078,23.107839584350586
1739550764595974100,1.80197412109375,-36.578460693359375,19.540489196777344,23.27307891845703
1739550764606043100,1.812043212890625,-36.394256591796875,19.57946014404297,23.21747589111328
1739550764616112000,1.822112060546875,-36.812835693359375,19.409080505371094,23.277843475341797
1739550764626181000,1.83218115234375,-36.547760009765625,19.469520568847656,23.073627471923828
1739550764636250000,1.84225,-36.837554931640625,19.433441162109375,22.991676330566406
1739550764646319000,1.852319091796875,-36.499114990234375,19.465049743652344,22.9527530670166
1739550764656388000,1.86238818359375,-37.082489013671875,19.526351928710938,23.045780181884766
1739550764666457000,1.87245703125,-37.041595458984375,19.546340942382812,23.236793518066406
1739550764676526000,1.882526123046875,-36.882598876953125,19.453956604003906,23.148595809936523
1739550764686595300,1.89259521484375,-36.791534423828125,19.629554748535156,23.14299964904785
1739550764696664000,1.9026640625,-37.003448486328125,19.49358367919922,23.168588638305664
1739550764706733300,1.9127333984375,-36.851165771484375,19.4874267578125,23.32830238342285
1739550764716802000,1.922802001953125,-36.890289306640625,19.703155517578125,22.88596534729004
1739550764726871000,1.93287109375,-36.864837646484375,19.59172821044922,22.975740432739258
1739550764736940000,1.94293994140625,-37.292449951171875,19.400718688964844,22.994632720947266
1739550764747009000,1.953009033203125,-37.013153076171875,19.430953979492188,23.044294357299805
1739550764757078300,1.963078369140625,-36.933563232421875,19.482765197753906,23.02908706665039
1739550764767147000,1.97314697265625,-37.141082763671875,19.403091430664062,22.968759536743164
1739550764777216300,1.98321630859375,-36.834381103515625,19.161895751953125,22.989381790161133
1739550764787285000,1.993284912109375,-37.135772705078125,19.245269775390625,23.079872131347656
1739550764797354200,2.003354248046875,-36.862457275390625,19.25965118408203,22.886693954467773
1739550764807423200,2.01342333984375,-37.300201416015625,19.309066772460938,23.050886154174805
1739550764817492000,2.023491943359375,-37.060150146484375,19.21428680419922,23.008432388305664
1739550764827561200,2.033561279296875,-37.244049072265625,19.016616821289062,23.160362243652344
1739550764837630000,2.0436298828125,-36.932098388671875,19.252120971679688,23.072633743286133
1739550764847699200,2.05369921875,-37.210174560546875,19.100997924804688,22.708526611328125
1739550764857768000,2.063767822265625,-37.472259521484375,19.02275848388672,22.884937286376953
1739550764867837200,2.073837158203125,-37.490692138671875,19.318756103515625,22.99176597595215
1739550764877906200,2.08390625,-37.627349853515625,19.323211669921875,22.95265769958496
1739550764887975200,2.09397509765625,-37.574676513671875,19.314956665039062,22.87047576904297
1739550764898044200,2.104044189453125,-37.406158447265625,19.479652404785156,22.939653396606445
1739550764908109600,2.114109619140625,-37.859100341796875,19.525184631347656,22.995288848876953
1739550764918178800,2.1241787109375,-37.793670654296875,19.452133178710938,23.355205535888672
1739550764928247800,2.134247802734375,-37.200103759765625,19.36353302001953,23.277799606323242
1739550764938316800,2.14431689453125,-37.292999267578125,19.420494079589844,23.292949676513672
1739550764948385800,2.1543857421875,-37.145660400390625,19.10192108154297,23.014766693115234
1739550764958454800,2.164454833984375,-37.289825439453125,19.454376220703125,23.11261749267578
1739550764968523800,2.174523681640625,-37.118865966796875,19.28948211669922,23.011056900024414
1739550764978592500,2.184592529296875,-36.917327880859375,19.361618041992188,23.075244903564453
1739550764988661800,2.194661865234375,-37.254913330078125,19.214683532714844,23.286518096923828
1739550764998730800,2.204730712890625,-36.693206787109375,19.264854431152344,23.35546875
1739550765008800800,2.21480078125,-36.937347412109375,19.47203826904297,23.007366180419922
1739550765018869800,2.224869873046875,-37.135284423828125,19.27728271484375,22.940614700317383
1739550765028938800,2.234938720703125,-37.340789794921875,19.30694580078125,23.13785171508789
1739550765039007700,2.2450078125,-36.972564697265625,19.18408203125,23.089914321899414
1739550765049076700,2.25507666015625,-36.698760986328125,19.43134307861328,23.245969772338867
1739550765059145700,2.265145751953125,-36.753448486328125,19.43567657470703,23.12464714050293
1739550765069214700,2.275214599609375,-37.241363525390625,19.38922882080078,23.1513671875
1739550765079283700,2.28528369140625,-37.039825439453125,19.292892456054688,23.088226318359375
1739550765089353000,2.29535302734375,-37.228057861328125,19.503578186035156,23.264440536499023
1739550765099421700,2.305421630859375,-37.433502197265625,19.44219207763672,23.053211212158203
1739550765109490700,2.31549072265625,-37.079681396484375,19.397109985351562,22.993669509887695
1739550765119559700,2.3255595703125,-37.205169677734375,19.476646423339844,23.272722244262695
1739550765129628700,2.335628662109375,-37.303009033203125,19.464027404785156,23.144880294799805
1739550765139697700,2.34569775390625,-37.561309814453125,19.187118530273438,23.113943099975586
1739550765149766700,2.3557666015625,-36.960784912109375,19.26160430908203,22.940874099731445
1739550765159836000,2.3658359375,-37.049530029296875,19.28455352783203,23.18999481201172
1739550765169904600,2.375904541015625,-36.944488525390625,19.279403686523438,23.167051315307617
1739550765179974000,2.385973876953125,-36.690338134765625,19.350196838378906,23.429590225219727
1739550765190042600,2.396042724609375,-36.508880615234375,19.33666229248047,23.296417236328125
1739550765200111600,2.406111572265625,-36.707000732421875,19.273696899414062,23.090768814086914
1739550765210180900,2.416180908203125,-37.225555419921875,19.77202606201172,23.242490768432617
1739550765220249600,2.42624951171875,-36.905853271484375,19.419540405273438,22.959524154663086
1739550765230318800,2.43631884765625,-36.894500732421875,19.41448211669922,23.01417350769043
1739550765240387600,2.4463876953125,-36.946258544921875,19.3624267578125,23.178861618041992
1739550765250456800,2.456456787109375,-37.159759521484375,19.612030029296875,23.301698684692383
1739550765260525800,2.46652587890625,-37.260833740234375,19.669036865234375,23.301651000976562
1739550765270595800,2.476595947265625,-36.852325439453125,19.449447631835938,23.1343936920166
1739550765280664600,2.48666455078125,-37.108428955078125,19.357330322265625,23.325687408447266
1739550765290733800,2.49673388671875,-37.013519287109375,19.37853240966797,23.294811248779297
1739550765300802800,2.506802734375,-37.198333740234375,19.491973876953125,23.32140350341797
1739550765310871800,2.516871826171875,-36.938873291015625,19.452072143554688,23.397621154785156
1739550765320940800,2.52694091796875,-37.281768798828125,19.65979766845703,23.115325927734375
1739550765331009500,2.537009521484375,-36.574188232421875,19.59198760986328,23.168472290039062
1739550765341078800,2.547078857421875,-37.409637451171875,19.76482391357422,23.092973709106445
1739550765351147800,2.557147705078125,-37.205413818359375,19.476959228515625,22.984540939331055
1739550765361216800,2.567216796875,-37.077545166015625,19.431686401367188,23.090654373168945
1739550765371285800,2.57728564453125,-36.858123779296875,19.538070678710938,23.0754451751709
1739550765381354800,2.587354736328125,-37.101226806640625,19.641807556152344,23.043596267700195
1739550765391423700,2.597423828125,-37.189056396484375,19.738906860351562,23.173776626586914
1739550765401492700,2.60749267578125,-36.996734619140625,19.425491333007812,23.044336318969727
1739550765411561700,2.617561767578125,-36.930999755859375,19.62163543701172,23.232519149780273
1739550765421631000,2.627630859375,-36.908050537109375,19.570602416992188,23.235349655151367
1739550765431699700,2.63769970703125,-36.711944580078125,19.188316345214844,23.08757781982422
1739550765441768700,2.647768798828125,-36.854827880859375,19.347320556640625,23.023929595947266
1739550765451837700,2.657837646484375,-36.469390869140625,19.43675994873047,22.9166202545166
1739550765461907700,2.66790771484375,-36.965606689453125,19.206573486328125,22.756877899169922
1739550765471976700,2.677976806640625,-36.718963623046875,19.34813690185547,22.927593231201172
1739550765482045700,2.688045654296875,-36.454681396484375,19.41150665283203,23.048728942871094
1739550765492114700,2.69811474609375,-36.814544677734375,19.62732696533203,22.73473358154297
1739550765502183700,2.70818359375,-36.961578369140625,19.377166748046875,22.819509506225586
1739550765512253000,2.7182529296875,-36.816314697265625,19.385009765625,22.912933349609375
1739550765522321700,2.72832177734375,-37.056488037109375,19.112564086914062,22.78581428527832
1739550765532391000,2.738390869140625,-37.075836181640625,19.284576416015625,22.877220153808594
1739550765542459600,2.748459716796875,-37.297760009765625,19.413185119628906,22.903629302978516
1739550765552529000,2.75852880859375,-37.071685791015625,19.38556671142578,22.912094116210938
1739550765562597600,2.76859765625,-37.284698486328125,19.55750274658203,22.732458114624023
1739550765572666600,2.77866650390625,-36.663116455078125,19.69800567626953,22.544958114624023
1739550765582736000,2.78873583984375,-37.168182373046875,19.364959716796875,22.399539947509766
1739550765592804600,2.7988046875,-37.217498779296875,19.347938537597656,22.79511833190918
1739550765602873900,2.808873779296875,-37.035552978515625,19.156471252441406,22.795652389526367
1739550765612943600,2.818943603515625,-36.878326416015625,19.333946228027344,22.880970001220703
1739550765623012900,2.829012939453125,-37.193878173828125,19.36083221435547,22.948469161987305
1739550765633081600,2.83908154296875,-37.140289306640625,19.18187713623047,22.710237503051758
1739550765643150800,2.84915087890625,-36.863433837890625,19.339080810546875,22.80656623840332
1739550765653219600,2.859219482421875,-36.996185302734375,19.358154296875,22.92396354675293
1739550765663288800,2.869288818359375,-37.425262451171875,19.094810485839844,22.825849533081055
1739550765673357800,2.87935791015625,-37.156402587890625,19.49787139892578,22.539522171020508
1739550765683426800,2.8894267578125,-37.366729736328125,19.643699645996094,22.624805450439453
1739550765693495800,2.899495849609375,-37.305267333984375,19.593368530273438,22.673595428466797
1739550765703564500,2.909564453125,-37.034820556640625,19.4676513671875,22.7847957611084
1739550765713633800,2.9196337890625,-37.040130615234375,19.562362670898438,22.804262161254883
1739550765723702800,2.929702880859375,-37.280364990234375,19.57640838623047,22.64603042602539
1739550765733771800,2.939771728515625,-37.112335205078125,19.677467346191406,22.528427124023438
1739550765743840800,2.9498408203125,-37.201080322265625,19.729591369628906,22.347251892089844
1739550765753910800,2.959910888671875,-37.381317138671875,19.650901794433594,22.412729263305664
1739550765763979800,2.969979736328125,-37.459320068359375,19.669754028320312,22.4871768951416
1739550765774048800,2.980048828125,-36.944244384765625,19.748390197753906,22.65083122253418
1739550765784117800,2.99011767578125,-37.319183349609375,19.70313262939453,22.671689987182617
1739550765794186800,3.000186767578125,-36.828643798828125,19.78307342529297,22.658435821533203
1739550765804255700,3.010255859375,-36.692169189453125,19.813507080078125,22.753246307373047
1739550765814324700,3.02032470703125,-36.808319091796875,19.78929901123047,22.33477020263672
1739550765824393700,3.030393798828125,-36.897308349609375,19.903831481933594,22.483339309692383
1739550765834462700,3.040462646484375,-36.816619873046875,19.92266082763672,22.548198699951172
1739550765844531700,3.05053173828125,-37.239898681640625,19.8004150390625,22.48695945739746
1739550765854600700,3.0606005859375,-37.244903564453125,19.854736328125,22.350557327270508
1739550765864669700,3.070669677734375,-37.227935791015625,19.83612823486328,22.533384323120117
1739550765874739700,3.08073974609375,-37.176849365234375,19.807472229003906,22.53127670288086
1739550765884808700,3.09080859375,-36.778167724609375,20.0372314453125,22.65937614440918
1739550765894877700,3.100877685546875,-36.624664306640625,19.97405242919922,22.589632034301758
1739550765904947000,3.110947021484375,-37.164886474609375,19.782379150390625,22.457576751708984
1739550765915016200,3.12101611328125,-36.956329345703125,19.87457275390625,22.373960494995117
1739550765925085200,3.131085205078125,-37.182708740234375,19.99401092529297,22.427982330322266
1739550765935154000,3.14115380859375,-37.016021728515625,19.78356170654297,22.327451705932617
1739550765945223200,3.15122314453125,-36.993072509765625,19.888450622558594,22.411176681518555
1739550765955292000,3.1612919921875,-37.080169677734375,19.93927764892578,22.56494903564453
1739550765965361200,3.171361083984375,-37.092071533203125,19.7989501953125,22.345474243164062
1739550765975430000,3.181429931640625,-37.157379150390625,19.897659301757812,22.515161514282227
1739550765985500200,3.191500244140625,-37.312225341796875,19.80998992919922,22.40409278869629
1739550765995569000,3.20156884765625,-37.213897705078125,19.809814453125,22.357755661010742
1739550766005638100,3.21163818359375,-37.339508056640625,19.88409423828125,22.48207664489746
1739550766015707100,3.22170703125,-36.972015380859375,19.823814392089844,22.403987884521484
1739550766025776000,3.231776123046875,-37.236724853515625,19.998382568359375,22.289325714111328
1739550766035845000,3.24184521484375,-36.918365478515625,19.896751403808594,22.459653854370117
1739550766045914000,3.2519140625,-37.176849365234375,19.957740783691406,22.45033073425293
1739550766055983000,3.261983154296875,-37.391021728515625,19.601585388183594,22.32146644592285
1739550766066051800,3.2720517578125,-37.041717529296875,19.771690368652344,21.98312759399414
1739550766076121000,3.28212109375,-36.996856689453125,19.810287475585938,22.206026077270508
1739550766086190000,3.292190185546875,-36.730621337890625,19.997100830078125,22.076011657714844
1739550766096260000,3.302260009765625,-36.997650146484375,19.88964080810547,22.0518798828125
1739550766106329000,3.3123291015625,-37.184722900390625,19.924362182617188,22.208499908447266
1739550766116398000,3.322398193359375,-36.969207763671875,20.07878875732422,22.16274642944336
1739550766126467000,3.332467041015625,-37.165802001953125,19.92015838623047,22.201879501342773
1739550766136536000,3.3425361328125,-36.951202392578125,19.969215393066406,22.17525863647461
1739550766146605000,3.35260498046875,-37.280792236328125,20.069786071777344,21.977909088134766
1739550766156674000,3.362674072265625,-37.182403564453125,20.089645385742188,22.148401260375977
1739550766166743000,3.372742919921875,-37.118133544921875,19.91602325439453,21.985721588134766
1739550766176812300,3.382812255859375,-37.137664794921875,19.974212646484375,22.116914749145508
1739550766186881000,3.392881103515625,-37.393280029296875,20.1048583984375,22.114093780517578
1739550766196951000,3.402950927734375,-37.342620849609375,20.181365966796875,22.231605529785156
1739550766207020000,3.41302001953125,-37.127410888671875,20.433486938476562,22.069211959838867
1739550766217089300,3.42308935546875,-37.287200927734375,20.296249389648438,22.134967803955078
1739550766227158000,3.433157958984375,-37.223541259765625,20.272010803222656,21.8618106842041
1739550766237227000,3.44322705078125,-37.417083740234375,20.406112670898438,21.89439582824707
1739550766247296000,3.4532958984375,-37.289825439453125,20.47197723388672,22.095672607421875
1739550766257365000,3.463364990234375,-36.884552001953125,20.135391235351562,21.91156005859375
1739550766267434200,3.473434326171875,-37.068756103515625,20.13097381591797,21.795846939086914
1739550766277503000,3.4835029296875,-37.098724365234375,20.008193969726562,22.145902633666992
1739550766287573000,3.493572998046875,-37.217376708984375,19.795623779296875,22.167634963989258
1739550766297642000,3.50364208984375,-37.227508544921875,19.808311462402344,22.02638816833496
1739550766307711200,3.513711181640625,-37.234344482421875,20.09929656982422,22.22176742553711
1739550766317780000,3.523780029296875,-37.680694580078125,20.071273803710938,22.104639053344727
1739550766327849200,3.53384912109375,-37.641754150390625,20.234291076660156,21.897815704345703
1739550766337918000,3.54391796875,-37.356903076171875,20.20880126953125,21.8891544342041
1739550766347987200,3.5539873046875,-37.245635986328125,20.339599609375,21.801315307617188
1739550766358056200,3.56405615234375,-37.020111083984375,20.16350555419922,21.875017166137695
1739550766368125000,3.574125,-37.328765869140625,19.989830017089844,21.825716018676758
1739550766378195000,3.58419482421875,-37.365753173828125,20.120071411132812,22.046039581298828
1739550766388264200,3.59426416015625,-37.311981201171875,20.081588745117188,22.12904930114746
1739550766398333200,3.604333251953125,-37.136016845703125,20.064346313476562,22.127666473388672
1739550766408402000,3.61440185546875,-37.153656005859375,19.91388702392578,22.193063735961914
1739550766418471200,3.62447119140625,-36.987640380859375,19.83740997314453,22.462570190429688
1739550766428540000,3.634539794921875,-36.841827392578125,19.964767456054688,22.434240341186523
1739550766438609200,3.644609130859375,-36.842803955078125,20.019515991210938,22.32468032836914
1739550766448678100,3.65467822265625,-37.005950927734375,19.959877014160156,22.164329528808594
1739550766458747100,3.6647470703125,-36.792938232421875,19.744606018066406,22.069395065307617
1739550766468817000,3.67481689453125,-37.109649658203125,19.67914581298828,22.16590118408203
1739550766478886100,3.68488623046875,-37.121490478515625,19.68860626220703,22.399789810180664
1739550766488955100,3.694955078125,-37.201507568359375,19.634124755859375,22.250591278076172
1739550766499024100,3.705024169921875,-36.965057373046875,19.65032196044922,22.25773048400879
1739550766509093000,3.715093017578125,-36.696075439453125,19.684326171875,22.27173614501953
1739550766519162000,3.725162109375,-36.480133056640625,19.87127685546875,22.297948837280273
1739550766529231000,3.735231201171875,-36.514068603515625,20.09491729736328,22.36959457397461
1739550766539299800,3.7452998046875,-36.699249267578125,20.126365661621094,22.282594680786133
1739550766549369000,3.755369140625,-36.786285400390625,19.941177368164062,22.241731643676758
1739550766559438000,3.76543798828125,-36.830657958984375,20.099571228027344,22.256135940551758
1739550766569508000,3.775508056640625,-36.612518310546875,20.009483337402344,22.268991470336914
1739550766579577000,3.7855771484375,-36.613677978515625,20.202728271484375,22.293968200683594
1739550766589646000,3.79564599609375,-36.209625244140625,20.257888793945312,22.460407257080078
1739550766599715000,3.805715087890625,-36.537811279296875,20.242340087890625,22.00804328918457
1739550766609784000,3.8157841796875,-36.703887939453125,20.611793518066406,22.10433006286621
1739550766619853000,3.82585302734375,-36.518646240234375,20.431114196777344,22.065570831298828
1739550766629922000,3.835922119140625,-36.724151611328125,20.51270294189453,22.15421485900879
1739550766639991000,3.845990966796875,-36.400909423828125,20.64849853515625,22.1015567779541
1739550766650061000,3.85606103515625,-36.119232177734375,20.61943817138672,21.975292205810547
1739550766660130000,3.866130126953125,-36.165313720703125,20.68065643310547,22.22281265258789
1739550766670199000,3.876198974609375,-36.026153564453125,20.718948364257812,22.2396183013916
1739550766680268000,3.88626806640625,-36.274322509765625,20.75238800048828,22.413118362426758
1739550766690337300,3.896337158203125,-36.155120849609375,20.94518280029297,22.213645935058594
1739550766700406000,3.906406005859375,-36.183135986328125,20.90917205810547,22.153762817382812
1739550766710475000,3.91647509765625,-35.841522216796875,20.79004669189453,22.234703063964844
1739550766720544000,3.9265439453125,-35.765899658203125,20.7281494140625,22.165258407592773
1739550766730614300,3.9366142578125,-36.057342529296875,20.65612030029297,22.03392219543457
1739550766740683000,3.94668310546875,-35.931732177734375,20.665542602539062,22.07956886291504
1739550766750752000,3.956751953125,-36.257659912109375,20.936241149902344,22.250534057617188
1739550766760821000,3.966821044921875,-35.974578857421875,20.782066345214844,22.323678970336914
1739550766770890000,3.976889892578125,-35.884613037109375,20.609710693359375,22.60751724243164
1739550766780959200,3.986959228515625,-35.937652587890625,20.615325927734375,22.645193099975586
1739550766791028000,3.997028076171875,-36.025909423828125,20.6634521484375,22.349472045898438
1739550766801097200,4.00709716796875,-35.987945556640625,20.724891662597656,22.678117752075195
1739550766811166000,4.017166015625,-36.155914306640625,20.861953735351562,22.72536849975586
1739550766821236200,4.027236328125,-36.431671142578125,21.16614532470703,22.43115997314453
1739550766831305000,4.037304931640625,-36.220672607421875,21.031028747558594,22.43090057373047
1739550766841374200,4.047374267578125,-35.803131103515625,21.02472686767578,22.601661682128906
1739550766851443000,4.05744287109375,-35.766998291015625,21.068771362304688,22.640525817871094
1739550766861512200,4.06751220703125,-35.629730224609375,21.080062866210938,22.48859977722168
1739550766871581200,4.077581298828125,-35.329559326171875,21.081565856933594,22.305591583251953
1739550766881650000,4.08764990234375,-35.550994873046875,21.149551391601562,22.444307327270508
1739550766891719200,4.09771923828125,-35.627593994140625,21.01378631591797,22.51287841796875
1739550766901789200,4.1077890625,-35.543304443359375,21.03600311279297,22.551279067993164
1739550766911861800,4.11786181640625,-35.402130126953125,21.06208038330078,22.58812141418457
1739550766921930800,4.1279306640625,-35.246551513671875,21.09241485595703,22.6331787109375
1739550766931999700,4.137999755859375,-35.431427001953125,21.075843811035156,22.667648315429688
1739550766942068700,4.14806884765625,-35.097381591796875,21.102127075195312,22.841482162475586
1739550766952137700,4.1581376953125,-35.177276611328125,21.103843688964844,22.874584197998047
1739550766962206700,4.168206787109375,-35.193939208984375,21.097145080566406,22.866483688354492
1739550766972275700,4.178275634765625,-35.112213134765625,21.003952026367188,23.131206512451172
1739550766982345500,4.188345458984375,-35.174346923828125,21.116119384765625,23.155582427978516
1739550766992414700,4.198414794921875,-34.835479736328125,21.231735229492188,23.28758430480957
1739550767002483700,4.208483642578125,-34.802276611328125,21.0257568359375,22.946531295776367
1739550767012552700,4.218552734375,-35.175994873046875,20.692398071289062,23.073122024536133
1739550767022621700,4.22862158203125,-34.924957275390625,21.113174438476562,23.494802474975586
1739550767032690700,4.238690673828125,-34.926300048828125,20.99376678466797,23.63311195373535
1739550767042759700,4.248759765625,-35.362518310546875,21.10346221923828,23.650110244750977
1739550767052828700,4.25882861328125,-35.212677001953125,20.941162109375,23.81112289428711
1739550767062898700,4.268898681640625,-35.183929443359375,20.846176147460938,23.6290225982666
1739550767072967700,4.2789677734375,-35.096588134765625,20.796142578125,23.8442440032959
1739550767083036700,4.28903662109375,-34.907745361328125,20.89080810546875,23.907669067382812
1739550767093106000,4.29910595703125,-34.684417724609375,20.98094940185547,23.823579788208008
1739550767103174700,4.309174560546875,-35.044097900390625,21.077545166015625,23.97172737121582
1739550767113243600,4.31924365234375,-35.126556396484375,20.947494506835938,23.88197135925293
1739550767123312600,4.329312744140625,-34.953704833984375,20.86487579345703,23.83481216430664
1739550767133381600,4.339381591796875,-34.733001708984375,20.883529663085938,24.11142921447754
1739550767143451600,4.34945166015625,-34.919158935546875,20.67333984375,24.284088134765625
1739550767153520600,4.359520751953125,-34.751739501953125,20.8829345703125,24.158945083618164
1739550767163589600,4.369589599609375,-34.602996826171875,20.7962646484375,24.35470199584961
1739550767173658600,4.37965869140625,-34.525299072265625,20.48064422607422,24.516138076782227
1739550767183727600,4.3897275390625,-34.554779052734375,20.273902893066406,24.455862045288086
1739550767193796600,4.399796630859375,-34.776092529296875,20.306320190429688,24.462263107299805
1739550767203865900,4.409865966796875,-34.656219482421875,20.393653869628906,24.170269012451172
1739550767213934600,4.4199345703125,-34.870452880859375,20.5164794921875,24.08635711669922
1739550767224004900,4.4300048828125,-34.721038818359375,20.775672912597656,24.186874389648438
1739550767234073600,4.440073486328125,-34.569305419921875,20.928329467773438,23.983604431152344
1739550767244142800,4.450142822265625,-34.655181884765625,20.94574737548828,23.88043975830078
1739550767254211600,4.460211669921875,-34.291290283203125,21.14672088623047,23.88426399230957
1739550767264280800,4.47028076171875,-34.313873291015625,21.10369110107422,23.67172622680664
1739550767274349600,4.480349609375,-34.024261474609375,20.86811065673828,23.821487426757812
1739550767284418600,4.49041845703125,-34.031402587890625,20.823997497558594,23.8395938873291
1739550767294488600,4.500488525390625,-33.946197509765625,20.92188262939453,23.639789581298828
1739550767304557800,4.510557861328125,-34.551910400390625,20.864959716796875,23.807401657104492
1739550767314626800,4.520626708984375,-34.531280517578125,20.76152801513672,23.67890739440918
1739550767324695600,4.530695556640625,-34.246002197265625,20.338294982910156,23.490659713745117
1739550767334764800,4.540764892578125,-34.591827392578125,20.23059844970703,23.631704330444336
1739550767344833500,4.55083349609375,-34.716461181640625,19.976364135742188,23.665918350219727
1739550767354902800,4.56090283203125,-34.848480224609375,19.926300048828125,23.579999923706055
1739550767364971500,4.570971435546875,-34.853973388671875,20.12109375,23.682456970214844
1739550767375041800,4.581041748046875,-34.678619384765625,19.941741943359375,23.715774536132812
1739550767385110500,4.591110595703125,-34.389739990234375,19.844093322753906,23.672761917114258
1739550767395179800,4.6011796875,-34.591094970703125,19.716407775878906,24.01203727722168
1739550767405248800,4.611248779296875,-34.183746337890625,19.644363403320312,23.734617233276367
1739550767415317800,4.62131787109375,-34.234283447265625,19.41741180419922,23.99616241455078
1739550767425386800,4.63138671875,-34.288848876953125,19.471786499023438,23.925233840942383
1739550767435455700,4.641455810546875,-34.624542236328125,19.724746704101562,23.68714141845703
1739550767445525800,4.65152587890625,-34.616180419921875,19.502708435058594,23.510883331298828
1739550767455594800,4.6615947265625,-34.858673095703125,19.722389221191406,23.533998489379883
1739550767465663700,4.671663818359375,-34.719451904296875,19.812294006347656,23.749738693237305
1739550767475732700,4.681732666015625,-34.616424560546875,19.564315795898438,23.80019187927246
1739550767485801700,4.6918017578125,-34.342987060546875,19.736717224121094,23.867984771728516
1739550767495870500,4.701870361328125,-34.773590087890625,19.537689208984375,23.94843101501465
1739550767505939700,4.711939697265625,-34.952423095703125,19.501419067382812,23.91791343688965
1739550767516009700,4.722009765625,-34.395843505859375,19.316787719726562,24.234722137451172
1739550767526078700,4.73207861328125,-34.493927001953125,19.18505096435547,24.486391067504883
1739550767536147700,4.742147705078125,-34.513641357421875,19.018104553222656,24.454784393310547
1739550767546216700,4.752216796875,-34.338897705078125,19.09980010986328,24.41716766357422
1739550767556285700,4.76228564453125,-34.291534423828125,19.04803466796875,24.311721801757812
1739550767566354700,4.772354736328125,-34.115447998046875,18.923851013183594,24.390838623046875
1739550767576423700,4.782423583984375,-34.395355224609375,18.81866455078125,24.303354263305664
1739550767586493700,4.79249365234375,-34.229949951171875,19.07093048095703,24.487857818603516
1739550767596562700,4.802562744140625,-33.952972412109375,19.049575805664062,24.5933780670166
1739550767606631700,4.812631591796875,-33.891998291015625,19.24651336669922,24.705202102661133
1739550767616700700,4.82270068359375,-34.033111572265625,19.10704803466797,24.6737060546875
1739550767626769700,4.832769775390625,-34.129791259765625,19.349380493164062,24.84918975830078
1739550767636838700,4.842838623046875,-33.763946533203125,19.110000610351562,24.780006408691406
1739550767646908000,4.852907958984375,-34.031707763671875,19.084732055664062,24.955724716186523
1739550767656977700,4.862977783203125,-34.068145751953125,18.875717163085938,25.056669235229492
1739550767667047000,4.873046875,-34.488739013671875,18.87000274658203,25.01262092590332
1739550767677115600,4.88311572265625,-34.162872314453125,18.80321502685547,25.012704849243164
1739550767687185000,4.893184814453125,-33.826263427734375,18.53131866455078,25.00995445251465
1739550767697253600,4.903253662109375,-33.869598388671875,18.604782104492188,24.987449645996094
1739550767707322600,4.913322509765625,-33.924896240234375,18.549705505371094,24.808942794799805
1739550767717391600,4.9233916015625,-34.218170166015625,18.691810607910156,24.808013916015625
1739550767727462000,4.9334619140625,-34.263336181640625,18.80158233642578,24.74148941040039
1739550767737530600,4.943530517578125,-34.561798095703125,18.957122802734375,24.74112319946289
1739550767747599600,4.953599609375,-34.197052001953125,19.012954711914062,24.69686508178711
1739550767757668600,4.963668701171875,-33.954681396484375,18.93474578857422,24.827301025390625
1739550767767737600,4.973737548828125,-33.784088134765625,18.750526428222656,24.840845108032227
1739550767777806800,4.983806884765625,-33.841400146484375,18.844985961914062,24.935302734375
1739550767787875600,4.99387548828125,-34.045562744140625,18.821380615234375,24.882936477661133
1739550767797945900,5.00394580078125,-34.087860107421875,18.71375274658203,24.773237228393555
1739550767808014600,5.0140146484375,-34.099578857421875,18.89002227783203,24.948471069335938
1739550767818083800,5.024083740234375,-34.291900634765625,19.084945678710938,24.928251266479492
1739550767828152600,5.034152587890625,-34.082305908203125,18.745155334472656,25.048107147216797
1739550767838221800,5.044221923828125,-33.863250732421875,18.91912078857422,24.911865234375
1739550767848290600,5.05429052734375,-34.027984619140625,18.92639923095703,25.071977615356445
1739550767858360800,5.06436083984375,-33.840606689453125,19.000244140625,25.167251586914062
1739550767868429600,5.0744296875,-34.085540771484375,18.878318786621094,25.011259078979492
1739550767878498800,5.084498779296875,-33.985748291015625,18.832664489746094,25.028854370117188
1739550767888567800,5.09456787109375,-33.655548095703125,18.982810974121094,24.82616424560547
1739550767898636800,5.10463671875,-34.069183349609375,19.002243041992188,24.70987892150879
1739550767908701200,5.114701171875,-34.015106201171875,18.954544067382812,24.48164939880371
1739550767918770400,5.1247705078125,-34.028289794921875,19.076446533203125,24.381641387939453
1739550767928840200,5.134840087890625,-33.722015380859375,18.925079345703125,24.46369171142578
1739550767938909200,5.1449091796875,-34.124481201171875,19.40154266357422,24.282302856445312
1739550767948978200,5.154978271484375,-34.277862548828125,19.444679260253906,24.353723526000977
1739550767959047400,5.16504736328125,-33.508575439453125,19.222572326660156,24.225919723510742
1739550767969116200,5.1751162109375,-33.456634521484375,19.421661376953125,24.214555740356445
1739550767979185200,5.18518505859375,-33.858245849609375,19.47051239013672,24.26764678955078
1739550767989254100,5.195254150390625,-33.727020263671875,19.856216430664062,24.39299774169922
1739550767999324200,5.20532421875,-33.580535888671875,19.82933807373047,24.122087478637695
1739550768009393200,5.21539306640625,-33.674835205078125,19.69690704345703,24.07686996459961
1739550768019462100,5.225462158203125,-33.891204833984375,19.884063720703125,24.059240341186523
1739550768029531100,5.23553125,-33.698394775390625,20.18933868408203,23.892263412475586
1739550768039600000,5.24560009765625,-33.692108154296875,20.24744415283203,23.801403045654297
1739550768049669400,5.25566943359375,-33.435516357421875,20.295135498046875,23.65839195251465
1739550768059739100,5.2657392578125,-33.897491455078125,20.388397216796875,23.806133270263672
1739550768069808000,5.27580810546875,-33.902618408203125,20.44915771484375,23.749631881713867
1739550768079877000,5.285877197265625,-33.898284912109375,20.560836791992188,23.5225772857666
1739550768089946400,5.2959462890625,-34.068634033203125,20.651565551757812,23.267242431640625
1739550768100015000,5.30601513671875,-33.884796142578125,20.62828826904297,23.18687629699707
1739550768110084400,5.31608447265625,-33.905242919921875,20.749359130859375,23.03699493408203
1739550768120154000,5.326154052734375,-33.880035400390625,20.98638153076172,23.08150291442871
1739550768130223400,5.336223388671875,-33.407562255859375,20.94213104248047,23.1572208404541
1739550768140292000,5.3462919921875,-34.050750732421875,20.83277130126953,22.8151798248291
1739550768150361300,5.356361328125,-33.938079833984375,20.928199768066406,22.722383499145508
1739550768160430000,5.36643017578125,-34.035980224609375,20.976242065429688,22.24849510192871
1739550768170499000,5.3764990234375,-34.059417724609375,20.934471130371094,22.29208755493164
1739550768180568300,5.386568359375,-34.305511474609375,21.281700134277344,21.973695755004883
1739550768190638300,5.396638427734375,-34.188568115234375,21.82392120361328,21.92855453491211
1739550768200707000,5.40670703125,-34.370574951171875,22.01079559326172,22.036907196044922
1739550768210776000,5.416776123046875,-34.178070068359375,22.215293884277344,21.970428466796875
1739550768220845300,5.42684521484375,-33.822418212890625,22.328330993652344,21.879375457763672
1739550768230914000,5.4369140625,-33.730499267578125,22.502700805664062,21.69241714477539
1739550768240983300,5.4469833984375,-33.409393310546875,22.7078857421875,21.878246307373047
1739550768251053000,5.457052978515625,-33.369293212890625,22.82213592529297,21.79894256591797
1739550768261122300,5.467122314453125,-33.472442626953125,23.10692596435547,22.187740325927734
1739550768271191000,5.47719091796875,-32.991241455078125,22.732620239257812,21.94139862060547
1739550768281260300,5.48726025390625,-32.950531005859375,22.53931427001953,22.208744049072266
1739550768291329000,5.4973291015625,-33.259002685546875,22.429306030273438,22.27413558959961
1739550768301398300,5.507398193359375,-33.321075439453125,22.451034545898438,22.17200469970703
1739550768311468000,5.517468017578125,-33.018463134765625,22.078567504882812,21.9698543548584
1739550768321537300,5.527537353515625,-33.175506591796875,22.356407165527344,21.89584732055664
1739550768331606300,5.537606201171875,-33.542999267578125,22.131027221679688,22.11233901977539
1739550768341675300,5.54767529296875,-33.553070068359375,21.960350036621094,22.26504898071289
1739550768351744300,5.557744140625,-33.458587646484375,21.79528045654297,22.424787521362305
1739550768361813200,5.567813232421875,-33.235931396484375,21.78752899169922,22.30010414123535
1739550768371883300,5.57788330078125,-33.368560791015625,21.469772338867188,22.330156326293945
1739550768381952300,5.5879521484375,-33.585479736328125,21.34514617919922,22.303037643432617
1739550768392021200,5.598021240234375,-33.390045166015625,21.509628295898438,21.947317123413086
1739550768402090200,5.60809033203125,-33.697418212890625,21.59417724609375,22.071535110473633
1739550768412159200,5.6181591796875,-34.095611572265625,21.60974884033203,21.810779571533203
1739550768422228200,5.628228271484375,-33.699493408203125,21.533958435058594,21.745704650878906
1739550768432298200,5.63829833984375,-34.086944580078125,21.740806579589844,21.628841400146484
1739550768442367200,5.6483671875,-33.718658447265625,21.89166259765625,21.1849308013916
1739550768452436200,5.658436279296875,-33.882415771484375,21.870498657226562,21.12795066833496
1739550768462505200,5.668505126953125,-33.980499267578125,21.727867126464844,21.109375
1739550768472574200,5.67857421875,-34.216766357421875,21.696327209472656,21.059650421142578
1739550768482643200,5.688643310546875,-34.098724365234375,21.538177490234375,20.950822830200195
1739550768492712200,5.698712158203125,-33.945709228515625,21.79737091064453,21.2165584564209
1739550768502782200,5.7087822265625,-33.783172607421875,21.68389129638672,21.23965072631836
1739550768512851200,5.718851318359375,-33.732452392578125,21.807373046875,21.36495590209961
1739550768522920200,5.728920166015625,-33.758819580078125,21.61327362060547,21.3806209564209
1739550768532989200,5.7389892578125,-33.993621826171875,21.592086791992188,21.533056259155273
1739550768543058200,5.74905810546875,-33.699615478515625,21.555160522460938,21.601808547973633
1739550768553127200,5.759127197265625,-33.432769775390625,21.67003631591797,21.554767608642578
1739550768563197200,5.769197265625,-33.434600830078125,21.634780883789062,21.592214584350586
1739550768573266200,5.77926611328125,-33.675872802734375,21.54571533203125,21.630916595458984
1739550768583335200,5.789335205078125,-33.701812744140625,21.69391632080078,21.504499435424805
1739550768593404400,5.799404296875,-33.649383544921875,21.694419860839844,21.4997501373291
1739550768603473200,5.80947314453125,-33.718231201171875,21.8382568359375,21.630252838134766
1739550768613542100,5.819542236328125,-33.574554443359375,21.561752319335938,21.6672306060791
1739550768623612200,5.829612060546875,-33.549591064453125,21.820213317871094,21.819128036499023
1739550768633681400,5.839681396484375,-33.556121826171875,21.99201202392578,21.825986862182617
1739550768643750100,5.849750244140625,-33.623565673828125,21.897804260253906,21.90121841430664
1739550768653819100,5.859819091796875,-33.490692138671875,22.10456085205078,22.00339698791504
1739550768663888100,5.86988818359375,-33.304229736328125,22.171363830566406,21.845727920532227
1739550768673957000,5.87995703125,-33.226959228515625,22.091171264648438,21.72844696044922
1739550768684027100,5.890027099609375,-33.228729248046875,22.09026336669922,21.81903076171875
1739550768694096100,5.90009619140625,-33.183258056640625,22.121414184570312,21.812379837036133
1739550768704165000,5.9101650390625,-33.274017333984375,22.24683380126953,21.81909942626953
1739550768714234000,5.920234130859375,-33.092742919921875,22.035552978515625,21.73360824584961
1739550768724303400,5.930303466796875,-32.864898681640625,22.30438995361328,21.91181182861328
1739550768734372000,5.9403720703125,-33.059906005859375,22.425025939941406,22.25152015686035
1739550768744442000,5.950442138671875,-33.216278076171875,22.434371948242188,22.357145309448242
1739550768754511000,5.960510986328125,-33.199249267578125,22.2733154296875,22.092954635620117
1739550768764580400,5.970580322265625,-32.927093505859375,22.435684204101562,21.90058135986328
1739550768774649000,5.980649169921875,-32.521209716796875,22.317848205566406,21.952587127685547
1739550768784718300,5.99071826171875,-32.835174560546875,22.37360382080078,21.87213706970215
1739550768794787000,6.000787109375,-32.998382568359375,22.33642578125,22.132335662841797
1739550768804857300,6.010857421875,-32.879974365234375,22.234825134277344,22.033710479736328
1739550768814926000,6.020926025390625,-32.792510986328125,22.134864807128906,22.035953521728516
1739550768824995300,6.030995361328125,-32.621246337890625,21.97869873046875,22.20539665222168
1739550768835064000,6.04106396484375,-32.768463134765625,22.118209838867188,22.054601669311523
1739550768845133300,6.05113330078125,-33.084686279296875,22.049354553222656,22.141311645507812
1739550768855202300,6.061202392578125,-32.965850830078125,21.871925354003906,21.956315994262695
1739550768865272300,6.071272216796875,-32.952850341796875,22.00562286376953,22.250192642211914
1739550768875341000,6.081341064453125,-32.892608642578125,22.02196502685547,22.091869354248047
1739550768885410300,6.091410400390625,-33.048004150390625,21.80675506591797,22.219194412231445
1739550768895479300,6.101479248046875,-32.804595947265625,21.698875427246094,22.134721755981445
1739550768905548500,6.111548583984375,-33.090728759765625,21.688072204589844,22.19989776611328
1739550768915617500,6.121617431640625,-32.959014892578125,21.262237548828125,22.169673919677734
1739550768925687600,6.1316875,-32.706878662109375,21.500656127929688,22.13428497314453
1739550768935756800,6.1417568359375,-32.577056884765625,21.184341430664062,22.20930290222168
1739550768945825500,6.151825439453125,-32.701019287109375,21.151214599609375,22.163333892822266
1739550768955894500,6.16189453125,-32.848846435546875,21.141220092773438,22.32355308532715
1739550768965963500,6.171963623046875,-32.513641357421875,21.096458435058594,22.54519271850586
1739550768976032500,6.182032470703125,-32.996612548828125,20.80144500732422,22.592742919921875
1739550768986102500,6.1921025390625,-33.016998291015625,21.01929473876953,22.566967010498047
1739550768996171500,6.202171630859375,-33.016998291015625,21.01929473876953,22.566967010498047
1739550769006240500,6.212240478515625,-32.789520263671875,20.4892578125,22.603145599365234
1739550769016309500,6.2223095703125,-32.783477783203125,20.09197235107422,22.31812858581543
1739550769026378800,6.232378662109375,-33.012298583984375,20.212844848632812,22.57871437072754
1739550769036447500,6.242447509765625,-33.011322021484375,20.014083862304688,22.383188247680664
1739550769046517500,6.252517578125,-33.216827392578125,19.87335968017578,22.548009872436523
1739550769056586500,6.26258642578125,-33.579742431640625,19.51689910888672,22.791461944580078
1739550769066655700,6.27265576171875,-33.648834228515625,19.20964813232422,22.840513229370117
1739550769076724500,6.282724365234375,-33.643524169921875,19.172264099121094,23.1746826171875
1739550769086793700,6.292793701171875,-33.532623291015625,18.815040588378906,23.062376022338867
1739550769096862500,6.302862548828125,-33.546356201171875,18.794715881347656,22.72132682800293
1739550769106932700,6.3129326171875,-33.348663330078125,19.205345153808594,22.730363845825195
1739550769117001500,6.32300146484375,-33.019195556640625,19.55683135986328,22.635238647460938
1739550769127070700,6.33307080078125,-32.872283935546875,19.944732666015625,22.21660804748535
1739550769137139500,6.343139404296875,-32.864898681640625,20.363975524902344,22.07926368713379
1739550769147208700,6.353208740234375,-32.924346923828125,20.57323455810547,21.76882553100586
1739550769157277700,6.363277587890625,-32.814483642578125,20.52777862548828,21.786312103271484
1739550769167347700,6.37334765625,-32.875335693359375,20.353622436523438,21.947879791259766
1739550769177416400,6.38341650390625,-33.279205322265625,19.939224243164062,21.992685317993164
1739550769187485400,6.3934853515625,-33.392547607421875,19.4903564453125,21.890174865722656
1739550769197554700,6.4035546875,-33.158966064453125,19.325302124023438,21.971446990966797
1739550769207623400,6.41362353515625,-33.131744384765625,19.308006286621094,21.951852798461914
1739550769217692700,6.423692626953125,-33.168975830078125,19.09709930419922,22.102712631225586
1739550769227762400,6.433762451171875,-33.554840087890625,18.647361755371094,21.72090721130371
1739550769237831700,6.443831787109375,-33.551422119140625,18.73126220703125,21.61738395690918
1739550769247900400,6.453900390625,-33.783294677734375,18.413291931152344,21.66870880126953
1739550769257969700,6.4639697265625,-33.679534912109375,18.553123474121094,21.902816772460938
1739550769268038400,6.474038330078125,-33.122528076171875,18.648963928222656,21.748659133911133
1739550769278107600,6.484107666015625,-33.289825439453125,18.909133911132812,21.763784408569336
1739550769288177400,6.494177490234375,-33.583343505859375,18.72895050048828,21.562225341796875
1739550769298246700,6.50424658203125,-33.546356201171875,18.70977020263672,21.807920455932617
1739550769308315400,6.5143154296875,-33.740203857421875,18.49334716796875,21.552003860473633
1739550769318384600,6.524384521484375,-33.948577880859375,18.530838012695312,21.692707061767578
1739550769328453600,6.53445361328125,-33.875701904296875,18.281578063964844,21.67155647277832
1739550769338522600,6.544522705078125,-33.394073486328125,18.268402099609375,21.5695858001709
1739550769348592600,6.554592529296875,-33.583953857421875,18.285415649414062,21.46664047241211
1739550769358661600,6.56466162109375,-33.650848388671875,18.520347595214844,21.632585525512695
1739550769368730600,6.574730712890625,-33.608734130859375,18.081077575683594,21.50718879699707
1739550769378799600,6.584799560546875,-33.204986572265625,17.694488525390625,21.58725357055664
1739550769388868600,6.59486865234375,-33.293670654296875,17.92010498046875,21.394319534301758
1739550769398938600,6.604938720703125,-32.918060302734375,18.02991485595703,21.426103591918945
1739550769409007600,6.615007568359375,-33.390045166015625,17.778778076171875,21.539941787719727
1739550769419076600,6.62507666015625,-33.191558837890625,17.68695068359375,21.542661666870117
1739550769429145600,6.6351455078125,-33.420745849609375,17.517234802246094,21.265077590942383
1739550769439214600,6.645214599609375,-33.614593505859375,17.336082458496094,21.228559494018555
1739550769449283600,6.65528369140625,-33.742523193359375,17.57323455810547,21.207643508911133
1739550769459353600,6.665353515625,-33.652557373046875,17.63928985595703,21.224645614624023
1739550769469422600,6.675422607421875,-33.467681884765625,17.599868774414062,21.29715347290039
1739550769479491600,6.68549169921875,-33.994232177734375,17.915794372558594,21.204143524169922
1739550769489560600,6.695560546875,-33.621490478515625,17.766395568847656,21.274627685546875
1739550769499629600,6.705629638671875,-34.041717529296875,18.17359161376953,21.184633255004883
1739550769509699600,6.715699462890625,-33.833831787109375,17.98223114013672,21.055721282958984
1739550769519768600,6.7257685546875,-33.909820556640625,17.985321044921875,21.192888259887695
1739550769529837600,6.735837646484375,-33.400909423828125,18.13202667236328,21.512046813964844
1739550769539906600,6.745906494140625,-33.227935791015625,18.254806518554688,21.39772605895996
1739550769549975600,6.7559755859375,-33.376373291015625,17.947830200195312,21.510568618774414
1739550769560044500,6.76604443359375,-33.263397216796875,17.922447204589844,21.691808700561523
1739550769570114600,6.776114501953125,-33.539337158203125,17.912612915039062,21.693788528442383
1739550769580183600,6.78618359375,-33.374542236328125,17.936416625976562,21.956859588623047
1739550769590252500,6.79625244140625,-33.398406982421875,17.841835021972656,21.98809051513672
1739550769600321500,6.806321533203125,-33.055999755859375,17.78546142578125,22.065160751342773
1739550769610390800,6.816390869140625,-33.019927978515625,17.69873046875,22.2646541595459
1739550769620459500,6.82645947265625,-32.840728759765625,17.657737731933594,22.34151840209961
1739550769630529500,6.836529541015625,-33.217010498046875,17.733375549316406,22.11258888244629
1739550769640598500,6.8465986328125,-32.942779541015625,17.679763793945312,22.084285736083984
1739550769650667800,6.856667724609375,-33.199859619140625,17.694313049316406,22.311643600463867
1739550769660736500,6.866736572265625,-32.845977783203125,17.675186157226562,22.41360855102539
1739550769670805800,6.8768056640625,-32.950897216796875,17.819564819335938,22.320730209350586
1739550769680875500,6.88687548828125,-32.854339599609375,17.79619598388672,21.98879051208496
1739550769690944800,6.89694482421875,-33.029998779296875,17.67388153076172,22.01630210876465
1739550769701013500,6.907013427734375,-32.974517822265625,17.6336669921875,22.031686782836914
1739550769711082500,6.91708251953125,-33.130462646484375,18.023971557617188,22.015029907226562
1739550769721151500,6.9271513671875,-32.976226806640625,18.064979553222656,21.832500457763672
1739550769731220500,6.937220458984375,-32.828826904296875,18.05567169189453,21.770715713500977
1739550769741290500,6.94729052734375,-33.123748779296875,17.813400268554688,21.863983154296875
1739550769751359500,6.957359375,-32.754974365234375,17.718734741210938,21.756938934326172
1739550769761428500,6.967428466796875,-33.346160888671875,17.621360778808594,22.004175186157227
1739550769771497500,6.97749755859375,-33.141021728515625,17.663658142089844,21.756120681762695
1739550769781566700,6.987566650390625,-33.451019287109375,17.775283813476562,21.918415069580078
1739550769791636500,6.997636474609375,-32.951263427734375,18.004440307617188,21.79682731628418
1739550769801705500,7.00770556640625,-32.994293212890625,17.708030700683594,21.716583251953125
1739550769811774500,7.0177744140625,-33.099395751953125,17.806015014648438,21.741195678710938
1739550769821843700,7.02784375,-33.200408935546875,17.51434326171875,21.751083374023438
1739550769831912400,7.037912353515625,-33.131439208984375,17.691200256347656,21.80687141418457
1739550769841981700,7.047981689453125,-33.049224853515625,17.62767791748047,21.884807586669922
1739550769852051500,7.058051513671875,-33.123077392578125,17.62859344482422,21.607454299926758
1739550769862120700,7.06812060546875,-32.968292236328125,17.5755615234375,21.68731117248535
1739550769872189400,7.078189453125,-32.637908935546875,17.546058654785156,21.858585357666016
1739550769882258700,7.0882587890625,-32.961456298828125,17.840789794921875,21.675857543945312
1739550769892327400,7.098327392578125,-33.001251220703125,17.873687744140625,21.69059181213379
1739550769902397700,7.108397705078125,-32.986297607421875,17.674713134765625,21.615327835083008
1739550769912470000,7.118469970703125,-33.043304443359375,17.774185180664062,21.514984130859375
1739550769922539300,7.128539306640625,-32.934722900390625,17.786468505859375,21.511499404907227
1739550769932608000,7.13860791015625,-32.858001708984375,17.746841430664062,21.685087203979492
1739550769942677200,7.14867724609375,-32.648223876953125,17.98363494873047,21.576940536499023
1739550769952747000,7.1587470703125,-32.564544677734375,17.815048217773438,21.283893585205078
1739550769962816300,7.168816162109375,-32.639190673828125,17.902389526367188,21.413734436035156
1739550769972885200,7.17888525390625,-33.047149658203125,17.878677368164062,21.339387893676758
1739550769982954200,7.188954345703125,-32.709503173828125,17.70574188232422,21.694721221923828
1739550769993023200,7.199023193359375,-32.468658447265625,17.89087677001953,21.604299545288086
1739550770003092200,7.20909228515625,-32.974578857421875,17.6741943359375,21.586084365844727
1739550770013162200,7.219162353515625,-32.828216552734375,17.63591766357422,21.740819931030273
1739550770023231200,7.229231201171875,-32.799835205078125,17.40179443359375,21.68855857849121
1739550770033300200,7.23930029296875,-32.792999267578125,17.30756378173828,21.395097732543945
1739550770043369200,7.249369140625,-32.829071044921875,17.28814697265625,21.36569595336914
1739550770053438200,7.259438232421875,-32.845062255859375,17.35565948486328,21.31561851501465
1739550770063508200,7.26950830078125,-32.607452392578125,17.385276794433594,21.29583168029785
1739550770073577200,7.2795771484375,-32.580352783203125,17.38782501220703,20.854000091552734
1739550770083646200,7.289646240234375,-32.780975341796875,17.79144287109375,20.776901245117188
1739550770093715200,7.299715087890625,-32.788482666015625,17.91034698486328,20.42616844177246
1739550770103784200,7.3097841796875,-32.496124267578125,17.99848175048828,20.26271629333496
1739550770113853200,7.319853271484375,-32.589141845703125,18.045745849609375,20.384017944335938
1739550770123923200,7.329923095703125,-32.727935791015625,18.22136688232422,20.513195037841797
1739550770133992200,7.3399921875,-32.880706787109375,18.370162963867188,20.38418960571289
1739550770144061200,7.350061279296875,-32.690765380859375,18.363807678222656,20.579721450805664
1739550770154130200,7.360130126953125,-32.778839111328125,18.404281616210938,20.886701583862305
1739550770164199200,7.37019921875,-32.406524658203125,18.192604064941406,20.90066146850586
1739550770174269200,7.380269287109375,-32.587677001953125,18.145248413085938,20.83032989501953
1739550770184338200,7.390338134765625,-32.584381103515625,18.244422912597656,20.887510299682617
1739550770194407200,7.4004072265625,-32.291900634765625,17.865516662597656,20.82608413696289
1739550770204476200,7.41047607421875,-32.081817626953125,17.90899658203125,21.053447723388672
1739550770214545200,7.420545166015625,-32.501739501953125,17.59571075439453,20.96794319152832
1739550770224615200,7.430615234375,-32.387298583984375,17.45990753173828,21.03839111328125
1739550770234684200,7.44068408203125,-32.206817626953125,17.27008819580078,20.948396682739258
1739550770244753200,7.450753173828125,-32.475799560546875,17.399192810058594,20.910776138305664
1739550770254822100,7.460822265625,-32.652618408203125,17.328575134277344,21.03173828125
1739550770264891100,7.47089111328125,-32.538116455078125,17.148109436035156,20.938392639160156
1739550770274960400,7.48096044921875,-32.959503173828125,17.17205047607422,20.723121643066406
1739550770285030100,7.491030029296875,-32.482025146484375,17.068260192871094,20.877378463745117
1739550770295099100,7.50109912109375,-32.555450439453125,16.906234741210938,20.784645080566406
1739550770305168100,7.511168212890625,-32.613189697265625,17.010780334472656,20.76448631286621
1739550770315237400,7.5212373046875,-32.776763916015625,17.182861328125,20.63141441345215
1739550770325306000,7.53130615234375,-32.749237060546875,17.155677795410156,20.553466796875
1739550770335376400,7.54137646484375,-32.524566650390625,16.954833984375,20.087383270263672
1739550770345445000,7.551445068359375,-33.039093017578125,17.193878173828125,19.781091690063477
1739550770355514400,7.561514404296875,-32.693939208984375,17.13178253173828,19.7633113861084
1739550770365583000,7.5715830078125,-32.673614501953125,17.20294189453125,19.707273483276367
1739550770375652400,7.58165234375,-32.643890380859375,17.236480712890625,19.169157028198242
1739550770385722000,7.59172216796875,-32.896942138671875,17.302536010742188,19.243722915649414
1739550770395791400,7.601791259765625,-32.532012939453125,17.290206909179688,19.54012680053711
1739550770405860000,7.611860107421875,-32.904937744140625,17.45500946044922,19.303316116333008
1739550770415929300,7.621929443359375,-32.681304931640625,17.39520263671875,19.434892654418945
1739550770425998300,7.631998291015625,-32.605560302734375,17.450767517089844,19.616933822631836
1739550770436067000,7.642067138671875,-32.345184326171875,17.299415588378906,19.675207138061523
1739550770446137000,7.65213720703125,-32.359893798828125,17.10753631591797,19.795188903808594
1739550770456206000,7.6622060546875,-31.834442138671875,17.30419921875,20.058748245239258
1739550770466275300,7.672275390625,-32.028778076171875,17.257125854492188,20.340572357177734
1739550770476344000,7.682343994140625,-31.855804443359375,17.260177612304688,20.462438583374023
1739550770486413300,7.692413330078125,-32.457244873046875,17.226898193359375,20.402698516845703
1739550770496483000,7.702483154296875,-31.727691650390625,17.220977783203125,20.53139305114746
1739550770506552300,7.71255224609375,-31.786895751953125,17.30042266845703,20.449167251586914
1739550770516621000,7.72262109375,-31.649871826171875,17.244338989257812,20.494972229003906
1739550770526690300,7.732690185546875,-31.622955322265625,17.360137939453125,20.523082733154297
1739550770536759000,7.742759033203125,-31.578948974609375,17.366943359375,20.4151554107666
1739550770546829300,7.752829345703125,-31.510772705078125,17.327545166015625,20.576091766357422
1739550770556898000,7.76289794921875,-31.517120361328125,17.353424072265625,20.68565559387207
1739550770566967300,7.77296728515625,-31.447601318359375,17.630859375,20.64626693725586
1739550770577036000,7.7830361328125,-31.259918212890625,17.773841857910156,20.397098541259766
1739550770587105300,7.793105224609375,-31.282073974609375,17.875328063964844,20.70389747619629
1739550770597174300,7.80317431640625,-31.372161865234375,18.084381103515625,20.59889793395996
1739550770607244300,7.813244384765625,-31.591522216796875,18.046188354492188,20.48871612548828
1739550770617313000,7.82331298828125,-31.656158447265625,17.9132080078125,20.52885627746582
1739550770627382300,7.83338232421875,-31.391510009765625,18.018959045410156,20.61470603942871
1739550770637451300,7.843451171875,-31.193084716796875,17.99317169189453,20.597660064697266
1739550770647520300,7.853520263671875,-31.307464599609375,17.949081420898438,20.502052307128906
1739550770657590300,7.86359033203125,-31.414642333984375,18.126121520996094,20.72804832458496
1739550770667659300,7.8736591796875,-31.662017822265625,17.86798858642578,20.534391403198242
1739550770677728300,7.883728271484375,-31.423004150390625,18.11827850341797,20.83820343017578
1739550770687797200,7.89379736328125,-31.389068603515625,18.070281982421875,20.796812057495117
1739550770697866200,7.9038662109375,-31.316375732421875,18.152084350585938,21.022390365600586
1739550770707936300,7.913936279296875,-30.982757568359375,17.832557678222656,20.882461547851562
1739550770718005200,7.924005126953125,-31.164337158203125,17.76044464111328,21.096773147583008
1739550770728074200,7.93407421875,-31.016693115234375,17.70263671875,21.131328582763672
1739550770738143200,7.944143310546875,-30.764495849609375,17.795211791992188,21.285898208618164
1739550770748212200,7.954212158203125,-30.409576416015625,17.58855438232422,21.069740295410156
1739550770758281200,7.96428125,-30.653961181640625,17.608009338378906,21.40968894958496
1739550770768351200,7.974351318359375,-30.636505126953125,17.732269287109375,21.352252960205078
1739550770778420200,7.984420166015625,-31.089324951171875,17.80529022216797,21.456090927124023
1739550770788489200,7.9944892578125,-31.045745849609375,17.75212860107422,21.416513442993164
1739550770798558200,8.00455810546875,-30.815399169921875,17.739028930664062,21.426939010620117
1739550770808627200,8.014627197265625,-30.319305419921875,17.491241455078125,21.74858856201172
1739550770818697200,8.024697265625,-30.143280029296875,17.22559356689453,21.553401947021484
1739550770828766200,8.03476611328125,-30.597747802734375,17.50567626953125,21.799720764160156
1739550770838835200,8.044835205078124,-30.749725341796875,17.337387084960938,21.861507415771484
1739550770848904200,8.054904296875,-30.157745361328125,17.194686889648438,22.067514419555664
1739550770858973200,8.06497314453125,-30.337310791015625,17.198265075683594,21.879749298095703
1739550770869043200,8.075043212890625,-30.239105224609375,16.9388427734375,22.073829650878906
1739550770879112200,8.0851123046875,-30.376617431640625,17.12525177001953,21.989768981933594
1739550770889181200,8.09518115234375,-29.866424560546875,16.940773010253906,22.265302658081055
1739550770899250200,8.105250244140626,-29.911224365234375,16.839569091796875,22.419260025024414
1739550770909319400,8.1153193359375,-29.880340576171875,17.001739501953125,22.41374969482422
1739550770919389400,8.125389404296875,-30.121246337890625,16.832183837890625,22.51896095275879
1739550770929458400,8.13545849609375,-30.265655517578125,16.57141876220703,22.570911407470703
1739550770939527400,8.14552734375,-30.530548095703125,16.712669372558594,22.479724884033203
1739550770949596400,8.155596435546874,-29.856781005859375,17.029083251953125,22.442562103271484
1739550770959665700,8.165665771484376,-29.740570068359375,16.86377716064453,22.939382553100586
1739550770969735400,8.1757353515625,-29.717803955078125,16.547714233398438,23.069658279418945
1739550770979804400,8.185804443359375,-29.877777099609375,16.48369598388672,22.950931549072266
1739550770989873400,8.195873291015625,-30.097076416015625,16.453636169433594,23.125276565551758
1739550770999942700,8.205942626953124,-29.392730712890625,16.370376586914062,23.230972290039062
1739550771010011400,8.216011474609376,-29.387847900390625,16.307723999023438,23.409282684326172
1739550771020080600,8.22608056640625,-29.734771728515625,16.314559936523438,23.354637145996094
1739550771030150400,8.236150390625,-29.228546142578125,16.339996337890625,23.33206558227539
1739550771040219600,8.2462197265625,-28.996307373046875,16.259368896484375,23.361555099487305
1739550771050288400,8.256288330078124,-28.818328857421875,16.39068603515625,23.343597412109375
1739550771060357400,8.266357421875,-28.607574462890625,16.479110717773438,23.328432083129883
1739550771070426400,8.27642626953125,-28.936248779296875,16.726638793945312,23.4719181060791
1739550771080496600,8.28649658203125,-28.838897705078125,16.974876403808594,23.606731414794922
1739550771090565400,8.2965654296875,-28.605621337890625,17.15990447998047,23.63623809814453
1739550771100634400,8.30663427734375,-28.553558349609375,17.298057556152344,23.587326049804688
1739550771110703400,8.316703369140624,-28.583099365234375,17.35112762451172,23.253173828125
1739550771120772400,8.3267724609375,-28.702239990234375,17.18109130859375,23.48407745361328
1739550771130842400,8.33684228515625,-28.781951904296875,17.1856689453125,23.3437442779541
1739550771140911400,8.346911376953125,-29.096160888671875,17.177162170410156,23.52858543395996
1739550771150980400,8.35698046875,-28.832061767578125,16.92858123779297,23.560550689697266
1739550771161049300,8.36704931640625,-29.143768310546875,16.92340850830078,23.61456871032715
1739550771171118600,8.37711865234375,-29.434478759765625,16.700698852539062,23.55536460876465
1739550771181188400,8.387188232421876,-29.348236083984375,16.597328186035156,23.520259857177734
1739550771191257600,8.397257568359375,-29.273651123046875,16.626296997070312,23.617401123046875
1739550771201326300,8.407326416015625,-29.323028564453125,16.417327880859375,23.540189743041992
1739550771211395600,8.4173955078125,-29.374237060546875,16.477455139160156,23.566343307495117
1739550771221464300,8.42746435546875,-29.350494384765625,16.253089904785156,23.193134307861328
1739550771231533600,8.437533447265626,-29.527618408203125,16.36595916748047,22.893911361694336
1739550771241603300,8.447603271484375,-29.524627685546875,16.04743194580078,22.828670501708984
1739550771251672600,8.457672607421875,-29.878204345703125,16.083900451660156,22.620033264160156
1739550771261741300,8.4677412109375,-29.525604248046875,16.17127227783203,22.650480270385742
1739550771271810600,8.477810546875,-29.575836181640625,16.011863708496094,22.66412353515625
1739550771281879600,8.487879638671876,-29.488128662109375,15.987289428710938,22.66201400756836
1739550771291949600,8.497949462890626,-29.366058349609375,15.992729187011719,22.498449325561523
1739550771302018300,8.508018310546875,-29.481842041015625,16.012542724609375,22.564767837524414
1739550771312087600,8.518087646484375,-29.271453857421875,15.626625061035156,22.699363708496094
1739550771322156500,8.528156494140624,-29.693817138671875,15.817352294921875,22.940359115600586
1739550771332225500,8.5382255859375,-29.325408935546875,15.294624328613281,23.111459732055664
1739550771342295300,8.54829541015625,-29.046478271484375,15.487747192382812,23.320938110351562
1739550771352364500,8.558364501953125,-29.076263427734375,15.337844848632812,23.273330688476562
1739550771362433500,8.56843359375,-29.373443603515625,15.410247802734375,23.025972366333008
1739550771372502500,8.57850244140625,-29.287078857421875,15.766670227050781,23.048336029052734
1739550771382571500,8.588571533203124,-29.477386474609375,15.946754455566406,23.05797576904297
1739550771392640300,8.59864013671875,-29.027130126953125,15.588775634765625,23.013036727905273
1739550771402710500,8.60871044921875,-29.183258056640625,15.529891967773438,23.115966796875
1739550771412779300,8.618779296875,-28.971282958984375,15.668495178222656,22.916736602783203
1739550771422848500,8.6288486328125,-29.270904541015625,15.624626159667969,22.76702880859375
1739550771432917200,8.638917236328124,-29.614654541015625,15.383903503417969,22.84455108642578
1739550771442986500,8.648986572265626,-29.484161376953125,15.629074096679688,22.793052673339844
1739550771453056300,8.65905615234375,-29.482269287109375,15.551567077636719,22.719022750854492
1739550771463125500,8.66912548828125,-29.444122314453125,15.302963256835938,23.0233154296875
1739550771473194200,8.6791943359375,-29.608245849609375,15.210945129394531,22.72871208190918
1739550771483263500,8.689263427734375,-29.845733642578125,15.23321533203125,22.916181564331055
1739550771493332500,8.69933251953125,-29.548309326171875,15.287635803222656,22.68297004699707
1739550771503402500,8.709402587890626,-29.904632568359375,15.229301452636719,22.62308120727539
1739550771513471500,8.719471435546875,-30.101165771484375,15.352706909179688,22.786346435546875
1739550771523540500,8.72954052734375,-30.216888427734375,15.181243896484375,22.78444480895996
1739550771533609500,8.739609375,-29.927764892578125,15.462486267089844,23.032230377197266
1739550771543678500,8.749678466796874,-30.149444580078125,15.321769714355469,22.790130615234375
1739550771553747500,8.75974755859375,-30.184661865234375,15.231056213378906,22.888874053955078
1739550771563817500,8.7698173828125,-30.163543701171875,15.357254028320312,22.85366439819336
1739550771573886500,8.779886474609375,-29.857696533203125,15.136192321777344,22.488677978515625
1739550771583955500,8.78995556640625,-29.853790283203125,15.004745483398438,22.38750648498535
1739550771594024400,8.8000244140625,-29.590911865234375,15.178016662597656,22.58550262451172
1739550771604093400,8.810093505859374,-29.794464111328125,15.197380065917969,22.518896102905273
1739550771614163500,8.82016357421875,-29.837677001953125,15.263511657714844,22.32073211669922
1739550771624232400,8.830232421875,-29.949920654296875,15.214027404785156,22.46506690979004
1739550771634301400,8.840301513671875,-30.130889892578125,15.254615783691406,22.313215255737305
1739550771644370400,8.850370361328125,-30.204132080078125,15.124160766601562,22.264833450317383
1739550771654439400,8.860439453125,-30.164642333984375,15.194320678710938,22.33942985534668
1739550771664509400,8.870509521484376,-29.645782470703125,15.435211181640625,22.22080421447754
1739550771674578400,8.880578369140625,-29.865264892578125,15.282119750976562,22.18264389038086
1739550771684647700,8.890647705078125,-30.020172119140625,15.434150695800781,22.177404403686523
1739550771694716400,8.90071630859375,-29.925201416015625,15.60009765625,22.22788429260254
1739550771704785400,8.910785400390624,-30.165374755859375,15.845046997070312,22.2143611907959
1739550771714855400,8.92085546875,-30.019317626953125,15.84515380859375,22.34963607788086
1739550771724924700,8.930924560546876,-30.254425048828125,16.115943908691406,22.26764678955078
1739550771734993400,8.940993408203125,-29.946136474609375,16.158782958984375,22.311805725097656
1739550771745062400,8.9510625,-29.581268310546875,16.22509002685547,22.36264419555664
1739550771755131400,8.96113134765625,-29.746856689453125,16.256988525390625,22.405527114868164
1739550771765200400,8.971200439453124,-30.239410400390625,16.11815643310547,22.230709075927734
1739550771775270400,8.9812705078125,-29.791534423828125,15.967391967773438,21.89684295654297
1739550771785339400,8.99133935546875,-29.648223876953125,15.985671997070312,21.73016929626465
1739550771795408400,9.001408447265625,-29.522308349609375,16.242881774902344,21.959867477416992
1739550771805477400,9.011477294921875,-29.538360595703125,16.372909545898438,21.931976318359375
1739550771815546600,9.021546630859374,-29.712982177734375,16.4224853515625,22.196468353271484
1739550771825616400,9.031616455078124,-29.750946044921875,16.38018798828125,21.830608367919922
1739550771835685400,9.041685302734376,-29.919830322265625,16.41558074951172,21.914236068725586
1739550771845754400,9.05175439453125,-29.787322998046875,16.515945434570312,21.90118408203125
1739550771855823600,9.06182373046875,-29.827606201171875,16.395843505859375,21.856643676757812
1739550771865892400,9.071892333984374,-29.964080810546875,16.193565368652344,21.654006958007812
1739550771875962400,9.08196240234375,-29.679718017578125,16.06739044189453,21.652782440185547
1739550771886031400,9.09203125,-29.661407470703125,16.10443878173828,21.588531494140625
1739550771896100600,9.1021005859375,-29.841278076171875,16.41266632080078,21.442026138305664
1739550771906169300,9.11216943359375,-29.877532958984375,16.76043701171875,21.439123153686523
1739550771916234800,9.12223486328125,-29.620635986328125,16.788421630859375,21.199193954467773
1739550771926304800,9.1323046875,-30.052825927734375,16.869857788085938,21.033361434936523
1739550771936373800,9.142373779296875,-30.046173095703125,16.78302764892578,20.655508041381836
1739550771946442500,9.1524423828125,-29.974945068359375,16.73346710205078,20.45216941833496
1739550771956511700,9.16251171875,-30.401275634765625,16.91735076904297,20.230567932128906
1739550771966580700,9.172580810546876,-30.375213623046875,16.902976989746094,20.008955001831055
1739550771976650800,9.182650634765626,-30.079254150390625,17.17908477783203,20.023155212402344
1739550771986719500,9.192719482421875,-30.340911865234375,17.090301513671875,19.943689346313477
1739550771996788700,9.202788818359375,-30.273162841796875,17.37639617919922,20.043354034423828
1739550772006857700,9.212857666015625,-29.695220947265625,17.280235290527344,20.37149429321289
1739550772016926700,9.2229267578125,-29.671051025390625,17.213668823242188,20.287927627563477
1739550772026995700,9.23299560546875,-29.772064208984375,17.237525939941406,20.48473358154297
1739550772037065700,9.243065673828125,-29.971771240234375,17.12091827392578,20.696212768554688
1739550772047134700,9.253134765625,-30.141021728515625,17.273895263671875,20.840442657470703
1739550772057203700,9.26320361328125,-29.833587646484375,17.19487762451172,21.0308780670166
1739550772067272700,9.273272705078124,-29.365325927734375,16.978050231933594,21.107128143310547
1739550772077341700,9.283341796875,-29.381988525390625,16.788436889648438,20.962535858154297
1739550772087411700,9.29341162109375,-29.440704345703125,16.750228881835938,21.046720504760742
1739550772097480700,9.303480712890625,-29.139984130859375,16.503173828125,21.153751373291016
1739550772107549700,9.3135498046875,-29.614776611328125,16.287384033203125,21.28980255126953
1739550772117618700,9.32361865234375,-29.507598876953125,16.15283966064453,21.313514709472656
1739550772127687700,9.333687744140626,-29.564666748046875,15.783561706542969,21.403486251831055
1739550772137757700,9.3437578125,-29.886016845703125,15.731971740722656,21.134765625
1739550772147826700,9.35382666015625,-30.310577392578125,15.687278747558594,21.372852325439453
1739550772157895700,9.363895751953125,-30.235260009765625,15.3426513671875,21.086793899536133
1739550772167964700,9.373964599609375,-30.503814697265625,15.217430114746094,20.77709197998047
1739550772178033700,9.38403369140625,-30.542205810546875,15.113685607910156,20.787290573120117
1739550772188103700,9.394103759765626,-30.287384033203125,15.085128784179688,20.47224235534668
1739550772198173000,9.4041728515625,-30.244354248046875,15.475875854492188,20.533119201660156
1739550772208241700,9.41424169921875,-29.895843505859375,15.447402954101562,20.342878341674805
1739550772218310700,9.424310546875,-30.009918212890625,15.677886962890625,20.162654876708984
1739550772228379600,9.434379638671874,-30.350433349609375,15.687675476074219,20.159379959106445
1739550772238450000,9.444449951171874,-30.246368408203125,15.923484802246094,20.31011390686035
1739550772248518700,9.4545185546875,-30.508819580078125,16.14037322998047,20.224653244018555
1739550772258587600,9.464587646484375,-30.329254150390625,15.978469848632812,20.011014938354492
1739550772268656600,9.47465673828125,-30.342803955078125,16.1014404296875,19.844850540161133
1739550772278725600,9.4847255859375,-30.766876220703125,16.33306121826172,19.844758987426758
1739550772288795600,9.494795654296874,-30.162200927734375,16.269775390625,19.976770401000977
1739550772298864600,9.50486474609375,-30.062774658203125,16.048492431640625,20.18047523498535
1739550772308933600,9.51493359375,-30.170318603515625,16.100852966308594,20.323476791381836
1739550772319002600,9.525002685546875,-29.988128662109375,16.308189392089844,20.417325973510742
1739550772329071900,9.53507177734375,-30.238739013671875,16.252395629882812,20.338926315307617
1739550772339140600,9.545140625,-30.737396240234375,15.935707092285156,20.478605270385742
1739550772349210600,9.555210693359374,-30.219268798828125,16.156272888183594,20.506908416748047
1739550772359279600,9.565279541015625,-29.874786376953125,16.22162628173828,20.476058959960938
1739550772369348900,9.575348876953125,-29.649810791015625,16.324256896972656,20.674596786499023
1739550772379417600,9.58541748046875,-30.244842529296875,16.61437225341797,20.61973762512207
1739550772389486800,9.59548681640625,-29.934478759765625,16.71080780029297,20.625530242919922
1739550772399556600,9.605556640625,-30.022186279296875,16.733718872070312,20.594114303588867
1739550772409625900,9.6156259765625,-29.679473876953125,16.594085693359375,20.652252197265625
1739550772419694600,9.625694580078125,-29.487457275390625,16.676841735839844,20.912607192993164
1739550772429763800,9.635763916015625,-29.717803955078125,16.67833709716797,20.527416229248047
1739550772439832600,9.64583251953125,-29.258270263671875,16.75312042236328,20.71552085876465
1739550772449902800,9.65590283203125,-29.136199951171875,16.90564727783203,20.8701171875
1739550772459971600,9.6659716796875,-29.101531982421875,17.05322265625,20.86009407043457
1739550772470040800,9.676040771484375,-29.337249755859375,16.754859924316406,20.997915267944336
1739550772480109600,9.686109619140625,-29.131500244140625,16.62494659423828,20.93168067932129
1739550772490178600,9.696178466796875,-29.368682861328125,16.678016662597656,21.10561752319336
1739550772500248600,9.70624853515625,-29.329925537109375,16.835655212402344,21.088544845581055
1739550772510317800,9.71631787109375,-29.203643798828125,16.873519897460938,21.2570858001709
1739550772520386800,9.72638671875,-29.559539794921875,16.84198760986328,21.10045623779297
1739550772530455600,9.73645556640625,-29.029388427734375,16.809646606445312,21.009998321533203
1739550772540524800,9.74652490234375,-29.151885986328125,16.769187927246094,21.033571243286133
1739550772550594800,9.7565947265625,-28.987091064453125,17.142547607421875,21.050148010253906
1739550772560663800,9.766663818359374,-28.889923095703125,16.79804229736328,21.074296951293945
1739550772570732500,9.776732666015626,-29.180267333984375,16.90180206298828,21.022541046142578
1739550772580801800,9.7868017578125,-29.116790771484375,16.80010986328125,21.22909927368164
1739550772590870500,9.79687060546875,-28.555633544921875,16.619186401367188,21.442916870117188
1739550772600940800,9.80694091796875,-28.908233642578125,16.872756958007812,21.44865608215332
1739550772611009500,9.817009521484374,-28.771026611328125,16.917823791503906,21.199548721313477
1739550772621078800,9.827078857421874,-28.742889404296875,16.978012084960938,21.407651901245117
1739550772631147500,9.8371474609375,-28.998077392578125,16.942779541015625,21.440431594848633
1739550772641216800,9.847216796875,-29.035430908203125,16.87177276611328,21.449739456176758
1739550772651285800,9.85728564453125,-28.823089599609375,16.949691772460938,21.61153221130371
1739550772661355800,9.867355712890625,-28.522430419921875,16.958091735839844,21.978618621826172
1739550772671424500,9.877424560546874,-28.621917724609375,16.921165466308594,21.978750228881836
1739550772681493800,9.88749365234375,-28.772857666015625,16.615089416503906,22.001415252685547
1739550772691562800,9.897562744140625,-28.658294677734375,16.60033416748047,22.012374877929688
1739550772701631700,9.9076318359375,-28.642425537109375,16.566665649414062,22.094078063964844
1739550772711701500,9.917701416015625,-28.462982177734375,16.53264617919922,22.5599422454834
1739550772721770800,9.927770751953124,-28.537811279296875,16.426300048828125,22.425613403320312
1739550772731839700,9.93783984375,-28.139007568359375,16.39592742919922,22.40437889099121
1739550772741908700,9.94790869140625,-28.520477294921875,16.391433715820312,22.496437072753906
1739550772751977700,9.957977783203125,-28.438323974609375,16.166709899902344,22.394201278686523
1739550772762047700,9.9680478515625,-28.186737060546875,15.88720703125,22.581972122192383
1739550772772116700,9.97811669921875,-28.684967041015625,15.807952880859375,22.77750587463379
1739550772782185700,9.988185791015624,-28.908721923828125,15.888023376464844,22.600547790527344
1739550772792254700,9.998254638671876,-28.623138427734375,15.865158081054688,22.485103607177734
1739550772802323500,10.008323486328125,-28.777984619140625,15.955223083496094,22.680042266845703
1739550772812393700,10.018393798828125,-29.115753173828125,15.701995849609375,22.549755096435547
1739550772822462700,10.028462646484375,-29.078399658203125,15.506591796875,22.58592987060547
1739550772832531700,10.03853173828125,-29.030303955078125,15.484176635742188,22.273571014404297
1739550772842600700,10.0486005859375,-29.128570556640625,15.694610595703125,22.191940307617188
1739550772852669700,10.058669677734375,-29.345855712890625,15.614646911621094,22.162508010864258
1739550772862739700,10.06873974609375,-29.257720947265625,15.630264282226562,22.09048080444336
1739550772872808700,10.07880859375,-28.811492919921875,15.955207824707031,21.84937858581543
1739550772882877700,10.088877685546874,-29.079071044921875,15.697601318359375,21.881961822509766
1739550772892946700,10.09894677734375,-29.334014892578125,15.803260803222656,22.006736755371094
1739550772903015700,10.109015625,-29.378997802734375,16.018112182617188,21.904861450195312
1739550772913086000,10.1190859375,-29.298370361328125,15.601516723632812,22.090124130249023
1739550772923155000,10.129155029296875,-29.097320556640625,15.513755798339844,22.111949920654297
1739550772933224000,10.139223876953125,-29.613372802734375,15.612297058105469,22.116228103637695
1739550772943293200,10.149293212890624,-29.244598388671875,15.525581359863281,22.015905380249023
1739550772953362000,10.15936181640625,-29.632843017578125,15.228981018066406,21.902000427246094
1739550772963431000,10.169430908203125,-29.231109619140625,15.113410949707031,22.06692123413086
1739550772973501000,10.1795009765625,-29.529571533203125,15.293930053710938,22.15355110168457
1739550772983570200,10.189570068359375,-29.133331298828125,15.048896789550781,22.453704833984375
1739550772993639000,10.199638916015624,-29.644073486328125,14.886039733886719,22.305124282836914
1739550773003708000,10.2097080078125,-29.824066162109375,14.775680541992188,22.250926971435547
1739550773013777000,10.21977685546875,-29.661651611328125,14.586677551269531,22.291152954101562
1739550773023847200,10.22984716796875,-29.909027099609375,14.727394104003906,22.322500228881836
1739550773033916000,10.239916015625,-29.537261962890625,14.669570922851562,22.202898025512695
1739550773043985000,10.24998486328125,-29.904510498046875,14.639854431152344,22.155561447143555
1739550773054054100,10.26005419921875,-29.951080322265625,14.735794067382812,22.152908325195312
1739550773064123000,10.270122802734376,-29.943511962890625,14.474960327148438,22.03078842163086
1739550773074193000,10.28019287109375,-29.901397705078125,14.430274963378906,22.072978973388672
1739550773084262000,10.290261962890625,-29.537078857421875,14.105964660644531,22.00652313232422
1739550773094331100,10.3003310546875,-29.665557861328125,13.871871948242188,22.075252532958984
1739550773104400000,10.31039990234375,-29.764678955078125,13.914764404296875,22.085153579711914
1739550773114469000,10.32046923828125,-29.501800537109375,13.825912475585938,22.394994735717773
1739550773124539000,10.330538818359376,-29.338165283203125,13.761383056640625,22.612926483154297
1739550773134608100,10.340608154296875,-29.624908447265625,13.722900390625,22.390338897705078
1739550773144676900,10.3506767578125,-29.936370849609375,13.725502014160156,22.4857177734375
1739550773154746000,10.36074609375,-29.627227783203125,13.751174926757812,22.58234405517578
1739550773164814800,10.37081494140625,-29.639007568359375,13.451873779296875,22.446388244628906
1739550773174885000,10.380885009765626,-29.527923583984375,13.661834716796875,22.57695770263672
1739550773184953900,10.390953857421875,-29.339019775390625,13.617164611816406,22.676624298095703
1739550773195023000,10.401023193359375,-29.540985107421875,13.677902221679688,22.629953384399414
1739550773205091800,10.411091796875,-29.535552978515625,13.450767517089844,22.68779945373535
1739550773215161000,10.4211611328125,-29.319549560546875,13.563156127929688,22.685007095336914
1739550773225230000,10.43122998046875,-29.448699951171875,13.599807739257812,22.554834365844727
1739550773235300000,10.441300048828126,-29.405487060546875,13.572563171386719,22.49753761291504
1739550773245368800,10.451368896484375,-29.506439208984375,13.623847961425781,22.422361373901367
1739550773255438000,10.46143798828125,-29.728851318359375,13.516334533691406,22.46172332763672
1739550773265507000,10.471507080078124,-29.776702880859375,13.516265869140625,22.36062240600586
1739550773275575800,10.481575927734376,-29.449066162109375,13.448333740234375,22.24602699279785
1739550773285646000,10.49164599609375,-30.002288818359375,13.872352600097656,22.33612823486328
1739550773295715000,10.501715087890625,-29.808563232421875,13.814216613769531,22.29545783996582
1739550773305784000,10.5117841796875,-29.528533935546875,13.774009704589844,22.42829132080078
1739550773315852800,10.521852783203125,-29.703582763671875,13.878761291503906,22.398853302001953
1739550773325922000,10.531922119140624,-30.093658447265625,13.971588134765625,22.509557723999023
1739550773335992000,10.541991943359376,-29.582489013671875,14.223831176757812,22.621898651123047
1739550773346061000,10.55206103515625,-29.496673583984375,14.04815673828125,22.406187057495117
1739550773356129800,10.5621298828125,-29.338592529296875,13.963363647460938,22.381460189819336
1739550773366199000,10.572198974609375,-29.499603271484375,14.102439880371094,22.128190994262695
1739550773376268000,10.58226806640625,-29.453948974609375,14.25250244140625,22.26889419555664
1739550773386338000,10.592338134765624,-29.604766845703125,14.401420593261719,22.316438674926758
1739550773396406800,10.60240673828125,-29.126800537109375,14.467536926269531,22.08376693725586
1739550773406476000,10.61247607421875,-29.341827392578125,14.348388671875,21.98399543762207
1739550773416545000,10.622544921875,-29.365081787109375,14.529991149902344,21.9365291595459
1739550773426614000,10.632614013671875,-29.416961669921875,14.390716552734375,22.00265121459961
1739550773436683800,10.642683837890624,-29.432830810546875,14.410873413085938,21.84865951538086
1739550773446753000,10.6527529296875,-29.394317626953125,14.411445617675781,21.902563095092773
1739550773456822000,10.662822021484375,-29.385894775390625,14.35992431640625,22.104677200317383
1739550773466891000,10.67289111328125,-29.656158447265625,14.21051025390625,22.044809341430664
1739550773476960000,10.6829599609375,-29.550506591796875,14.097938537597656,21.940847396850586
1739550773487029000,10.693029052734374,-29.606414794921875,14.171730041503906,21.957313537597656
1739550773497099000,10.70309912109375,-29.760711669921875,14.2003173828125,21.958538055419922
1739550773507168000,10.71316796875,-29.242218017578125,14.274070739746094,21.900890350341797
1739550773517237000,10.723237060546875,-29.282928466796875,14.294578552246094,21.812908172607422
1739550773527306000,10.733305908203125,-29.292083740234375,14.4422607421875,22.074018478393555
1739550773537375000,10.743375,-29.542633056640625,14.341217041015625,22.022733688354492
1739550773547445000,10.753445068359374,-29.451690673828125,14.372161865234375,21.797054290771484
1739550773557514000,10.763513916015626,-29.776947021484375,14.644622802734375,21.593460083007812
1739550773567583000,10.7735830078125,-29.487884521484375,14.480735778808594,21.4088134765625
1739550773577652000,10.78365185546875,-29.636566162109375,14.69146728515625,21.173898696899414
1739550773587721200,10.79372119140625,-29.512115478515625,14.511138916015625,21.078832626342773
1739550773597791000,10.803791015625,-29.349639892578125,14.809425354003906,21.212055206298828
1739550773607860000,10.81385986328125,-29.211029052734375,14.962066650390625,21.32494354248047
1739550773617929000,10.823928955078125,-29.184722900390625,14.903923034667969,21.229999542236328
1739550773627998000,10.833998046875,-29.247528076171875,14.808181762695312,21.094024658203125
1739550773638067000,10.84406689453125,-29.675445556640625,14.803764343261719,21.14061164855957
1739550773648136000,10.854135986328124,-29.314117431640625,14.85693359375,21.283214569091797
1739550773658206000,10.8642060546875,-29.528350830078125,14.947669982910156,21.19358253479004
1739550773668275000,10.87427490234375,-29.547760009765625,14.989311218261719,21.02396011352539
1739550773678344000,10.884343994140625,-29.471099853515625,15.095504760742188,20.5560302734375
1739550773688413000,10.894412841796875,-29.463348388671875,14.796989440917969,20.767656326293945
1739550773698482000,10.90448193359375,-29.513397216796875,15.147369384765625,20.84986114501953
1739550773708552000,10.914552001953124,-29.609832763671875,15.596969604492188,20.58875274658203
1739550773718621000,10.924620849609376,-29.167388916015625,15.625038146972656,20.415388107299805
1739550773728690000,10.93468994140625,-29.434112548828125,15.894660949707031,20.302743911743164
1739550773738759200,10.94475927734375,-29.446441650390625,16.124778747558594,20.219728469848633
1739550773748828000,10.954827880859375,-29.073272705078125,16.209266662597656,19.911325454711914
1739550773758898000,10.96489794921875,-29.548614501953125,16.47594451904297,20.11234474182129
1739550773768967000,10.974966796875,-29.567535400390625,16.53154754638672,19.80019187927246
1739550773779036200,10.9850361328125,-29.132049560546875,16.631484985351562,19.79196548461914
1739550773789105000,10.99510498046875,-29.026153564453125,16.47534942626953,19.833528518676758
1739550773799174100,11.005174072265625,-29.098663330078125,16.7052001953125,19.67623519897461
1739550773809243000,11.015242919921874,-29.052398681640625,16.751426696777344,19.657590866088867
1739550773819313200,11.025313232421874,-29.072113037109375,16.455078125,19.76372528076172
1739550773829382000,11.0353818359375,-29.221405029296875,16.379013061523438,19.98282241821289
1739550773839451100,11.045451171875,-28.899139404296875,16.527992248535156,20.27165412902832
1739550773849519900,11.055519775390625,-28.606597900390625,16.534629821777344,20.5635986328125
1739550773859589000,11.065589111328125,-29.027374267578125,16.201416015625,20.508153915405273
1739550773869659000,11.075658935546874,-28.763397216796875,16.281585693359375,20.163299560546875
1739550773879728000,11.08572802734375,-28.865692138671875,16.241729736328125,19.987680435180664
1739550773889796900,11.095796875,-29.034027099609375,15.972709655761719,19.96521759033203
1739550773899866000,11.1058662109375,-29.028106689453125,15.83123779296875,19.702407836914062
1739550773909934800,11.115934814453125,-29.235748291015625,15.86895751953125,19.441753387451172
1739550773920003800,11.12600390625,-29.137908935546875,16.14446258544922,19.354753494262695
1739550773930073900,11.136073974609374,-29.364166259765625,16.216903686523438,19.18154525756836
1739550773940142800,11.146142822265626,-29.065521240234375,16.268348693847656,19.14671516418457
1739550773950211800,11.1562119140625,-29.067474365234375,16.317459106445312,18.84701156616211
1739550773960280800,11.16628076171875,-29.167816162109375,16.46674346923828,19.052865982055664
1739550773970349800,11.176349853515624,-28.911834716796875,16.671470642089844,19.118854522705078
1739550773980419800,11.186419921875,-28.842132568359375,17.02764892578125,19.137351989746094
1739550773990488800,11.19648876953125,-28.413360595703125,16.79729461669922,19.174774169921875
1739550774000557800,11.206557861328125,-28.487274169921875,16.958221435546875,19.360387802124023
1739550774010626800,11.216626708984375,-28.762969970703125,17.08478546142578,19.18561553955078
1739550774020695800,11.22669580078125,-28.631744384765625,17.17755126953125,19.228944778442383
1739550774030765800,11.236765869140624,-28.995391845703125,17.095382690429688,19.263566970825195
1739550774040834800,11.246834716796876,-28.929656982421875,17.186309814453125,19.32337188720703
1739550774050903800,11.25690380859375,-28.536102294921875,17.228759765625,19.328155517578125
1739550774060973000,11.26697314453125,-28.636810302734375,17.531539916992188,19.22662353515625
1739550774071041800,11.277041748046875,-28.555877685546875,17.350502014160156,19.064496994018555
1739550774081110800,11.28711083984375,-28.372161865234375,17.48424530029297,19.01690101623535
1739550774091180800,11.297180908203124,-28.279083251953125,17.35614776611328,18.9631404876709
1739550774101250000,11.30725,-28.414154052734375,17.566673278808594,19.2326602935791
1739550774111318800,11.31731884765625,-28.443450927734375,17.836044311523438,19.133817672729492
1739550774121387800,11.3273876953125,-28.152801513671875,17.79956817626953,19.05594253540039
1739550774131456800,11.337456787109375,-27.678009033203125,17.689842224121094,19.277870178222656
1739550774141527000,11.347527099609374,-27.692291259765625,18.006187438964844,19.22091293334961
1739550774151595800,11.357595703125,-28.067474365234375,17.988548278808594,19.01949119567871
1739550774161664800,11.367664794921875,-27.784698486328125,17.99199676513672,19.243131637573242
1739550774171733800,11.377733642578125,-27.758453369140625,18.079696655273438,19.16038703918457
1739550774181802800,11.387802734375,-27.954437255859375,18.071617126464844,19.21844482421875
1739550774191872000,11.3978720703125,-27.666473388671875,18.133743286132812,19.287508010864258
1739550774201941800,11.407941650390624,-27.712249755859375,18.16742706298828,19.680707931518555
1739550774212010800,11.4180107421875,-27.608184814453125,17.779640197753906,19.401443481445312
1739550774222079700,11.428079833984375,-27.595977783203125,18.006553649902344,19.28942108154297
1739550774232149000,11.43814892578125,-27.253570556640625,17.99279022216797,19.379316329956055
1739550774242217700,11.4482177734375,-27.682159423828125,18.023193359375,19.41058921813965
1739550774252287000,11.458286865234374,-27.623687744140625,18.046669006347656,19.376110076904297
1739550774262356700,11.468356689453126,-27.708770751953125,17.961395263671875,19.70013999938965
1739550774272426000,11.478426025390625,-27.609954833984375,17.856369018554688,19.314504623413086
1739550774282494700,11.48849462890625,-27.819549560546875,17.689613342285156,19.437925338745117
1739550774292564000,11.49856396484375,-27.671722412109375,17.933029174804688,19.434856414794922
1739550774302632700,11.5086328125,-27.608367919921875,17.979209899902344,19.67355728149414
1739550774312703000,11.518702880859376,-27.240936279296875,17.821121215820312,19.676925659179688
1739550774322771700,11.528771728515625,-27.449493408203125,17.753494262695312,19.813241958618164
1739550774332841000,11.538841064453125,-27.468353271484375,17.735206604003906,19.759428024291992
1739550774342909700,11.54890966796875,-27.389739990234375,17.71070098876953,19.95279312133789
1739550774352978700,11.558978759765624,-27.419403076171875,17.614364624023438,19.684003829956055
1739550774363048700,11.569048583984374,-27.559478759765625,17.468795776367188,20.039886474609375
1739550774373118000,11.579117919921876,-27.586273193359375,17.43854522705078,19.723308563232422
1739550774383187000,11.58918701171875,-27.537506103515625,17.41236114501953,19.78603172302246
1739550774393255700,11.599255615234375,-27.440765380859375,17.44147491455078,20.01638412475586
1739550774403325000,11.609324951171875,-27.429351806640625,17.483673095703125,20.038860321044922
1739550774413393700,11.6193935546875,-27.968536376953125,17.34008026123047,19.82642364501953
1739550774423464000,11.6294638671875,-27.833221435546875,17.32244873046875,20.117359161376953
1739550774433532700,11.63953271484375,-27.510467529296875,17.19818878173828,19.950000762939453
1739550774443602000,11.649601806640625,-27.788665771484375,17.126205444335938,20.372150421142578
1739550774453670700,11.659670654296875,-27.803253173828125,17.047256469726562,20.4357967376709
1739550774463740000,11.669739990234374,-27.744293212890625,16.906158447265625,20.410072326660156
1739550774473808600,11.67980859375,-27.409271240234375,16.97315216064453,20.506244659423828
1739550774483879000,11.68987890625,-27.388153076171875,16.656044006347656,20.577880859375
1739550774493947600,11.69994775390625,-27.206817626953125,16.209426879882812,20.70966911315918
1739550774504017000,11.710016845703125,-27.450164794921875,16.357528686523438,20.355215072631836
1739550774514086000,11.7200859375,-27.783111572265625,15.980171203613281,20.57171630859375
1739550774524155000,11.73015478515625,-27.815704345703125,16.004043579101562,20.53755760192871
1739550774534224600,11.740224609375,-28.085601806640625,16.061477661132812,20.71005630493164
1739550774544294000,11.7502939453125,-28.203521728515625,16.251014709472656,20.50944709777832
1739550774554363000,11.76036279296875,-28.368072509765625,16.275054931640625,20.51236915588379
1739550774564432000,11.770431884765625,-27.578643798828125,16.110305786132812,20.239078521728516
1739550774574500900,11.7805009765625,-27.681793212890625,16.088607788085938,20.462249755859375
1739550774584569900,11.79056982421875,-27.203582763671875,16.37884521484375,20.480018615722656
1739550774594640000,11.800639892578126,-28.164337158203125,16.634666442871094,20.406654357910156
1739550774604708900,11.810708984375,-28.076812744140625,16.497940063476562,20.512170791625977
1739550774614777900,11.82077783203125,-27.750396728515625,16.394874572753906,20.2678279876709
1739550774624846800,11.830846923828124,-27.544891357421875,16.48089599609375,20.563796997070312
1739550774634915800,11.840915771484376,-27.830657958984375,16.610488891601562,20.539560317993164
1739550774644984800,11.85098486328125,-27.661773681640625,16.416351318359375,20.612916946411133
1739550774655054800,11.861054931640625,-27.889251708984375,16.423171997070312,20.512561798095703
1739550774665123800,11.871123779296875,-27.727996826171875,16.22534942626953,20.660621643066406
1739550774675192800,11.88119287109375,-28.224029541015625,16.073570251464844,20.825237274169922
1739550774685261800,11.89126171875,-27.717681884765625,15.870552062988281,20.876279830932617
1739550774695330800,11.901330810546876,-27.789703369140625,15.884284973144531,20.86301612854004
1739550774705400800,11.91140087890625,-27.730499267578125,15.571090698242188,20.83184051513672
1739550774715469800,11.9214697265625,-27.691375732421875,15.474601745605469,20.974733352661133
1739550774725538800,11.931538818359375,-27.522918701171875,15.52911376953125,21.25879669189453
1739550774735607800,11.94160791015625,-27.297760009765625,15.5079345703125,21.350318908691406
1739550774745676800,11.9516767578125,-28.061492919921875,15.722396850585938,21.200183868408203
1739550774755745800,11.961745849609375,-28.210235595703125,15.664024353027344,21.120447158813477
1739550774765815800,11.97181591796875,-28.165802001953125,15.688812255859375,21.20049476623535
1739550774775884800,11.981884765625,-27.926177978515625,15.815780639648438,21.219707489013672
1739550774785953800,11.991953857421874,-27.760406494140625,15.761634826660156,21.076587677001953
1739550774796022800,12.002022705078126,-27.869415283203125,16.052947998046875,21.062053680419922
1739550774806091800,12.012091796875,-28.004974365234375,16.187744140625,21.038846969604492
1739550774816161000,12.0221611328125,-27.501373291015625,15.934944152832031,21.067935943603516
1739550774826230800,12.032230712890625,-27.918731689453125,16.11724853515625,20.91652488708496
1739550774836299800,12.0422998046875,-27.040863037109375,15.90960693359375,20.933666229248047
1739550774846368800,12.05236865234375,-27.188079833984375,15.89654541015625,21.101520538330078
1739550774856438000,12.06243798828125,-27.095062255859375,15.49200439453125,21.25371742248535
1739550774866506800,12.0725068359375,-27.061614990234375,15.590850830078125,21.080001831054688
1739550774876577000,12.082576904296875,-26.986541748046875,15.396209716796875,21.2332706451416
1739550774886645800,12.092645751953125,-27.497406005859375,15.45123291015625,21.327924728393555
1739550774896715000,12.102715087890624,-27.509979248046875,15.614990234375,21.45907974243164
1739550774906783700,12.11278369140625,-27.802581787109375,15.290596008300781,21.083629608154297
1739550774916853800,12.122853759765626,-27.309722900390625,15.547798156738281,21.249475479125977
1739550774926922500,12.132922607421875,-27.568328857421875,15.600204467773438,21.160511016845703
1739550774936992800,12.14299267578125,-27.923492431640625,15.659156799316406,20.81553840637207
1739550774947061500,12.1530615234375,-27.924407958984375,15.570915222167969,20.81003189086914
1739550774957130800,12.163130859375,-27.914825439453125,15.43707275390625,20.897048950195312
1739550774967199500,12.173199462890626,-27.772247314453125,15.533126831054688,20.702970504760742
1739550774977268500,12.1832685546875,-27.604888916015625,15.6031494140625,20.70447540283203
1739550774987337500,12.19333740234375,-27.474761962890625,15.442184448242188,20.70092010498047
1739550774997407700,12.20340771484375,-27.676910400390625,15.576469421386719,20.527620315551758
1739550775007476500,12.2134765625,-27.813690185546875,15.538436889648438,20.549034118652344
1739550775017545500,12.22354541015625,-27.572113037109375,15.774635314941406,20.73046112060547
1739550775027614700,12.23361474609375,-27.778106689453125,15.615974426269531,20.91292381286621
1739550775037683500,12.243683349609375,-27.303802490234375,15.754402160644531,20.534744262695312
1739550775047752700,12.253752685546875,-28.307647705078125,15.5615234375,20.650327682495117
1739550775057822500,12.263822509765625,-28.180694580078125,15.790740966796875,20.573848724365234
1739550775067891700,12.2738916015625,-28.044464111328125,15.948516845703125,20.429845809936523
1739550775077960400,12.28396044921875,-27.921783447265625,16.04926300048828,20.411029815673828
1739550775088029700,12.29402978515625,-27.953948974609375,16.100914001464844,20.399497985839844
1739550775098098400,12.304098388671875,-27.625823974609375,16.093536376953125,20.357027053833008
1739550775108167700,12.314167724609375,-27.553192138671875,16.313987731933594,20.54206085205078
1739550775118237400,12.324237548828124,-27.299957275390625,16.13799285888672,20.55351448059082
1739550775128306700,12.334306640625,-27.752471923828125,16.129371643066406,20.617881774902344
1739550775138375400,12.34437548828125,-27.869781494140625,16.35175323486328,20.585464477539062
1739550775148444700,12.354444580078125,-28.263702392578125,16.392799377441406,20.79652214050293
1739550775158513700,12.364513671875,-27.956512451171875,16.598350524902344,20.637954711914062
1739550775168582700,12.374582763671874,-28.079986572265625,16.511817932128906,20.90790367126465
1739550775178652400,12.38465234375,-28.125030517578125,16.395736694335938,20.699663162231445
1739550775188721700,12.3947216796875,-27.871490478515625,16.630783081054688,20.795970916748047
1739550775198790700,12.404790771484375,-27.776275634765625,16.70843505859375,20.677467346191406
1739550775208859600,12.414859619140625,-27.645660400390625,16.81249237060547,20.635629653930664
1739550775218928600,12.4249287109375,-27.427398681640625,16.812965393066406,20.802568435668945
1739550775228997400,12.434997314453126,-27.358612060546875,16.69007110595703,20.83746337890625
1739550775239067600,12.445067626953126,-27.538055419921875,16.679885864257812,20.714874267578125
1739550775249136600,12.45513671875,-27.795745849609375,16.712936401367188,20.691062927246094
1739550775259205600,12.46520556640625,-27.787384033203125,16.77709197998047,20.83048439025879
1739550775269274400,12.4752744140625,-27.533111572265625,16.792922973632812,20.93632698059082
1739550775279343600,12.485343505859374,-27.775726318359375,16.730491638183594,20.966461181640625
1739550775289413600,12.49541357421875,-27.810028076171875,16.835647583007812,20.91929054260254
1739550775299482600,12.505482666015626,-27.582916259765625,16.906639099121094,20.7106876373291
1739550775309551400,12.51555126953125,-27.421722412109375,16.813255310058594,20.883914947509766
1739550775319620600,12.52562060546875,-27.646697998046875,16.897354125976562,20.69008445739746
1739550775329689600,12.535689697265624,-27.479095458984375,16.8524169921875,20.547700881958008
1739550775339758600,12.545758544921876,-27.971649169921875,17.08690643310547,20.40917205810547
1739550775349828600,12.55582861328125,-27.749664306640625,16.796707153320312,20.42521095275879
1739550775359897600,12.565897705078125,-27.815582275390625,17.092971801757812,20.550439834594727
1739550775369966600,12.575966552734375,-27.723785400390625,17.123260498046875,20.56766700744629
1739550775380035600,12.58603564453125,-28.138031005859375,17.173782348632812,20.770126342773438
1739550775390104600,12.5961044921875,-27.580108642578125,17.17577362060547,20.631763458251953
1739550775400173600,12.606173583984376,-28.179046630859375,17.19379425048828,20.517227172851562
1739550775410242600,12.61624267578125,-28.181549072265625,16.921676635742188,20.339141845703125
1739550775420312600,12.6263125,-28.160186767578125,16.991676330566406,20.196260452270508
1739550775430381600,12.636381591796875,-27.986846923828125,17.34412384033203,20.096397399902344
1739550775440450600,12.646450439453124,-28.650604248046875,17.266098022460938,19.614524841308594
1739550775450519600,12.65651953125,-28.661468505859375,17.349319458007812,19.698427200317383
1739550775460588500,12.666588623046875,-28.470123291015625,17.277137756347656,19.50314712524414
1739550775470657500,12.676657470703125,-28.481414794921875,17.43700408935547,19.33129119873047
1739550775480727600,12.6867275390625,-28.448394775390625,17.735260009765625,19.2548828125
1739550775490796500,12.696796630859374,-28.355682373046875,17.657638549804688,19.040348052978516
1739550775500865500,12.706865478515626,-28.562225341796875,17.933319091796875,19.130584716796875
1739550775510934500,12.7169345703125,-28.243255615234375,17.865066528320312,19.07474708557129
1739550775521003500,12.72700341796875,-28.342742919921875,17.892860412597656,19.372230529785156
1739550775531072500,12.737072509765625,-28.165313720703125,17.91009521484375,19.572389602661133
1739550775541142500,12.747142578125,-28.381072998046875,17.61151885986328,19.532716751098633
1739550775551211500,12.75721142578125,-28.377532958984375,17.66008758544922,19.585054397583008
1739550775561280500,12.767280517578126,-28.416595458984375,17.518783569335938,19.572551727294922
1739550775571349500,12.777349609375,-28.322601318359375,17.20073699951172,19.823171615600586
1739550775581418500,12.78741845703125,-28.724456787109375,17.11199951171875,19.651456832885742
1739550775591487700,12.79748779296875,-28.239776611328125,16.94554901123047,19.549270629882812
1739550775601557500,12.8075576171875,-28.453521728515625,16.593887329101562,19.768056869506836
1739550775611626800,12.817626708984376,-28.813507080078125,16.426422119140625,19.50943946838379
1739550775621695500,12.827695556640625,-29.065216064453125,16.252296447753906,19.832063674926758
1739550775631764700,12.8377646484375,-29.089202880859375,16.133346557617188,19.849863052368164
1739550775641833500,12.84783349609375,-29.162628173828125,16.027999877929688,19.985004425048828
1739550775651902700,12.85790283203125,-29.033050537109375,15.691703796386719,19.76355743408203
