time,seconds_elapsed,z,y,x
1738005551841528800,0.02852880859375,0.08610182791650295,0.08367506656046025,0.1279357490341179
1738005551851597800,0.038597900390625,0.07338087803125382,0.09655834000110626,0.033508338380791244
1738005551861666800,0.048666748046875,-0.03630640813410282,0.05224730187996756,-0.04343277114899829
1738005551871734800,0.05873486328125,-0.14554361244440078,-0.010432569520012475,-0.0817982307047583
1738005551881803800,0.0688037109375,-0.17891221356093884,-0.05383677672822959,-0.09073706823540852
1738005551891872800,0.078872802734375,-0.15212474440038204,-0.034339080983353774,-0.07300544601471629
1738005551901940700,0.088940673828125,-0.02747428238093853,0.007921253419364803,-0.03656216842688154
1738005551912010000,0.099010009765625,0.05602583860456943,0.04395961260127369,0.019042451374221125
1738005551922078700,0.10907861328125,0.06829787567853927,0.058135464869416315,0.07564913349049165
1738005551932146700,0.119146728515625,0.04660217669904232,0.04316551221467089,0.10422239008927717
1738005551942216000,0.1292158203125,-0.03929097690284252,0.03623339769681915,0.06893794541405514
1738005551952285000,0.139284912109375,-0.09645429510474204,0.005490847934666089,-0.009338620820443611
1738005551962352600,0.1493525390625,0.06635083326399326,-0.04331620013120118,-0.04484887589146383
1738005551972422000,0.159421875,-0.009216156634688376,-0.12161191630745306,0.00038416787884198127
1738005551982491000,0.169490966796875,0.0017068039178848265,-0.17924354614084587,0.08029618297819979
1738005551992558800,0.179558837890625,0.1167775366872549,-0.16796420989865435,0.11780761038735509
1738005552002627800,0.1896279296875,0.017117723539471625,-0.08952699832590297,0.0717816535405349
1738005552012697000,0.199697021484375,0.03507365146875381,0.010233827510941772,0.0037783038291614502
1738005552022764800,0.209764892578125,0.0225040927529335,0.06369672029232606,-0.03412631273221923
1738005552032833800,0.219833740234375,-0.12114917590022087,0.08833194332243874,-0.05162015099152922
1738005552042903000,0.229903076171875,-0.1039414359897375,0.10070616212924942,-0.047879069333639925
1738005552052971000,0.239970947265625,-0.037352702316641805,0.12161392560144886,-0.04282639362053014
1738005552063039700,0.250039794921875,-0.04423661661148071,0.11126344030774198,-0.022757012634654527
1738005552073109000,0.26010888671875,0.032526889595389366,0.08180875209877267,0.017266589391673914
1738005552083177000,0.270177001953125,0.06769289552271365,0.023048565760022028,0.05412815175708383
1738005552093246000,0.280245849609375,-0.008920973080396652,-0.020796845877054146,0.05828258628910407
1738005552103315000,0.29031494140625,0.0343248789280653,-0.028608693238347766,0.02546792926089838
1738005552113383000,0.3003828125,0.0026028759747743603,-0.008784788613254204,-0.006371644790610298
1738005552123452000,0.310451904296875,-0.05276303741633892,0.003035088813002221,-0.026081200037745292
1738005552133521000,0.32052099609375,-0.04333586837947368,-0.016829604480206033,-0.013710417580325155
1738005552143588900,0.3305888671875,-0.03974456588923931,-0.05233192512323148,0.02011208989972947
1738005552153657900,0.340657958984375,0.009933364993333816,-0.08845911336606369,0.04718205894622952
1738005552163726800,0.350726806640625,0.011280687949061393,-0.10073365292437374,0.04602196565829217
1738005552173795000,0.360795166015625,-0.042289574196934694,-0.1058393968318589,0.014278568290523253
1738005552183863800,0.37086376953125,-0.0823918674826622,-0.07739931075922213,-0.024335080172913148
1738005552193932800,0.380932861328125,-0.08688041107356548,-0.03874813416383695,-0.0541255762075074
1738005552204001000,0.3910009765625,0.010087094250321388,0.003201577086863108,-0.03443727381095523
1738005552214069800,0.40106982421875,0.04809563012719154,0.0374528062568279,0.02260778830613708
1738005552224139000,0.411138916015625,0.12889935163557528,0.054329907707148226,0.09248480695188045
1738005552234207000,0.42120703125,0.09852174902856349,0.0803760706808418,0.11920698319072834
1738005552244275700,0.431275634765625,0.07113514493107795,0.09330028805322944,0.07415082122413441
1738005552254345000,0.441344970703125,0.016963994282484053,0.07448382973789702,0.022762417178845498
1738005552264413000,0.451412841796875,-0.03511164539158344,0.022817629381245933,-0.02314068960644072
1738005552274481700,0.461481689453125,-0.11965806055963038,0.0019889818601310253,-0.05957220140795689
1738005552284551000,0.471551025390625,-0.09900631767511367,0.008239347491785884,-0.07659742892496288
1738005552294619000,0.481618896484375,-0.03840133458673954,0.03443449048211332,-0.057844633263256395
1738005552304687900,0.49168798828125,-0.010566402199864386,0.044497354473476296,-0.013563937764742877
1738005552314756900,0.5017568359375,0.04824292964339256,0.02552876976977568,0.04469652117423247
1738005552324824800,0.511824951171875,0.06515197886824607,0.012767127114534378,0.07739564836425707
1738005552334893800,0.521893798828125,-0.009366963282227516,0.0016449907280504702,0.06694196755755692
1738005552344962800,0.531962890625,-0.050666941919922825,-0.009884667013399302,0.012746504451613872
1738005552355030800,0.54203076171875,0.016069091269373892,-0.05792406887474935,-0.01189551821204368
1738005552365100300,0.552100341796875,0.04419920721054077,-0.11338986701034008,-0.00376690336902393
1738005552375169300,0.562169189453125,-0.011765841117501258,-0.14995529140681027,0.04183737801660318
1738005552385237500,0.572237548828125,0.02265022322535515,-0.1330009874012787,0.06664905815874227
1738005552395306200,0.58230615234375,0.008285013264417648,-0.0871634657986462,0.06286762165757827
1738005552405375500,0.59237548828125,0.0012526304095983505,-0.02172723119549919,0.017654111421515697
1738005552415443500,0.602443359375,0.05257774397730827,0.05071689114202745,-0.016547723365481944
1738005552425512200,0.61251220703125,0.007087912434339523,0.08865541225629858,-0.016496778629533946
1738005552435581400,0.62258154296875,-0.04004910179376602,0.11186380822053178,-0.02454266307556536
1738005552445649400,0.6326494140625,-0.019698387682437896,0.1256928472118452,-0.014377484920620917
1738005552455718400,0.642718505859375,-0.028527590826153755,0.1186137391384691,0.003857301049237139
1738005552465787400,0.652787353515625,-0.0015957447588443754,0.09097743459623306,0.015991016497905367
1738005552475855400,0.66285546875,0.029977205112576483,0.04372316436374094,0.013860454759595449
1738005552485924600,0.672924560546875,-0.025239070674777028,0.00515475698125083,0.005919581041019409
1738005552495993300,0.682993408203125,-0.00518704724907875,-0.02722695198978763,-0.011728386050788684
1738005552506061300,0.693061279296875,0.00723228934109211,-0.05283509800555184,0.00034957833936205134
1738005552516130600,0.703130615234375,-0.014762684845924377,-0.04840850916837808,0.014285922763205599
1738005552526199300,0.71319921875,-0.01625789183974266,-0.035868898066249676,0.02197534018807346
1738005552536267300,0.723267333984375,0.022049919244647026,-0.02828341593989171,0.03928329591988586
1738005552546336500,0.73333642578125,0.02115209362208843,-0.03109676089414861,0.03300008974784287
1738005552556405200,0.7434052734375,-0.04349135120213032,-0.04928848860699218,0.020307605621963737
1738005552566473500,0.753473388671875,0.009480360528826713,-0.05536003620617557,-0.0023126882560085505
1738005552576542500,0.76354248046875,-0.07132394550144672,-0.04657356252591125,-0.01273226814699592
1738005552586611200,0.773611083984375,0.0009504325926303862,-0.03357871390299406,0.013220081346691585
1738005552596679400,0.783679443359375,0.16914193017482756,-0.02763791654400993,0.058424095385335384
1738005552606748400,0.79374853515625,0.08339899869859219,-0.021509944316162728,0.0947327594086062
1738005552616817400,0.8038173828125,0.03596212474107742,0.006538329427293502,0.08349493335373699
1738005552626885400,0.813885498046875,0.06244681156277656,0.05366175352146383,0.027298626703221814
1738005552636954400,0.823954345703125,-0.02030512140393257,0.0717715705379378,-0.039041427155141716
1738005552647023400,0.8340234375,-0.07417641232311725,0.08396339111570268,-0.081268215481285
1738005552657091300,0.84409130859375,-0.09737024090588092,0.06799067289289086,-0.08956131158745848
1738005552667160300,0.854160400390625,-0.11966507482230662,0.06589244480489287,-0.062068114443495866
1738005552677229300,0.864229248046875,-0.032574235868453975,0.05494513982892967,-0.03386605207754764
1738005552687297300,0.87429736328125,0.07381926944851874,0.044760873381025156,0.015070152493054047
1738005552697366500,0.884366455078125,0.07247428458034992,0.02869494218311738,0.06386176552777179
1738005552707435300,0.894435302734375,0.07711421934068202,0.002217799347057007,0.08821332191145047
1738005552717503200,0.904503173828125,0.039404958671331404,-0.021045897867833264,0.07311364192981272
1738005552727572500,0.914572509765625,-0.020151976668834684,-0.03865865664894227,0.03271883425420383
1738005552737641200,0.92464111328125,-0.07312193483412266,-0.03849989959038794,-0.022139385343098547
1738005552747709200,0.934709228515625,-0.043943186622858045,-0.04527231176819187,-0.047404802885395475
1738005552757778400,0.9447783203125,-0.00818038384616375,-0.06436643624743446,-0.028223771874257363
1738005552767847400,0.954847412109375,0.006484685844182968,-0.09947751538343727,0.0394547252303455
1738005552777915400,0.964915283203125,0.05272153636217117,-0.12488565901480614,0.11205920292846858
1738005552787984400,0.974984375,0.10359656807482243,-0.09216920166406779,0.12478132185749709
1738005552798053400,0.985053466796875,0.06783259625434875,-0.03727036236200947,0.06453402963299304
1738005552808121300,0.995121337890625,0.04209375936388969,-0.049078576749935744,-0.00818061674160417
1738005552818190300,1.0051904296875,-0.055769818016886706,0.01891053894010838,-0.05835220832605846
1738005552828259600,1.015259521484375,-0.10979074653983116,0.1221985022900626,-0.08267311384314671
1738005552838327300,1.025327392578125,-0.10664835686087608,0.1505222228408791,-0.06070113693922758
1738005552848396300,1.035396240234375,-0.0007031798332929611,0.13938317185221238,-0.02368098647862207
1738005552858465500,1.045465576171875,0.0786053346812725,0.11711573739936575,0.028665120150300205
1738005552868533200,1.055533203125,0.09775836344063281,0.08730994333093986,0.06609233759143389
1738005552878602200,1.065602294921875,0.05376373889148235,0.06237966461069881,0.07268002715236507
1738005552888671500,1.07567138671875,-0.006990297278761863,0.0021195448706625027,0.023739963823975994
1738005552898739500,1.085739501953125,-0.017315291938185692,-0.057679400798142884,-0.03802582722167717
1738005552908808400,1.095808349609375,-0.04260346245169639,-0.048642473187879655,-0.06779774413667619
1738005552918877400,1.10587744140625,-0.07432488088309765,-0.03946971273692325,-0.045603320121113206
1738005552928945400,1.1159453125,-0.04379647162854671,-0.03682657781699672,-0.0006207005980540998
1738005552939014400,1.126014404296875,0.028031331741809842,-0.05543715199641883,0.059290694752568374
1738005552949083400,1.13608349609375,0.09806114577949046,-0.07183993676614482,0.08265409861542285
1738005552959151400,1.1461513671875,0.09506780918240547,-0.07213232100857421,0.08213035786910913
1738005552969220400,1.156220458984375,0.0016927753925323485,-0.04806475093173794,0.04385850858066696
1738005552979289300,1.166289306640625,-0.06055705229341984,-0.02016632942117285,-0.013096331669436767
1738005552989358300,1.1763583984375,-0.1163724630177021,0.010239992390247062,-0.06753542623894754
1738005552999426300,1.18642626953125,-0.0584627103626728,0.040740317194629456,-0.06383013741364703
1738005553009495300,1.196495361328125,0.05840484269559383,0.025709665594901888,-0.010055746980698313
1738005553019564300,1.206564208984375,0.0772591807693243,-0.0006684647129382938,0.0665306468103081
1738005553029632300,1.21663232421875,0.07980243551135063,0.0005080910860328004,0.10747909946343862
1738005553039701500,1.226701416015625,0.10748188507556915,0.01698638877738267,0.09768475021515041
1738005553049770200,1.236770263671875,0.04852291562855243,0.04712849756150972,0.02915031670122407
1738005553059838200,1.246838134765625,-0.015673369950056075,0.05593955312718171,-0.027663439144333824
1738005553069907500,1.256907470703125,-0.07822247284352779,0.05618963716442231,-0.06573194331382401
1738005553079976400,1.2669765625,-0.11518354549407958,0.047884909985959526,-0.06484103148924186
1738005553090044200,1.277044189453125,-0.06295885273814202,0.020418660214426926,-0.03704406334244413
1738005553100113400,1.287113525390625,0.04029226289987564,0.015013924227212554,-0.005526503769936971
1738005553110182400,1.297182373046875,0.09042144468128681,-0.021134156106598675,0.0445188082534587
1738005553120250400,1.30725048828125,0.044182840597629544,-0.0393643572328845,0.08954739265996031
1738005553130319400,1.3173193359375,-0.0062432783037424085,-0.02252227686359547,0.07216403588766697
1738005553140388400,1.327388427734375,-0.06430208404064178,-0.0007166055704466998,0.01087687922141049
1738005553150456300,1.337456298828125,0.031015315988659857,0.04038937573195435,-0.04050973700887989
1738005553160525300,1.347525390625,0.06183890879750251,0.03245670130285434,-0.0424379422922153
1738005553170594600,1.357594482421875,0.011261398726701736,-0.027008112474181688,0.01919333793686237
1738005553180662300,1.367662353515625,-0.045748774740099904,-0.08791733463956043,0.06895974625390953
1738005553190731300,1.377731201171875,0.01844458822906017,-0.10657746531544253,0.06449312680044676
1738005553200800500,1.387800537109375,0.05630056389272212,-0.09474953701347112,0.016312661084148566
1738005553210868500,1.397868408203125,0.07111468666493892,-0.04959021149992477,-0.02090205981719773
1738005553220937200,1.407937255859375,0.03295768222808838,0.03871711340448819,-0.029001957739097996
1738005553231006500,1.41800634765625,-0.054580900493264195,0.09514385182699188,-0.00996406609227415
1738005553241075200,1.4280751953125,-0.08405950843393802,0.10312593662207946,-0.0041905241921311245
1738005553251143400,1.438143310546875,0.019039046990871427,0.08955929316030815,0.0009907646030187607
1738005553261212400,1.44821240234375,0.07530044791698455,0.08936473870258778,-0.0007864353866665623
1738005553271281400,1.458281494140625,0.04327566262483597,0.048909873686102216,0.02380190487797372
1738005553281349400,1.468349365234375,-0.006405190867185592,-0.01354007968183141,0.04079025728357956
1738005553291418400,1.47841845703125,-0.015981997507810593,-0.06404733296143822,0.03705129451754037
1738005553301487400,1.4884873046875,-0.010595628294348717,-0.0615771571553545,0.003898612590448465
1738005553311555300,1.498555419921875,-0.008500701841711998,-0.0384303460520925,-0.04147256329220254
1738005553321624300,1.508624267578125,-0.016729601004719732,-0.0025437113997526465,-0.048931555794947776
1738005553331693300,1.518693359375,-0.0637134704977274,0.009944361311383544,-0.004984620012156665
1738005553341761300,1.52876123046875,-0.015678046125173567,0.0021762160944985226,0.039046021131868475
1738005553351830500,1.53883056640625,0.03325345030426979,-0.015372925698757171,0.05266670090239495
1738005553361899300,1.548899169921875,0.1023860232412815,-0.012514038269454613,0.04470422499007545
1738005553371967200,1.55896728515625,0.0920598595380783,-0.004414656370785087,0.043702254006452855
1738005553382036500,1.569036376953125,-0.009843348622322083,0.003356452554743737,0.03640506675258511
1738005553392105200,1.579105224609375,-0.06341419529020786,0.008124420441803521,-0.001159771344240289
1738005553402174500,1.589174560546875,-0.06895078662931918,0.024587671261071226,-0.04160095717853401
1738005553412242400,1.599242431640625,-0.054285132417082785,0.04860562090936582,-0.06127319663956295
1738005553422311400,1.6093115234375,-0.0010135609567165373,0.060933639654004945,-0.019890583503001835
1738005553432380400,1.61938037109375,0.0763484956651926,0.027581364051182753,0.05288886945282575
1738005553442448400,1.629448486328125,0.08248305289745331,-0.025800709445797838,0.10039780856613069
1738005553452517400,1.639517333984375,0.08981354191601276,-0.06930761441008654,0.10478532120166346
1738005553462586400,1.64958642578125,0.07514730318188667,-0.08147626874139532,0.06089953188842628
1738005553472654300,1.659654296875,0.004966682496666908,-0.05564860735659022,-0.002718458328593988
1738005553482723600,1.6697236328125,-0.05907879643440246,-0.015089820741326547,-0.04397338083172217
1738005553492792300,1.679792236328125,-0.10052782815396785,0.015490610961406491,-0.07147084772542585
1738005553502860300,1.6898603515625,-0.09499006777107714,0.03795089197207708,-0.054940956844156605
1738005553512929500,1.699929443359375,-0.021218729117512703,0.06377468546594027,-0.022476798320631496
1738005553522998300,1.709998291015625,0.04866203183829784,0.06839006117375102,0.022332992236036808
1738005553533066200,1.720066162109375,0.0829278740555048,0.0707870849786559,0.05616729290187358
1738005553543135500,1.730135498046875,0.060630702051520345,0.04958763138377107,0.06533854181575588
1738005553553204200,1.740204345703125,-0.005958616143465042,0.019989607447665182,0.04175310183321126
1738005553563273500,1.7502734375,-0.05848199958503246,0.02088200340985786,-0.015558949790149925
1738005553573341400,1.760341552734375,-0.060578095081448555,0.05070693143701646,-0.06797956241040956
1738005553583410200,1.77041015625,0.013042436924576758,0.050852349523385056,-0.058726343434653244
1738005553593479400,1.7804794921875,-0.0029687866777181626,0.003328272206452675,0.004644695417128968
1738005553603547400,1.79054736328125,0.0015203414350748062,-0.07873975644959136,0.08509750971216708
1738005553613616400,1.800616455078125,0.07005377943515777,-0.12322453000270761,0.10866724980208091
1738005553623685400,1.810685302734375,0.10940788470208644,-0.12667140078726224,0.083714138195524
1738005553633753300,1.82075341796875,0.06661094550490379,-0.13417626912519334,0.034266502087621484
1738005553643822300,1.830822265625,-0.036788638693094254,-0.057835317445639516,-0.028171986888092942
1738005553653891300,1.840891357421875,-0.11070844590663909,0.06924981980824377,-0.0518324877011124
1738005553663959300,1.850959228515625,-0.10247896222174167,0.11635700058708898,-0.043850704300124194
1738005553674028300,1.8610283203125,-0.02930675850510597,0.1015836756161414,-0.0331405667976127
1738005553684097300,1.87109716796875,0.06137421389520168,0.05556448643682524,0.01076242937875213
1738005553694166500,1.88116650390625,0.07454115398228169,0.007883912517083808,0.06534296226254664
1738005553704234200,1.891234130859375,0.05987666881382465,-0.026333711210801265,0.0867978656229563
1738005553714303200,1.90130322265625,0.023364508974552153,-0.023905867575947193,0.05491020551286638
1738005553724372500,1.91137255859375,-0.013446341550350188,-0.0050798148817848415,-0.006933943432045634
1738005553734440400,1.9214404296875,-0.036191841843724246,0.05398794413537252,-0.06257626032845583
1738005553744509400,1.931509521484375,-0.059982467275857924,0.06442585655078291,-0.06832869550848845
1738005553754578400,1.941578369140625,-0.06910977658331394,0.056893090992351056,-0.0340525602261303
1738005553764646400,1.951646484375,-0.02451835518479347,0.015300075091677717,0.01516679496767465
1738005553774715400,1.96171533203125,0.059876084291934965,-0.031037422789190895,0.054406699270405805
1738005553784784400,1.971784423828125,0.07798164982497692,-0.05452431603439618,0.06723652092418633
1738005553794852400,1.981852294921875,0.03757891228795052,-0.05856109270323068,0.05993249522086698
1738005553804921300,1.99192138671875,-0.024521277794241902,-0.039556464005191805,0.012895521000865846
1738005553814990300,2.001990234375,-0.08692015856206417,0.01284217424527742,-0.05286031921177636
1738005553825059300,2.012059326171875,-0.10891454822719096,0.05892283868771046,-0.08367636346840299
1738005553835127300,2.022127197265625,-0.04217500790655613,0.08921662633563392,-0.044822056383197195
1738005553845196500,2.032196533203125,0.021268998000025748,0.05937155513616744,0.0198576128151617
1738005553855265300,2.042265380859375,0.10835808338820933,-0.01684619942198042,0.0938306686028838
1738005553865333200,2.052333251953125,0.11464110918045044,-0.060235131429252214,0.12463474386050365
1738005553875402500,2.062402587890625,0.07483575301468372,-0.07393577653423417,0.09329426017124205
1738005553885471200,2.07247119140625,0.013631634989380836,-0.04266029807231389,0.0066404723442276
1738005553895539200,2.082539306640625,-0.05984042845666408,0.02493553028409369,-0.06386765184586402
1738005553905608400,2.0926083984375,-0.11056582256555557,0.0535793633344816,-0.08743658365160226
1738005553915677200,2.10267724609375,-0.12477964135706424,0.07067338633795735,-0.06067866937909275
1738005553925746400,2.112746337890625,-0.02572013218998909,0.048106494014500636,0.0010357271227519958
1738005553935814400,2.122814453125,0.05643091227412223,-0.0007762222366174683,0.054041546619287686
1738005553945883400,2.13288330078125,0.11014964298009872,-0.03831252379212528,0.08597327876654454
1738005553955952400,2.142952392578125,0.10640694932043551,-0.05082695478722453,0.08238331885002553
1738005553966020400,2.153020263671875,0.011087211203575134,-0.05178844762998633,0.0552486071543768
1738005553976089600,2.163089599609375,-0.06477905390262603,-0.031091481930832377,-0.010695876081718597
1738005553986158300,2.173158447265625,-0.07510346404016018,0.008214509878051467,-0.07071670032329858
1738005553996226300,2.183226318359375,-0.095602062189579,0.04903183326506987,-0.08735247643156908
1738005554006295600,2.193295654296875,-0.05205518140792846,0.057817640225053764,-0.05734384870084468
1738005554016364300,2.2033642578125,0.003312485548853874,0.04916673909057863,0.020021778984484262
1738005554026433500,2.21343359375,0.03593289864659309,0.027912034477386622,0.08166232936540618
1738005554036501500,2.22350146484375,0.09713467858433723,-0.008664153341692871,0.0916814729460515
1738005554046570200,2.2335703125,0.10012684613764286,-0.03431574577353894,0.06679788291174918
1738005554056639500,2.243639404296875,0.012436872246861456,-0.02517614780666772,0.02091829171607969
1738005554066707500,2.25370751953125,-0.06283142696619033,-0.000649033926683478,-0.029996476068627088
1738005554076776200,2.263776123046875,-0.08811901295781135,0.0242236237216508,-0.0549628581487108
1738005554086845400,2.273845458984375,-0.09290683175623417,0.014014588158670812,-0.06355574091905727
1738005554096913400,2.283913330078125,-0.024223756152391432,0.0007394978222670033,-0.0352430166862905
1738005554106982400,2.293982421875,0.04864975687861442,-0.01522783640595153,0.02331192712065531
1738005554117051400,2.304051513671875,0.06451192739903927,-0.025277064597606657,0.0763793383280281
1738005554127119400,2.314119384765625,0.06286591375768184,-0.018583416744438,0.08638806097935885
1738005554137188400,2.324188232421875,0.056280690148472784,-0.021095874489401464,0.0569017172568012
1738005554147257300,2.33425732421875,0.01288461601436138,-0.007488428659783676,0.008595298489718697
1738005554157326300,2.344326416015625,-0.025424364113807676,0.008389199724677018,-0.040963869417971
1738005554167394300,2.354394287109375,-0.06193652395308017,0.016823973890440536,-0.039289606929663566
1738005554177463300,2.36446337890625,-0.07734802809655666,0.02825647770061623,-0.035621805137116457
1738005554187532500,2.374532470703125,-0.0372439812451601,0.021474804504122584,-0.0014777969180024227
1738005554197600300,2.384600341796875,0.03308510800004005,0.005756312204129062,0.025266506670974194
1738005554207669200,2.394669189453125,0.07782675152420997,0.008075448467233218,0.04588708723224699
1738005554217738500,2.404738525390625,0.05747545289099216,-0.005058630529860966,0.05674528458607383
1738005554227806200,2.41480615234375,0.021560674422979355,-0.007925925027905031,0.04109599876450375
1738005554237875500,2.42487548828125,-0.011212298887968063,-0.001920885059982538,0.009647102247725706
1738005554247944400,2.4349443359375,-0.038297874212265014,0.014648351450986228,-0.01806500519379042
1738005554258013200,2.44501318359375,-0.04832359366416931,0.019296168123674576,-0.03741316608289489
1738005554268081400,2.455081298828125,-0.023632220000028608,0.019059459591237827,-0.021381564129563047
1738005554278150400,2.465150390625,-0.0064233110457658765,-0.0015813326410017907,0.014794048098567873
1738005554288219400,2.475219482421875,0.027995091384649274,-0.01882292915531434,0.034008376307820436
1738005554298287400,2.485287353515625,0.046101825961470604,-0.01529113829997368,0.039903893769951536
1738005554308356400,2.4953564453125,0.04370762430131435,0.003158491430385038,0.03634301153415581
1738005554318425300,2.50542529296875,0.022010171756148337,0.01262813876895234,0.019045606879109982
1738005554328493300,2.515493408203125,-0.0248263982206583,0.02173619082008954,-0.0012429789485526271
1738005554338562300,2.525562255859375,-0.050114568734169,0.024966742839687504,-0.028231811333529182
1738005554348631300,2.53563134765625,-0.029165888729691503,0.022192670449893922,-0.02390420990840066
1738005554358700300,2.5457001953125,-0.010909516549110413,0.02165470481540542,-0.017191030804277398
1738005554368768000,2.55576806640625,0.010640051957964896,0.005975179119198583,0.01143357695583254
1738005554378837000,2.5658369140625,0.030244916138052937,-0.00661948207183741,0.034220987012039406
1738005554388906000,2.575906005859375,0.0297977568924427,-0.013459621157031506,0.044389962275978176
1738005554398974000,2.585973876953125,0.026958149552345274,-0.006589566424186341,0.039317663980368525
1738005554409043000,2.59604296875,0.013793547552824019,0.0010363938430324195,0.015929267240152693
1738005554419112000,2.60611181640625,-0.00715162532031536,0.0030656620477791875,-0.0037551604155916718
1738005554429180000,2.616179931640625,-0.031986206847429276,0.0029483192784246054,-0.019616177875257563
1738005554439249000,2.626248779296875,-0.034227848294377326,0.0025061010694131256,-0.008442407199658919
1738005554449318000,2.63631787109375,-0.02360065581798553,-0.0019435078837443142,-0.003238497864035889
1738005554459387000,2.646386962890625,-0.021803251007199285,-0.009088118941383436,0.005281210072245449
1738005554469455000,2.656455078125,-0.01821545564830303,0.003346442617382854,0.020958345165255014
1738005554479523800,2.66652392578125,0.0476268435716629,-0.013167232348024844,0.02942249155597528
1738005554489592800,2.6765927734375,0.012010755789279936,-0.005984115910902619,0.03182981984247453
1738005554499661000,2.6866611328125,0.03864508021473884,-0.022746372509631328,0.01202158542725956
1738005554509729800,2.696729736328125,0.006622633010149002,-0.03831035923450254,0.01626055187099846
1738005554519799000,2.706799072265625,-0.009985971963405608,-0.0292685590862995,0.009674460612109395
1738005554529867000,2.716866943359375,-0.011032266145944594,-0.007015929476940072,-0.006577930785319768
1738005554539935700,2.726935791015625,-0.040210429835319514,0.03405726836728863,-0.015617335763748269
1738005554550005000,2.7370048828125,0.010368249279260635,0.07552103643168229,-0.011280334039323497
1738005554560073000,2.747072998046875,0.0066284782290458675,0.09160943975630216,-0.00417813963459339
1738005554570141700,2.7571416015625,0.0030389293044805524,0.06388735662675463,0.021799421932164113
1738005554580211000,2.7672109375,0.007528641939163207,0.018557492285314947,0.023274312223738523
1738005554590280000,2.777280029296875,0.04897708913683891,-0.009339248724817298,0.014190670811361633
1738005554600348000,2.787347900390625,-0.011630816560983658,-0.02446289410393219,0.01787454695587512
1738005554610417000,2.7974169921875,-0.01777414162158966,-0.05260845420940313,0.018477613715827464
1738005554620486100,2.807486083984375,-0.032901568126678465,-0.10583075686767697,0.037137002322904296
1738005554630553900,2.817553955078125,-0.03156009038984775,-0.22273776515349744,0.0447050378408283
1738005554640622800,2.827622802734375,0.04939268420040607,-0.5517228320863098,0.07745376262650824
1738005554650692000,2.837692138671875,0.03038870852291584,-0.439603606066294,0.09710800977312029
1738005554660760800,2.8477607421875,-0.011509236007928848,-0.2853362784129567,0.043507425554096694
1738005554670828800,2.857828857421875,-0.0023848493099212645,-0.23228538223225623,0.034924386041041
1738005554680898000,2.86789794921875,-0.05132452904582023,-0.8387776596538722,0.07505188911654986
1738005554690966800,2.877966796875,0.09771277073323727,-0.9112229373354465,0.11213359247208572
1738005554701035000,2.888034912109375,-0.018712883776426315,-0.31154775605015456,0.01878603806089377
1738005554711104000,2.89810400390625,0.023335867401957512,0.050363556792866436,-0.11412594446623697
1738005554721172700,2.9081728515625,0.08335106790363789,0.10544723744280636,-0.04831818683668971
1738005554731241000,2.918240966796875,-0.1566705711364746,0.2117385792932473,-0.047868269378412515
1738005554741310000,2.92831005859375,-0.03472060024738312,-0.045880963452137075,-0.059507132248533885
1738005554751379000,2.93837890625,0.07361994748413563,-0.39207989407554267,-0.03227234172887401
1738005554761448000,2.948447998046875,0.06359715064167976,-0.3592116071639582,0.0037771918675978664
1738005554771516000,2.958515869140625,-0.06614098990559578,-0.08729472749549895,-0.00509406031955732
1738005554781585000,2.9685849609375,0.1471031168460846,-0.5278955644382164,0.1252055294857826
1738005554791654000,2.97865380859375,0.019310265147686002,-0.4194035159394145,-0.02376454570938367
1738005554801721900,2.988721923828125,-0.07915303169190883,-0.23561085512684657,-0.04338291782501619
1738005554811790800,2.998790771484375,0.06554886923134326,-0.282340621994622,-0.119703498003399
1738005554821859800,3.00885986328125,-0.09546353050172328,-0.20945998510308564,0.07598483628483954
1738005554831929000,3.01892919921875,-0.042943654191493985,-0.09650944109177216,0.13787275815610772
1738005554841996800,3.028996826171875,-0.070784431797266,0.017788791201449928,0.04923341111862101
1738005554852065800,3.039065673828125,0.00656125821173191,-0.45533433222677555,0.15975739470329134
1738005554862135000,3.049135009765625,0.09738017777800559,-0.776930859810859,0.09578201273321174
1738005554872202800,3.05920263671875,0.08436229077279567,-0.36224074572678655,0.09488660739660262
1738005554882272000,3.06927197265625,0.0815203453451395,-0.09148136553037911,0.019471766719175502
1738005554892341000,3.079341064453125,-0.022027707412838934,-0.11572461183452978,0.02476005041960161
1738005554902409000,3.089408935546875,0.0905091229647398,-0.1929458900125697,-0.01717929013413377
1738005554912478000,3.09947802734375,-0.17704525064527987,-0.08564032961828634,-0.030115885214193255
1738005554922547000,3.109546875,-0.13306114749014378,-0.1630468281701207,-0.07598573590056039
1738005554932616000,3.119615966796875,0.14510872815847395,-0.39360812655612826,-0.07714147267378867
1738005554942684000,3.129683837890625,-0.024303835651278496,-0.35111334864329546,0.1490099185817875
1738005554952753000,3.1397529296875,0.1673807657212019,-0.24708706564800811,0.09912600766518152
1738005554962822000,3.14982177734375,-0.03359364204406738,0.020456667836988345,-0.004311938065115828
1738005554972889900,3.159889892578125,0.06742459997534751,0.14031980424835347,0.07518812838261947
1738005554982958800,3.169958740234375,-0.01606324605047703,0.0054594892485998565,-0.02299321884359233
1738005554993027800,3.18002783203125,0.025845804396271703,-0.42527525751702483,-0.03997090372471138
1738005555003096800,3.190096923828125,-0.004072364005446433,-0.18441305773323402,0.020711603862571062
1738005555013165000,3.2001650390625,-0.1718237166047096,-0.11430979486685246,0.03815732866383623
1738005555023233800,3.21023388671875,0.13359189336597918,-0.16485044352598488,-0.01915898129282286
1738005555033303000,3.220302978515625,-0.04326631027460098,0.15642843294367192,-0.09885752945472485
1738005555043371000,3.23037109375,0.06791442931890487,-0.24837661226820199,0.1395284255417995
1738005555053439700,3.240439697265625,0.07435235341191292,-0.411377445872128,0.1526358174613677
1738005555063509000,3.250509033203125,-0.12705343150794504,-0.16839074648134408,0.06320395920616574
1738005555073578000,3.260577880859375,-0.018110241708159447,-0.3286222615024075,0.08546258929804898
1738005555083645700,3.270645751953125,0.020501520758867263,-0.13452910115085542,-0.23967328226016832
1738005555093715000,3.28071484375,-0.16984803261756895,-0.18020119392555206,-0.058539428860694166
1738005555103784000,3.290783935546875,-0.005698503902554512,-0.08428509735073894,0.0494738094454864
1738005555113852000,3.300851806640625,-0.02455810267329216,-0.0697961514122784,-0.11024004294360056
1738005555123921000,3.3109208984375,0.10905892513394355,-0.1301919213299174,0.022671843685407655
1738005555133990000,3.320989990234375,0.060875616723299025,-0.11322326000547035,0.017317627742455807
1738005555144059000,3.331058837890625,0.06176058286428451,-0.26776313925618306,-0.03123980892691761
1738005555154126800,3.341126953125,-0.02353402032256126,-0.1634417823044583,0.016881905489601196
1738005555164196000,3.351196044921875,-0.0189051914781332,-0.0013741744300350546,-0.0304508185402723
1738005555174264800,3.361264892578125,-0.08206161261498927,-0.1995522294750437,-0.010326147720182779
1738005555184332800,3.371332763671875,0.1867027213066816,-0.15292122854031623,-0.12331864716010167
1738005555194402000,3.381402099609375,-0.2159650561481714,-0.12114560483680106,-0.10309524922287092
1738005555204470800,3.391470703125,0.22159283290207385,-0.5623067334102466,0.05561568690109998
1738005555214540000,3.4015400390625,-0.07183949380815029,-0.2285992775980383,-0.0014879666855675167
1738005555224608000,3.41160791015625,-0.08696049057245255,0.011109190139942802,-0.104970925167948
1738005555234676700,3.4216767578125,0.21188450883626936,-0.08564966370221228,0.12059082963140681
1738005555244746000,3.43174609375,-0.06929156289100646,-0.003123575380630791,0.0036519945853506213
1738005555254814000,3.44181396484375,-0.1360533150434494,-0.16891228613741696,0.1378839462704025
1738005555264882700,3.451882568359375,0.2281792255550623,-0.3340705169709399,0.05929891459164209
1738005555274952000,3.461951904296875,-0.052689972180128095,-0.2830837319795042,0.08421053427718579
1738005555285021000,3.47202099609375,-0.011550737062096595,-0.14425521660167723,0.08137043374674394
1738005555295089000,3.4820888671875,-0.3090367230772972,0.09853309240648522,-0.012207034129917155
1738005555305158000,3.492157958984375,0.21799802328050136,-0.14814787665866314,0.028337274152133614
1738005555315227000,3.502226806640625,0.09798515793383121,0.03385410134484991,-0.010401852438051718
1738005555325294800,3.512294921875,-0.0676566551655531,0.04017379218593705,-0.014775496378436219
1738005555335363800,3.52236376953125,0.057420507833361625,-0.03818752743927762,0.06962356219119392
1738005555345433000,3.53243310546875,0.10067629671394825,0.23557145469821988,0.01419470766566228
1738005555355501800,3.542501708984375,-0.23302841915190217,0.14929961311020887,0.05823332205358892
1738005555365569800,3.55256982421875,-0.12260814253687857,-0.4853546092960983,0.22871521386159582
1738005555375639000,3.56263916015625,0.1142594163864851,-0.8273570517774671,0.09817992245410569
1738005555385708000,3.5727080078125,0.13702186781466005,-0.19478481414383275,-0.10785227102423087
1738005555395777000,3.582777099609375,-0.1722942567259073,0.2432878377618268,-0.24930017512021585
1738005555405845000,3.592844970703125,0.13432079216241835,0.29650895767658947,0.013938938239729031
1738005555415914000,3.6029140625,-0.3536614622235298,0.5690397679923102,0.09030959093780257
1738005555425983000,3.61298291015625,0.38556291339695453,0.07731975185014307,0.22678630989193915
1738005555436051000,3.623051025390625,-0.06606091040670871,0.09108700505108572,-0.05132132330858148
1738005555446120000,3.633119873046875,-0.018774843096733093,0.06895131635228172,0.07287487387103028
1738005555456189000,3.64318896484375,0.22424831584692,-0.024191799244703723,0.14171587998294272
1738005555466258200,3.653258056640625,-0.2227279744118452,0.21865345498193053,-0.00024094859942561014
1738005555476326000,3.663325927734375,-0.24278701210021972,0.12216206100350245,0.04544349905005656
1738005555486395000,3.673394775390625,0.14897943211197853,-0.08588615760551765,-0.02018458659707103
1738005555496464100,3.683464111328125,0.05711421836316585,0.022780662938300517,-0.12748349348828195
1738005555506531800,3.69353173828125,-0.20296938097476958,0.11738960417099296,-0.031478515336907
1738005555516601000,3.70360107421875,0.17681144188940523,0.12609631344620137,-0.05567299744575284
1738005555526670000,3.713670166015625,0.29085224708914753,0.03028745837183669,0.010753997193835674
1738005555536739000,3.723739013671875,-0.19981705442368983,0.2812292997518554,-0.051355600037518885
1738005555546807000,3.73380712890625,-0.18081541683375835,0.1746339517198503,0.00786244960394688
1738005555556876000,3.7438759765625,0.24640578711926936,-0.15073436775421722,-0.10849907189463265
1738005555566945000,3.753945068359375,-0.16179799715280532,0.10534088185834697,-0.005171345073159318
1738005555577013000,3.764012939453125,-0.17063772169053554,0.12251835449473,0.19115601092111317
1738005555587082000,3.77408203125,0.15406594159603118,-0.24672983144186436,0.1643544036373496
1738005555597151000,3.78415087890625,0.07446048996150494,-0.06695944841532037,0.03369945192254381
1738005555607220000,3.794219970703125,-0.14851298364400864,0.1941540602259338,0.04013583022914827
1738005555617288000,3.804287841796875,0.042112464064359666,-0.0027185473768506197,-0.10300176225313916
1738005555627357000,3.81435693359375,0.14462299046814442,-0.21487240207325667,0.04011168216858059
1738005555637426000,3.824426025390625,-0.20329262157976627,0.15289028541278094,-0.049745013902569184
1738005555647494100,3.834494140625,0.05842763904929161,0.15718973617237061,-0.057961638105893505
1738005555657563000,3.84456298828125,-0.20957623189389704,0.09977750297700985,-0.10591924800188281
1738005555667632000,3.854632080078125,0.18621698361635208,-0.23984478463586417,0.01278612179266056
1738005555677701000,3.864701171875,0.1711234593808651,-0.15673072209218517,0.008323913652834017
1738005555687768800,3.874768798828125,-0.04555412895083427,-0.16150164455473423,0.24159698033174498
1738005555697838000,3.884838134765625,-0.16510872913599015,-0.09572681194725446,0.1583027754481882
1738005555707907000,3.894906982421875,-0.04120937774479389,0.11640673061348497,0.0046290663064457475
1738005555717976000,3.90497607421875,0.02359481059908867,0.1673873598587699,0.05656889140612911
1738005555728044000,3.9150439453125,-0.05945230592191219,0.015169219820201396,-0.00247016667292919
1738005555738113000,3.925113037109375,0.07551087579727173,-0.35806861114129424,-0.0723699793890817
1738005555748182000,3.93518212890625,-0.0819078833580017,-0.08264785153772682,-0.1169501989735756
1738005555758250000,3.94525,0.21512802080214022,-0.2503545247450471,-0.02596043690202059
1738005555768319000,3.955319091796875,-0.11153495985865593,0.17481665134299545,0.14944027282306924
1738005555778388000,3.965387939453125,-0.18815233559310435,0.2906138717560097,-0.04253296363190748
1738005555788457000,3.97545703125,0.3056634472519159,-0.14226108364239334,0.22406481250617652
1738005555798525200,3.985525146484375,-0.1621001949697733,0.05011711688428186,0.062451213743258266
1738005555808594000,3.995593994140625,0.17025427533090112,-0.1703837469294667,0.1261498337317258
1738005555818663000,4.005662841796875,-0.15491817451119422,-0.026789113128371535,0.01748959476738819
1738005555828731100,4.015731201171875,0.11472820294201373,0.027399025187641382,-0.057504934713803225
1738005555838800000,4.0257998046875,-0.20400223115384578,0.14286270279735325,0.13098950144839472
1738005555848869000,4.035869140625,0.19732816021740435,0.09450711569287813,0.06339996126887854
1738005555858937900,4.045937744140625,-0.08323942422270775,0.2000490000160411,0.07308591823924798
1738005555869005800,4.056005859375,0.09123042297661305,-0.24032635760772972,-0.029353017932781948
1738005555879075000,4.066074951171875,0.0924351225912571,-0.1653204721905291,0.04198867328790948
1738005555889144000,4.07614404296875,-0.030716040781140326,0.24352195704495533,0.0804088587055914
1738005555899211800,4.086211669921875,-0.013816343906521797,0.2652856614930555,-0.08600300718452782
1738005555909281000,4.096281005859375,0.10455810658335685,0.0021402451653964815,0.0554268634978449
1738005555919350000,4.10635009765625,-0.032954175096750256,-0.05452163545354269,-0.06965799875033553
1738005555929419000,4.1164189453125,-0.10074760838449001,-0.02909382814047858,-0.007579448536148993
1738005555939487000,4.126487060546875,0.12582009032070637,0.08843639007760211,0.035224652195826635
1738005555949556000,4.136555908203125,-0.03548106322586536,0.18323226871713996,0.02928592349634273
1738005555959625000,4.146625,-0.08606091138422489,0.05097868388337083,0.028741388840461148
1738005555969693000,4.15669287109375,-0.1254611938804388,0.09196151373013854,0.08367985233343206
1738005555979762200,4.16676220703125,-1.083669096687436,0.501416686302796,-0.050333248419570736
1738005555989831000,4.176830810546875,1.4441595281481743,-1.2055609076485037,0.1692035607015714
1738005555999900200,4.186900146484375,-0.3639198213875294,0.062060415194230154,-0.05969542592882644
1738005556009968000,4.196968017578125,0.19783377165198324,0.1655224610360339,-0.18484850827474145
1738005556020036900,4.207036865234375,-0.11384732845425605,0.15187556454543955,-0.08278821898964234
1738005556030106000,4.217106201171875,0.18168635444939135,0.07217838864000514,-0.2534350464352406
1738005556040174000,4.227174072265625,-0.1311988607496023,-0.09152886706707067,-0.18220024052197112
1738005556050242800,4.237242919921875,-0.17745675405561923,0.06582008738815784,-0.07777161467033437
1738005556060312000,4.24731201171875,-0.06493921290040015,0.05468984989360906,0.0688997779612895
1738005556070380800,4.257380859375,-0.027387773141264914,0.014693053675815462,0.14335205721687524
1738005556080449000,4.267448974609375,0.2856651998400688,-0.29243396332263943,0.15717654789723454
1738005556090518000,4.27751806640625,-0.10968319451212882,0.1600488153979182,-0.0867183980454225
1738005556100587000,4.2875869140625,0.08604337572753429,0.07012831510924734,-0.01918882159194909
1738005556110656000,4.297656005859375,0.14081015418171883,-0.31242267572116106,0.13042737405360674
1738005556120724000,4.307723876953125,-0.13766250380575656,-0.09296218780581839,0.053898293090541845
1738005556130793200,4.317793212890625,-0.10742167932093143,-0.14308322281339206,-0.03922161516079213
1738005556140862000,4.327862060546875,0.031600422400236125,-0.18155412463815881,-0.24874756447244434
1738005556150930000,4.337929931640625,0.07574936072826385,-0.2722075879770331,-0.15611511094449088
1738005556160999200,4.347999267578125,-0.06146306122243404,0.03454371844367124,0.09615562268542126
1738005556171068000,4.35806787109375,-0.12625439008474348,0.02209412371255457,0.14776800136244855
1738005556181137200,4.36813720703125,0.18019699267446992,-0.17226311266897246,0.15080085711916907
1738005556191205000,4.378205078125,-0.32784371487796304,0.390641751031205,-0.06547700957152992
1738005556201273900,4.38827392578125,0.39371757827997206,-0.03417644690070301,0.16241421108869836
1738005556211343000,4.398343017578125,0.08906593841910362,-0.24060427949996663,0.26680854194508863
1738005556221411000,4.4084111328125,-0.07297229723036289,0.11340125605403445,0.18274342575427144
1738005556231479800,4.418479736328125,0.04825988077819347,0.002327429167414084,0.011499791184504282
1738005556241549000,4.428549072265625,-0.22706571135520934,-0.06665068386024794,0.021138800315675325
1738005556251617800,4.43861767578125,0.09001929362118244,-0.4202889204718172,0.027875033785111736
1738005556261686000,4.44868603515625,-0.02996902180612087,-0.37985688377507026,-0.13237864511869846
1738005556271755000,4.458755126953125,0.21247487594485281,-0.4438996592923999,-0.2991487315956503
1738005556281824000,4.468823974609375,-0.13152327039837836,0.00209304502280429,-0.10321545980274677
1738005556291892000,4.47889208984375,-0.08347615558803081,-0.07097935158116743,-0.028409476305241696
1738005556301961000,4.4889609375,-0.13240648297369478,-0.08753141319504938,-0.1164225766365882
1738005556312030000,4.499030029296875,-0.030500352203845976,-0.11410133974794298,-0.1535053668375127
1738005556322099000,4.509098876953125,0.5694289499729871,-0.30465690055787564,-0.3217519738741219
1738005556332167000,4.5191669921875,-0.2719797888368368,-0.10796188714485615,0.14631347343889065
1738005556342236200,4.529236083984375,-0.3538444175750017,-0.08247580117275938,0.11655816744868643
1738005556352305000,4.539304931640625,0.17063304551541805,-0.1881128438329324,-0.02402783172149211
1738005556362372900,4.549372802734375,-0.07567571097016335,-0.15859461626792326,-0.11740860113240778
1738005556372442000,4.559442138671875,0.30622517278790473,-0.3156411628436297,-0.19325976000102235
1738005556382510800,4.5695107421875,-0.02384264788031578,-0.3305782178757712,0.047323207282857035
1738005556392580000,4.579580078125,-0.03460954108834267,-0.17891453338218852,0.07032389704685192
1738005556402648000,4.58964794921875,-0.29409868166446684,0.015520462676975875,0.006020497831958346
1738005556412717000,4.599717041015625,0.03108136696219444,0.07170762475652154,0.0063248487901058975
1738005556422786000,4.6097861328125,0.6859282542407512,-0.262213122179918,0.07560945906722917
1738005556432854800,4.619854736328125,-0.6899819135457277,0.26410452541708945,0.12027611939273775
1738005556442923000,4.629923095703125,0.44563539704382416,-0.14143786675916054,0.046358709632256065
1738005556452992000,4.639991943359375,-0.5648720173209906,0.09708727751234546,0.06338364032173995
1738005556463061000,4.65006103515625,0.4776759644269943,-0.17836499147433788,0.07167811096766963
1738005556473129000,4.66012890625,-0.2977384994715452,-0.26126133788041767,0.12610323637733234
1738005556483198000,4.670197998046875,0.1564262409865856,-0.12175229289252311,-0.009559663138756877
1738005556493267000,4.680266845703125,-0.08014554986059665,0.07839100694400258,-0.03981920202802867
1738005556503336000,4.6903359375,-0.17934768236875534,0.2344366785146296,-0.0797462118120864
1738005556513404000,4.70040380859375,0.031192426121234892,0.6016248175157234,-0.06458129370766691
1738005556523473200,4.71047314453125,-0.07728665329813957,0.6370201386868953,-0.07422551216185093
1738005556533542000,4.7205419921875,0.3259901959657669,0.20869011497544124,-0.09989286385183221
1738005556543610000,4.730610107421875,-0.2242225968837738,0.27800474821478127,0.09020919017009436
1738005556553679000,4.74067919921875,0.19222294603288173,0.044700589994573964,0.15686941817682235
1738005556563747800,4.750747802734375,-0.051534956926107406,-0.08827115304591134,0.15208627555351703
1738005556573817000,4.760817138671875,-0.13578034332096575,-0.19204448419343678,0.04642503003384918
1738005556583885000,4.770885009765625,-0.07232932315170765,-0.19687862635161726,-0.002754786592366872
1738005556593954000,4.7809541015625,0.2297989357113838,-0.17422487772861495,-0.10173189758094958
1738005556604023000,4.79102294921875,-0.2994680997431278,0.2312509976832196,-0.19493657063944264
1738005556614091000,4.801091064453125,0.34846915427744385,0.17202029862273482,-0.035972408673074094
1738005556624160000,4.811159912109375,-0.3630599896878004,0.41920678779091686,-0.03817355599614093
1738005556634229000,4.82122900390625,-0.01126432133615017,0.18028191274525596,0.061837584490096194
1738005556644298000,4.831298095703125,0.14735329221487045,-0.05126762035996653,0.14160309465769677
1738005556654366000,4.841365966796875,-0.0506201801687479,0.15076623333035968,0.09234781876713968
1738005556664435000,4.85143505859375,-0.12349836937487124,0.4848522492645308,0.0869130621009972
1738005556674504000,4.86150390625,0.24596505761444568,0.2835182326729409,0.09462466852478682
1738005556684572000,4.871572021484375,-0.17930793488025665,0.38808662318829446,0.17501305069793013
1738005556694641000,4.881640869140625,0.027642624685168263,0.1403982489125803,0.07902050961973145
1738005556704710000,4.8917099609375,0.09707797996103763,0.2607636540239677,0.045359122401964845
1738005556714779000,4.90177880859375,0.02406125906705856,0.26214697987483815,0.11162109463899396
1738005556724847000,4.91184716796875,-0.16388532482087612,0.23812928595487026,-0.03651739770339336
1738005556734916000,4.921916015625,0.016879823130369186,0.3389419954648241,-0.02558212109194137
1738005556744985000,4.931985107421875,0.2534545365869999,-0.06960909527442417,0.11044001336195505
1738005556755053000,4.942052978515625,-0.314411986374855,0.2997397928239777,0.009664873083145358
1738005556765122000,4.9521220703125,0.8277858716487884,0.2678835507654585,-0.05693389792677481
1738005556775191000,4.96219091796875,-0.7465548646390437,0.683971421084553,-0.003868902438774239
1738005556785260000,4.972260009765625,0.21156535988450048,0.33119160053376107,0.10874871754045598
1738005556795328000,4.982327880859375,0.0005599719703197479,0.39886893316116184,-0.00706345384651795
1738005556805397000,4.99239697265625,-0.1066033486753702,0.2159082113943994,-0.09842234377469868
1738005556815466000,5.002466064453125,0.04195931932926178,0.1822048801644705,0.008014895652723498
1738005556825534200,5.0125341796875,-0.008470891225337982,0.32066563994213937,-0.11985500790383666
1738005556835603000,5.02260302734375,0.0016974515676498412,0.06527758714244701,-0.09148731121397577
1738005556845672000,5.032671875,-0.3152145349293947,-0.2067263954207301,-0.08126405076282098
1738005556855741000,5.042740966796875,0.15345102456808088,-0.11572797283539547,-0.1902134511076845
1738005556865809000,5.052808837890625,-0.14073884251117705,0.3526430058959871,-0.04030251486583147
1738005556875878100,5.062878173828125,0.13114508473575115,0.3955467299358919,-0.08208092010365799
1738005556885947000,5.07294677734375,-0.149276953753829,0.6433204809401184,0.202618448645249
1738005556896016000,5.083015869140625,0.10271218645572662,0.4770805192844942,0.13409549550656227
1738005556906084000,5.093083984375,-0.09315876069068908,0.286633241154626,0.0238847973884549
1738005556916152800,5.10315283203125,0.06709083797633647,0.10972728938218206,0.05819093051685486
1738005556926222000,5.11322216796875,0.107780575761199,0.1302917467088904,0.16367992017557845
1738005556936290000,5.1232900390625,0.061090720778703686,0.15119053229019044,-0.00859862295796629
1738005556946359000,5.133359130859375,-0.18610884706676006,0.3213235923942178,-0.048091469975304786
1738005556956428000,5.143427978515625,-0.02614449508190155,0.2280697920975275,0.06581716477870941
1738005556966497000,5.1534970703125,0.002882277438044548,0.19427859992105512,0.05363832241352647
1738005556976565000,5.16356494140625,0.027870588222146032,-0.08057599543342367,0.16204250996578484
1738005556986634000,5.173634033203125,-0.01641571274995804,-0.13530962053667753,0.26632240239595995
1738005556996703000,5.183702880859375,-0.12938918097913266,0.27915181762436403,-0.021082631415338254
1738005557006771200,5.193771240234375,0.253527017301321,-0.12581242760405875,0.10659553069509566
1738005557016840000,5.20383984375,-0.15647767891287803,-0.09734263137974776,-0.17867475154325366
1738005557026909000,5.213908935546875,0.04163374063670635,-0.3073091320997104,-0.11248931057457812
1738005557036978000,5.22397802734375,-0.06161912856698036,-0.15746433359635992,0.09278637458118609
1738005557047046000,5.2340458984375,-0.10500760391652583,0.38500553524252024,0.031608181015006266
1738005557057115100,5.244115234375,0.18109248020946977,0.3559763881023973,0.08576338974237442
1738005557067183900,5.254183837890625,-0.12506664160490036,0.06198551419395953,0.0331489807162201
1738005557077251800,5.264251953125,0.02351706918776035,-0.20115878788884728,0.05775848934976384
1738005557087321000,5.274321044921875,0.029504326903820037,-0.20798801285438237,-0.04222406664609443
1738005557097389800,5.284389892578125,-0.1606798067778349,0.03916725919162854,-0.021865338191669432
1738005557107459000,5.294458984375,0.10970832895338535,0.39892610670849676,-0.18635065646599977
1738005557117527000,5.304527099609375,0.039075872847437854,0.48761912016198034,-0.020583253358723595
1738005557127595800,5.314595703125,-0.19958967540860176,0.6873317643631249,0.08671423332695849
1738005557137665000,5.3246650390625,0.030695582515001294,0.35832061314098534,-0.09329568494334817
1738005557147733000,5.33473291015625,0.1319967331290245,0.273862442511972,0.1872980933839455
1738005557157802000,5.344802001953125,-0.031111177578568457,0.4463682778956368,0.1024592528742738
1738005557167871000,5.35487109375,-0.03261106074750423,1.0343089265171437,0.04651327913946006
1738005557177940000,5.36493994140625,-0.06104278998374939,0.8209737804811448,0.03856257586332504
1738005557188008200,5.37500830078125,-0.013306640818715096,0.7721867340236902,0.059150263368571175
1738005557198077000,5.385076904296875,0.010785597908496857,0.6984194139581174,0.06609524650115053
1738005557208146200,5.395146240234375,-0.016899112352728844,0.54048916161675,0.024129666394460944
1738005557218214100,5.405214111328125,-0.017647884893417357,0.6892655819699168,-0.0033386337702628224
1738005557228283000,5.415282958984375,0.0039010990917682647,0.4981123475277796,0.0018938326562754808
1738005557238352100,5.42535205078125,0.013477321210503577,0.29557206041896716,-0.009415990055724978
1738005557248420900,5.4354208984375,0.0013549217402935027,0.3280474207565188,-0.004294107864191756
1738005557258488800,5.44548876953125,-0.020193477723002434,0.1341212875349447,0.00047175939732696856
1738005557268558000,5.45555810546875,-0.0010404489636421203,0.14664542707330547,0.004779740523244254
1738005557278626800,5.465626708984375,-0.01391162097454071,0.2605929370995611,-0.021391569500346666
1738005557288695000,5.475695068359375,-0.018851415464282036,0.24285229588877408,-0.038442936105607076
1738005557298764000,5.485763916015625,-0.0019447043269872665,0.20658249343801288,-0.048138551386888134
1738005557308832800,5.495832763671875,-0.0055395139485597605,0.23577956275725737,-0.03417332792843226
1738005557318902000,5.505902099609375,-0.006294716230034828,0.27418003882747144,-0.030534706564596854
1738005557328970000,5.515969970703125,0.01688449930548668,0.2441713608643971,-0.05957544367781374
1738005557339039000,5.5260390625,0.04379413354098797,0.08291998300999402,-0.04815855756187811
1738005557349108000,5.53610791015625,-0.006053893211483955,-0.13981792827397585,-0.016689638887089676
1738005557359176000,5.546176025390625,-0.04660509930849075,-0.3219042418263852,0.04459584184531122
1738005557369245000,5.556244873046875,-0.029989480072259902,-0.5061954450119287,0.16134296512799337
1738005557379313400,5.5663134765625,-0.03310147461295128,-0.45363636920247224,0.22590715243723242
1738005557389382700,5.576382568359375,-0.03698036187291145,-0.14463066231794655,0.060332481723348604
1738005557399450600,5.58645068359375,0.16637012737393378,-0.03172842812750023,-0.07117493808534928
1738005557409519400,5.596519287109375,-0.12930910148024558,-0.04699592525698244,0.05245985778525937
1738005557419588600,5.606588623046875,0.07060498357713223,-0.0682568358486751,-0.012935282189096323
1738005557429656600,5.616656494140625,-0.049852118405699725,-0.04793017389979213,0.02829212896930985
1738005557439725300,5.626725341796875,0.015240823751688002,-0.023195974874077364,0.01016845239084214
1738005557449794600,5.636794677734375,-0.01648176372349262,-0.013108421682741027,0.0312546046372503
1738005557459863600,5.646863525390625,0.00327039997279644,0.0036217455775593406,0.03252436884474009
1738005557469931500,5.656931640625,-0.0058580783784389495,0.0072918306587380355,0.043017947836988604
1738005557480000500,5.66700048828125,0.0013245266020298003,0.005892037730256561,0.0378624191041803
1738005557490069500,5.677069580078125,0.006113514444231987,-0.002424793161242269,0.021888604902825317
1738005557500137500,5.687137451171875,-0.005558218649029731,-0.007167915443057427,0.022616161125549115
1738005557510206500,5.69720654296875,-0.013639233773946761,-0.004566028132260544,0.021773262294312007
1738005557520275700,5.707275634765625,-0.02082183875441551,-0.00539909854758298,0.008299155954201705
1738005557530344400,5.717344482421875,-0.012293079861998558,-0.023528903472737873,0.008110697877127676
1738005557540412400,5.727412353515625,-0.0043622868627309795,-0.024508253915887325,-0.0009163065607426687
1738005557550481700,5.737481689453125,-0.0061573535859584805,-0.030323548031947575,0.0026323760638944805
1738005557560550400,5.74755029296875,-0.002266191366314888,-0.027418380625371355,0.0058380493705626575
1738005557570618400,5.757618408203125,-0.0033136545926332472,-0.0274512942309957,0.020114457670040428
1738005557580687600,5.7676875,-0.003612929800152778,-0.017297178609471303,0.0159863494559424
1738005557590756400,5.77775634765625,-0.01648351728916168,-0.008492363271629437,0.011534562245430424
1738005557600825600,5.78782568359375,-0.01573591379225254,0.005815949419897515,0.021779418040462767
1738005557610893600,5.7978935546875,-0.0025678046613931654,0.007381022762553766,0.02429293066477403
1738005557620962300,5.80796240234375,-0.008553893333673476,0.008200335222226567,0.02382882028436288
1738005557631031600,5.818031494140625,-0.0061596916735172265,0.004896311541041359,0.024735189972980878
1738005557641099500,5.828099609375,-0.0004728782087564468,0.00678121653876733,0.02120713914441876
1738005557651168500,5.83816845703125,-0.006757073044776916,0.006740189266990637,0.024977410364174283
1738005557661237500,5.848237548828125,-0.012592355069518089,-0.005947380080108996,0.015472075224295258
1738005557671305500,5.858305419921875,-0.004511924466490745,-0.009999462774285348,0.008725464208028279
1738005557681374500,5.86837451171875,-0.007805120792984962,-0.009768243267718935,0.008719628122285938
1738005557691443500,5.878443359375,-0.017232874351739882,-0.01792824533791281,0.0020127417616313324
1738005557701512400,5.888512451171875,-0.01364274090528488,-0.02459124460777966,0.006626377603504806
1738005557711580400,5.898580322265625,-0.02112520561516285,-0.02239337837047642,0.0008838473295560106
1738005557721649400,5.9086494140625,-0.013344050219655037,-0.024721122631721663,0.011224203954893163
1738005557731718700,5.91871875,0.004162964898347854,-0.018470887147518805,0.01149832645484712
1738005557741786400,5.928786376953125,0.003264554753899574,-0.010086610193131491,0.012777735273516735
1738005557751855400,5.93885546875,-0.005863339075446129,-0.005316530264087487,0.01975989947817288
1738005557761924600,5.948924560546875,-0.011549568018317222,0.0053100731238373555,0.01601176702498924
1738005557771993300,5.958993408203125,-0.020527239722013473,0.007787512071058154,0.025320387716102413
1738005557782061600,5.9690615234375,-0.013493687823414802,0.005457256192318164,0.02947187223921064
1738005557792130600,5.979130615234375,0.005210428124666214,0.0016884896597708574,0.011139955170964822
1738005557802199600,5.989199462890625,0.010298106652498244,0.0000728643068112433,0.01379764377262909
1738005557812267500,5.999267578125,-0.002420505145192146,-0.014280152892833575,0.010929157397919333
1738005557822336500,6.00933642578125,-0.017533318603038788,-0.012560633340559433,0.017665466215880585
1738005557832405500,6.019405517578125,-0.00990180081129074,-0.009070670049660839,0.012436360790207981
1738005557842473500,6.029473388671875,-0.014092822760343552,-0.0051676507121534085,0.0022998059415491297
1738005557852542500,6.03954248046875,-0.010502104791998862,-0.01357977237140294,0.00707305735850241
1738005557862611500,6.049611572265625,-0.004366963037848472,-0.02648091711216839,0.011767749946797267
1738005557872680400,6.059680419921875,-0.01080196452140808,-0.016023425496742127,0.007169416705332696
1738005557882748700,6.069748779296875,-0.008407762861251831,-0.014715763264545238,0.016886723228613846
1738005557892817400,6.0798173828125,-0.014692542219161987,-0.010097410148358903,0.022611772644799202
1738005557902886400,6.089886474609375,-0.00047755438387393946,0.0034227706730482164,0.022955243187071754
1738005557912954600,6.09995458984375,0.0014677344650030136,0.0023773030409938653,0.028809284711210057
1738005557923023400,6.1100234375,-0.010804302608966827,0.008456120631180238,0.025224937118147498
1738005557933092600,6.120092529296875,-0.005715455037355423,0.005905678096541669,0.02327257920766715
1738005557943160600,6.13016064453125,-0.005715455037355423,0.007077071379916742,0.021639470713655462
1738005557953229300,6.140229248046875,-0.005416179829835891,0.004807902605226263,0.01803908530124463
1738005557963298600,6.150298583984375,0.008799392527341842,-0.01747351927377749,0.0033371085334569215
1738005557973367600,6.160367431640625,-0.008259878823161124,-0.021084186334896365,0.008323568876250647
1738005557983435500,6.170435546875,-0.0024245967984199523,-0.023742601022345478,0.003346433484228328
1738005557993504500,6.18050439453125,-0.005716624081134796,-0.01902416679885937,0.00018752192873507738
1738005558003573500,6.190573486328125,-0.016489947029948233,-0.02099327719802968,0.005366289973235689
1738005558013641500,6.200641357421875,-0.008410100948810577,-0.0087879760841839,0.016682035535946486
1738005558023710500,6.21071044921875,0.005955109012126922,-0.006073604842240456,0.01494594615807291
1738005558033779500,6.220779541015625,0.001616203024983406,-0.012404595678765326,0.017911568197747692
1738005558043848400,6.230848388671875,-0.005265957704186439,-0.007740483175113331,0.023676250938000156
1738005558053916400,6.24091650390625,-0.0033212533771991726,0.002311642509815283,0.03159893369604833
1738005558063985700,6.250985595703125,0.0016167875468730926,0.014968491350021212,0.024249940906418486
1738005558074054400,6.261054443359375,0.0056575873702764505,0.012946641550038475,0.02093607625123113
1738005558084122400,6.271122314453125,0.005057867911458016,0.004592426373774651,0.019909176322328855
1738005558094191600,6.281191650390625,-0.00840951642692089,0.009054479249974247,0.031406635127495974
1738005558104260400,6.29126025390625,-0.013346972829103469,0.00914580394537188,0.028118571633845565
1738005558114329600,6.30132958984375,0.0002712181568145752,0.00028998222278896717,0.020354065979039295
1738005558124397600,6.3113974609375,0.0010205752193927764,-0.015923819313477725,0.007032072327565401
1738005558134466300,6.32146630859375,0.004911737439036369,-0.021263645971473306,0.0017560042213182895
1738005558144535600,6.33153564453125,-0.006760580176115035,-0.032476214287499895,0.005306645907601341
1738005558154603500,6.341603515625,0.000571077886223793,-0.03500000399394194,0.009910755869303829
1738005558164672300,6.35167236328125,-0.002571311792731285,-0.018923971527128013,0.012890461233258247
1738005558174741500,6.361741455078125,-0.006312251886725425,-0.010161349079909269,0.012636312942253425
1738005558184809500,6.3718095703125,-0.007359715113043785,0.004219279929157346,0.011115304786898195
1738005558194878500,6.38187841796875,-0.0018231237739324568,-0.001141251590149477,0.021296109769237227
1738005558204947500,6.391947509765625,-0.0015238485664129256,0.004961458332277834,0.023569950152467933
1738005558215016700,6.4020166015625,-0.004965513452887535,0.0035547059400472788,0.02616143708354793
1738005558225084400,6.41208447265625,0.002964695024490356,0.011901324615033808,0.024431745480420066
1738005558235153400,6.4221533203125,0.01179272912442684,0.0037976318674278445,0.024420068742358126
1738005558245222700,6.43222265625,0.0052080900371074676,-0.0013006982018705458,0.028394840425113213
1738005558255290600,6.44229052734375,-0.005265373182296753,0.002945638697571121,0.022895868549495935
1738005558265359400,6.452359375,-0.0009252981513738632,-0.0051825194877223105,0.0110660588176921
1738005558275428600,6.4624287109375,-0.0010749357551336288,-0.011104146355355624,0.006108217214606702
1738005558285496600,6.47249658203125,-0.004217909955978393,-0.027369171188783365,0.002752148252353072
1738005558295565600,6.482565673828125,-0.0016734861701726913,-0.027707518031366632,0.004485360686550848
1738005558305634600,6.492634521484375,-0.004366378515958786,-0.033992717514385,0.0037927616127766666
1738005558315703300,6.502703369140625,0.008950783696770668,-0.029682752210646864,0.007355500162229873
1738005558325771500,6.512771484375,0.003713467565178871,-0.021088414985442068,0.0019009154176106676
1738005558335840500,6.522840576171875,0.003713467565178871,-0.004532695543172303,0.007369414523150771
1738005558345909500,6.532909423828125,-0.0028705870002508163,0.007860483692435081,0.019763475108169948
1738005558355977500,6.5429775390625,-0.002122398981451988,0.007242714836983941,0.03190674383647274
1738005558366046500,6.55304638671875,-0.01170037466585636,0.009749605924263596,0.026945390535471958
1738005558376116500,6.563116455078125,0.0026654198169708252,0.005876534200448077,0.021351945309434083
1738005558386185700,6.573185791015625,0.014487959557771681,0.006622258550813422,0.018868124570487997
1738005558396253700,6.583253662109375,-0.00032557869255542754,0.01078607739910949,0.022762095235148442
1738005558406322700,6.59332275390625,-0.006311082842946052,0.0025969576906412837,0.019669677611184305
1738005558416391700,6.6033916015625,-0.006761164698004722,-0.008891050582879688,0.014063034976855852
1738005558426459600,6.613459716796875,-0.012297171515226364,-0.0133983102906961,0.012146725627291015
1738005558436528600,6.623528564453125,0.006257891350984573,-0.01816607268177904,0.006600115217664278
1738005558446597600,6.63359765625,-0.005563479346036911,-0.024364548295992425,0.0043827177294064315
1738005558456665600,6.64366552734375,-0.00810673408806324,-0.02451746241893852,0.003588905037171207
1738005558466734600,6.653734619140625,0.005959785187244415,-0.02276039418511791,0.006556591169768944
1738005558476803600,6.663803466796875,-0.009002806144952774,-0.017559437141695524,0.009356400789017788
1738005558486872600,6.67387255859375,-0.008704115459322929,-0.00684447276701685,0.020282512279902583
1738005558496940500,6.6839404296875,0.00012450316250324248,-0.007191345409350469,0.017304007925768382
1738005558507009500,6.694009521484375,-0.011847089660167693,0.0043062138605164365,0.01670179511576425
1738005558517078500,6.70407861328125,-0.00017535656690597534,0.005876604982395656,0.02251189703347627
1738005558527146500,6.714146484375,0.004612462231516838,0.004131729509867728,0.025971946960012426
1738005558537215700,6.7242158203125,-0.015438976672291755,0.0035248587910551576,0.024848089462658388
1738005558547284500,6.734284423828125,-0.012595862200856208,-0.006178736583993304,0.029667212148220278
1738005558557353700,6.744353759765625,-0.0034679683715105056,0.008113773466914427,0.01773912054055836
1738005558567421700,6.754421630859375,-0.004965513452887535,-0.00854803213175619,0.009485552727174945
1738005558577490700,6.76449072265625,-0.002272036585211754,-0.026584288438386283,0.009908436048054135
1738005558587559700,6.7745595703125,0.00027180267870426176,-0.019292215751053297,0.003985909564699977
1738005558597627600,6.784627685546875,-0.0007762450695037841,-0.018842645352648103,0.01046702434546314
1738005558607696600,6.794696533203125,0.008799977049231529,-0.015840426762786228,0.0037606448748847467
1738005558617765600,6.804765625,-0.0024245967984199523,-0.01563285299328854,0.008836587299150414
1738005558627834600,6.814834716796875,0.010592705684900283,-0.01183531017411733,0.013620341843809001
1738005558637902600,6.824902587890625,0.0031108254969120022,-0.007591021384578198,0.008815631276089697
1738005558647971600,6.8349716796875,-0.0052700493574142455,-0.0046796274499036365,0.013109830471826716
1738005558658040600,6.84504052734375,-0.0051209962755441665,0.006542829789186362,0.013305549406749195
1738005558668108800,6.85510888671875,0.004905307698249817,0.021458419624902306,0.021646937067480755
1738005558678177500,6.865177490234375,0.011040449452400207,0.023897501606401056,0.025074281167658044
1738005558688246800,6.875246826171875,0.013434651112556456,0.024411113684345034,0.027422351264301686
1738005558698314800,6.885314697265625,0.005054945302009582,0.00045410272633889686,0.02484382427949458
1738005558708383500,6.895383544921875,-0.006767594438791275,-0.018839524097088722,0.017672626609029247
1738005558718452700,6.90545263671875,-0.0072188453376293175,-0.007975273745099548,0.009705972278513945
1738005558728521500,6.915521484375,-0.007815057665109634,-0.04403843629141338,-0.0028400868307100605
1738005558738589400,6.92558935546875,-0.02636369079053402,-0.023401011909905355,0.00416192371873185
1738005558748658700,6.93565869140625,0.03199614371955395,-0.024979903715359977,-0.008508259527082555
1738005558758727400,6.9457275390625,-0.0019710078120231626,-0.021772771387256216,0.0007703222187934443
1738005558768795600,6.955795654296875,0.0007242226213216781,-0.009798141790705267,-0.005306257748533971
1738005558778864600,6.96586474609375,0.007160977670550346,0.01634748351906892,-0.014537465821881777
1738005558788933600,6.97593359375,0.02212473804652691,0.04302951497719623,-0.04334560888877604
1738005558799002600,6.986002685546875,-0.000173018479347229,0.037322553773550315,-0.012316734732221812
1738005558809070600,6.996070556640625,-0.023368016105890274,0.013084543050231877,-0.08148529229806735
1738005558819139800,7.006139892578125,-0.002422258710861206,0.013482956366846337,-0.172375943659991
1738005558829208600,7.01620849609375,-0.01364800160229206,0.01143236909614643,-0.23891557749435305
1738005558839276500,7.026276611328125,-0.024717677149176595,-0.1373275544966571,-0.2993445098960772
1738005558849345800,7.036345703125,0.02960486466884613,-0.26443993138391525,-0.33337745667286217
1738005558859414500,7.04641455078125,-0.05208557654619217,-0.29714793143356216,-0.3188261130226776
1738005558869483800,7.05648388671875,0.04981938517987728,-0.2478120919869281,-0.22383531459923833
1738005558879551700,7.0665517578125,-0.0008949030131101608,-0.2632082158981822,-0.23129891021186486
1738005558889620500,7.076620361328125,0.035602059257030486,-0.06080939221982844,-0.01241883426667191
1738005558899689700,7.086689697265625,-0.010621931779384612,0.010195910078281304,0.01766407797639258
1738005558909757700,7.0967578125,-0.03202653885781765,-0.042434983150148764,0.09172103777145967
1738005558919826400,7.106826416015625,0.006593406915664672,0.017518027419073042,-0.2155449675725773
1738005558929895700,7.116895751953125,0.0561100097566843,0.054091080282861366,-0.13798588140807114
1738005558939963600,7.126963623046875,-0.09156243140995501,-0.022410089759971014,-0.23635323445936662
1738005558950032600,7.13703271484375,0.1566740782678127,-0.2643730584264733,-0.3563732419328764
1738005558960101600,7.1471015625,-0.2055962223470211,-0.2933294143250212,-0.2055200518382713
1738005558970170600,7.157170654296875,0.10954115569293499,-0.0874183995409403,-0.23579574670707806
1738005558980238600,7.167238525390625,-0.04352992964684963,0.08621155363498255,-0.15805482856910674
1738005558990307600,7.1773076171875,0.029487375769019126,0.14735285382345317,0.06768906416438986
1738005559000376600,7.18737646484375,-0.10353519327640533,0.05371985865056049,0.07125915490323677
1738005559010444500,7.197444580078125,0.06120704063475132,0.041697722950740715,-0.18863443828793242
1738005559020513500,7.207513427734375,-0.032763036438822744,0.23727604839270933,-0.2687869293459691
1738005559030582800,7.217582763671875,0.055523734301328655,0.35343485039342193,-0.1239480676374398
1738005559040651500,7.227651611328125,-0.06822539496421813,0.25608417270453643,-0.1657107136171311
1738005559050719500,7.237719482421875,-0.07869476653039455,0.012390336541261057,-0.27995149836838246
1738005559060788700,7.247788818359375,0.11044774914383887,-0.04967173860380426,-0.07751109143747016
1738005559070857500,7.257857421875,-0.09021803106367587,0.12437846754449419,-0.6294107596617192
1738005559080925700,7.26792578125,-0.07690028432905674,-0.08095516747673973,-0.3657966481100768
1738005559090994700,7.27799462890625,0.2256727956920862,-0.0503021134957904,-0.9142141550406813
1738005559101063700,7.288063720703125,-0.2684241421818733,-0.2714196890023537,-0.4678667372699827
1738005559111131600,7.298131591796875,0.35494974846839905,0.04815662133311852,-1.019209630127996
1738005559121200600,7.30820068359375,-0.13662673101723194,0.33814401348754763,-0.8577809777442366
1738005559131269600,7.31826953125,-0.08572948747277259,-0.05831661642286926,-0.2971281490208581
1738005559141338600,7.328338623046875,0.20456395668983457,0.04450799916507676,-0.5394829437162727
1738005559151406600,7.338406494140625,-0.2934124529659748,-0.14775442036166786,0.09988314617541617
1738005559161475600,7.3484755859375,0.2651817992597818,-0.18306675769081338,-0.1787517075032927
1738005559171544600,7.358544677734375,-0.27861060515344144,-0.3314814503258094,0.09122479695342481
1738005559181612800,7.36861279296875,0.07707973254919051,-0.000526119933067821,-0.40884986362326886
1738005559191681500,7.378681640625,0.03129530197381973,0.07988909088149666,-0.454818089800328
1738005559201750500,7.38875048828125,-0.16935528066456318,0.002942710379901109,-0.3099810912553221
1738005559211818800,7.39881884765625,0.18916472750604152,0.07049265490961261,-0.2202281934853643
1738005559221887500,7.408887451171875,-0.23397943626642226,0.009334947009035385,-0.13081982570360415
1738005559231956700,7.418956787109375,0.21702713242173194,0.014299486639321547,-0.13793443434862418
1738005559242025700,7.429025634765625,-0.14449147304296492,0.01927932202015072,0.055521720440755595
1738005559252093400,7.439093505859375,0.11303718111515045,0.051097040432877834,-0.11787039169156924
1738005559262162700,7.44916259765625,0.08310323062241078,0.10571516766399144,-0.27288181571047754
1738005559272231700,7.459231689453125,-0.14164602048397062,-0.02103730813600123,0.357281808145158
1738005559282299400,7.46929931640625,0.12920154945254325,-0.09660606986666098,0.4342997640371322
1738005559292368600,7.47936865234375,-0.0894236658155918,-0.07353345651077106,0.04744524449363816
1738005559302437600,7.489437744140625,-0.23935236147642133,0.04226020197197795,-0.0761842906799633
1738005559312506600,7.499506591796875,0.3520060962319374,0.34830369805004446,-0.8630586989514529
1738005559322574600,7.50957470703125,-0.17232289829850195,0.2871487346624024,-0.6749716836795211
1738005559332643600,7.5196435546875,-0.1507704071819782,0.023367486382927745,-0.1466673009783961
1738005559342712600,7.529712646484375,0.14027823926210403,-0.07474585080810356,-0.14088987748757936
1738005559352780500,7.539780517578125,-0.07759644989967346,-0.10432605139315128,-0.045750446107378225
1738005559362849800,7.549849853515625,-0.17006372119486332,-0.1293730883608572,0.27029210974453016
1738005559372918000,7.55991796875,0.2516109545469284,0.06273404013947584,-0.00801994400388794
1738005559382985700,7.56998583984375,-0.18159575355648994,0.020157773938670288,0.3980294866623357
1738005559393055000,7.580054931640625,0.11589432411193847,-0.02441093330454314,0.12086219391869381
1738005559403124000,7.5901240234375,-0.08971884936988353,-0.08570728477411903,0.12334544383548199
1738005559413193000,7.60019287109375,-0.22317922531068324,-0.08978160327463411,-0.14139129680423065
1738005559423261000,7.610260986328125,0.3823959737986326,0.2389736460908316,-0.6581613455887884
1738005559433330000,7.620329833984375,-0.11290274108052253,0.32762440957147626,-0.4344602883610874
1738005559443399000,7.63039892578125,0.0439016855686903,0.11577842438099906,-0.19607534714471547
1738005559453467000,7.640466796875,-0.22513152842223644,0.14640116085549815,-0.18978222008356824
1738005559463536000,7.6505361328125,-0.13743044861555098,0.1437231920842081,-0.14193552321614697
1738005559473604900,7.66060498046875,-0.008557984986901282,0.13665900758532806,-0.18439338491838425
1738005559483672800,7.6706728515625,-0.13290508014559746,-0.019149981710681458,-0.24015984193440526
1738005559493742000,7.6807421875,-0.3441729183882475,-0.2863949023541063,0.25460089361052957
1738005559503810800,7.690810791015625,0.19392273568809032,-0.10236929130218922,0.19731619578497483
1738005559513880000,7.700880126953125,0.12074527127444744,-0.13804261656398883,0.23611800093138588
1738005559523948000,7.710947998046875,-0.16716741523146628,-0.13555353969461284,0.11112808695766142
1738005559534016800,7.721016845703125,0.2314548862248659,0.06652865578262135,-0.40308786603044716
1738005559544086000,7.7310859375,0.26807868974506854,0.02131430301305372,-0.6112495914839208
1738005559554154000,7.741154052734375,-0.1472293735742569,0.15857275149598718,-0.3919655469808727
1738005559564222700,7.75122265625,-0.25088673192560673,-0.08450847604414448,0.2786651848848909
1738005559574292000,7.7612919921875,0.20768062740564344,-0.11988478198759257,0.42395456683989613
1738005559584360000,7.77135986328125,-0.017636194455623627,-0.014817739501409232,0.626685937807709
1738005559594429000,7.781428955078125,0.011424480333924293,-0.09700804739682935,-0.10585323356096632
1738005559604498000,7.791497802734375,0.03637947337031364,0.1397460412146989,-0.378837185338512
1738005559614567000,7.80156689453125,-0.07961012780964374,0.1850506797833368,-0.06795656969388947
1738005559624635000,7.811634765625,0.5060375510364771,0.018908337849867528,-0.5961794481240212
1738005559634704000,7.821703857421875,-0.1461579449504614,0.13545685612079686,-0.2768629577685147
1738005559644773000,7.831773193359375,-0.023124270477890965,0.5513705480499193,-0.3247122849844396
1738005559654840800,7.8418408203125,0.09396247828900814,0.07224117451079655,-0.38505335643962024
1738005559664909800,7.851909912109375,-0.056038698086142535,-0.3428722841184586,-0.05287650772817432
1738005559674979000,7.86197900390625,0.054473348465561865,-0.09282609467022121,-0.10781891674390062
1738005559685046800,7.872046875,0.07785363953113555,0.2912677325548604,-0.1977651633951813
1738005559695115800,7.88211572265625,0.05560322927832603,0.04631644595968537,-0.04544387350939214
1738005559705185000,7.89218505859375,0.054928106495738024,-0.0044364640605053865,0.19904468181170523
1738005559715253000,7.9022529296875,-0.4308370563626289,-0.156170603991393,0.26298732142280784
1738005559725322000,7.912322021484375,0.6738029321610928,-0.043221804412594066,-0.48122770209182053
1738005559735391000,7.922390869140625,-0.38843700752854343,0.35725046315882353,0.14343610050482675
1738005559745459700,7.932459716796875,0.3057078709155321,0.3387692327138036,-0.31284327575340865
1738005559755528000,7.94252783203125,0.09057926559150219,0.21880961365802212,-0.5541268975533544
1738005559765597000,7.952596923828125,-0.21923662516474723,0.0024730710160685704,-0.09544429607829079
1738005559775666000,7.962666015625,0.2481289576500654,0.1007892647022847,-0.10246480583222582
1738005559785734000,7.97273388671875,-0.3376706968873739,-0.25768895928636193,0.44297940264232455
1738005559795803000,7.982802978515625,0.41122751600742335,-0.2052826080868952,-0.17975882045291364
1738005559805871900,7.992871826171875,-0.11672785232663153,0.17995328357908874,-0.24046651499709112
1738005559815939800,8.00293994140625,-0.1420610310256481,0.2744161856709048,-0.3777338272064924
1738005559826008800,8.0130087890625,0.13471475991606713,0.07946544950879178,-0.22696707328632473
1738005559836077800,8.023077880859375,-0.9036872080683708,-0.48049803611040115,1.4555955527894198
1738005559846145800,8.033145751953125,0.7604542106539011,-0.1665592932704836,0.6591578823454678
1738005559856215000,8.043215087890625,-0.27519232114255426,0.14546353294551373,0.47960284083634613
1738005559866283800,8.05328369140625,-0.5370943680793047,-0.2592108533577062,0.17797336180824785
1738005559876351700,8.063351806640625,1.355700907972455,0.006919815583637683,-0.6657759853109717
1738005559886421000,8.0734208984375,-0.9409043013066053,-0.1425615096273832,0.49709787325561045
1738005559896490000,8.083489990234375,0.04412848006188869,-0.040811747596180066,-0.5793517205070704
1738005559906559000,8.09355908203125,0.1443833364933729,-0.12384504565438255,0.031310600007651374
1738005559916627000,8.103626953125,-0.7447925311416387,0.9098894237093627,0.6585655424755066
1738005559926696000,8.113696044921875,0.023410686203837395,0.19365897018536923,0.8859628969378769
1738005559936765000,8.123764892578125,-0.07255494860112667,-0.8101419322781265,0.3273112154364586
1738005559946833000,8.1338330078125,0.24629765056967734,-0.3621340339493006,0.276257594020199
1738005559956902100,8.143902099609376,-0.3420265540093183,-0.19966507873237133,1.0031666962131858
1738005559966971000,8.153970947265625,0.39741351018846033,-0.04438559206153732,-0.19074781371271238
1738005559977038800,8.164038818359375,-0.6270750832557678,0.2912282225283794,1.3001429791405796
1738005559987108000,8.174108154296874,0.6420727459013462,-0.09556377600580453,-0.497761415198259
1738005559997176800,8.1841767578125,-0.01467325299680233,0.23735331488000228,-0.30186166208246723
1738005560007244800,8.194244873046875,-0.5120113647490739,0.020141925632278432,-0.18161833071447908
1738005560017314000,8.20431396484375,0.5780372038424014,-0.06960177048449404,-0.26700565368607637
1738005560027382800,8.2143828125,-0.2931009027987718,0.21307169106053186,0.02490788422534242
1738005560037450800,8.22445068359375,0.06407879667878151,-0.019719078844017347,0.11025697581209241
1738005560047520000,8.23452001953125,0.09557692774832248,-0.07850872417269274,0.26477844262328
1738005560057588700,8.244588623046875,-0.22087971619665622,-0.15445614649001507,0.40880240775234994
1738005560067658000,8.254657958984374,0.3129775696575641,-0.22871729622082784,-0.5790536143433302
1738005560077726000,8.264725830078126,-0.24153029003739357,0.11424249265114776,0.07228734717350453
1738005560087795000,8.274794921875,-0.15922960796952246,-0.029011789579945615,0.28440144524825733
1738005560097864000,8.284864013671875,0.1129343052625656,-0.13817414312232285,-0.1513386720566079
1738005560107932000,8.294931884765624,0.21184651491343973,0.0333078656389378,-0.11261617922410368
1738005560118001000,8.3050009765625,-0.10794716449975966,0.01641521270974772,-0.2523577543262392
1738005560128070000,8.31506982421875,-0.15132511845529079,0.2632098963986151,-0.17280578644461927
1738005560138137900,8.325137939453125,0.08318564820885657,0.3118938295414671,0.07292723424592987
1738005560148206800,8.335206787109374,-0.2769704367309809,-0.25291133308839053,0.35618871567882593
1738005560158275800,8.34527587890625,0.5779845968723297,-0.20658136092685161,-0.3744641578860581
1738005560168344000,8.355343994140625,-0.215141464805603,0.029190669261210132,-0.06905190891623497
1738005560178412800,8.365412841796875,0.29023265388607977,0.3686012572020292,-0.434183224985376
1738005560188481800,8.375481689453125,-0.08772796781361103,0.13055595973618328,-0.380926997224614
1738005560198550000,8.385550048828126,0.14807517674863338,0.19129452434265984,-0.4517425548125058
1738005560208618800,8.39561865234375,-0.028999299991130826,-0.17832190125128253,0.024683272556075823
1738005560218688000,8.40568798828125,0.10513502968847752,-0.30272662661503996,0.3841071981633082
1738005560228756000,8.415755859375,-0.0492389549434185,-0.08390114866760559,0.44017252852804956
1738005560238825000,8.425824951171874,0.11792670672237872,0.16878347212597727,0.3429802745375782
1738005560248894000,8.43589404296875,-0.14508359371721744,0.10248387585887685,0.4484541807916015
1738005560258963000,8.445962890625,-0.10243161594867706,-0.08179894309081137,0.574067752222158
1738005560269031000,8.456031005859375,0.06084872871637344,-0.34821185504812746,0.3745534801373258
1738005560279100000,8.466099853515624,0.04692132565081119,0.03888188921187538,0.11173089342270977
1738005560289169000,8.4761689453125,-0.1528495515435934,0.21652831605412065,0.036714781155728266
1738005560299237000,8.486237060546875,-0.20537235046327112,0.14183030014284886,0.021365345930412876
1738005560309305900,8.496305908203125,0.04182955546975135,0.04514511889168061,0.2385797696687281
1738005560319374800,8.506374755859374,-0.021916648253798483,0.022260689618228933,0.3707993883008137
1738005560329443000,8.516443115234376,-0.10586159039735793,-0.18647873982507734,0.7280114191453904
1738005560339511800,8.52651171875,-0.1142459723830223,-0.17234931138139217,0.7103891070846468
1738005560349581000,8.5365810546875,0.05349661238789558,-0.17166379506895318,0.44829442365262656
1738005560359649000,8.54664892578125,-0.004561024305224418,0.067624310098798,0.15167294551227242
1738005560369717800,8.5567177734375,-0.2742009720176458,-0.07226982978312298,0.2938361034718342
1738005560379787300,8.566787353515625,0.10109364534318446,0.18661948173632845,0.2129273872190155
1738005560389855200,8.576855224609375,0.09106792589128017,0.18958797615310177,0.1223914036468137
1738005560399924200,8.58692431640625,-0.1251601651072502,-0.055680970689654344,0.24571022433685138
1738005560409993200,8.5969931640625,-0.020566402688622473,0.12403260411573573,0.0893943118569441
1738005560420061400,8.6070615234375,-0.26792203787863256,-0.3202446745837107,0.3799684543907642
1738005560430130200,8.617130126953125,0.09898059871196746,-0.021443235755502246,-0.12034004234126769
1738005560440199200,8.62719921875,-0.36714053699970245,-0.10779668664578347,-0.26993474767422304
1738005560450267400,8.637267333984376,0.005313303977251053,0.03854192123436369,-0.40975561682395634
1738005560460336000,8.647336181640625,0.5048012872397899,0.0998419830479659,-0.6454338928975164
1738005560470405400,8.6574052734375,-0.05829261449277401,0.2442299226512201,-0.5927238277774304
1738005560480473300,8.667473388671874,0.02101531549990177,0.10664307789755985,-0.07167752187920268
1738005560490542000,8.6775419921875,0.15568272914290426,0.04983156880801543,-0.1030095711002592
1738005560500611300,8.687611328125,-0.05979483574926853,0.03665372373443097,-0.205961128402967
1738005560510679300,8.69767919921875,0.0012526304095983505,0.07174546341572421,-0.07891970699322409
1738005560520748000,8.707748046875,-0.16184826603531838,-0.0037354510681238025,-0.14335666032675654
1738005560530817300,8.7178173828125,0.19638181927800177,0.1393322636488825,-0.23601161794746292
1738005560540885200,8.72788525390625,-0.08883096061944962,-0.04286536479089409,0.04605637938454747
1738005560550954200,8.737954345703125,-0.04274491674900055,-0.17328796220468357,0.25255008029425513
1738005560561023200,8.748023193359375,0.09462357254624366,-0.05307082015729975,0.2353743612235412
1738005560571091200,8.75809130859375,-0.1296791038364172,-0.04663454003210645,0.34600849978495385
1738005560581160200,8.76816015625,0.0057446811318397515,0.042068259596452114,-0.11964784969286993
1738005560591229200,8.778229248046875,0.07577566421329975,-0.0066594670223537825,-0.07207816140223294
1738005560601297200,8.788297119140625,-0.11156769308447838,-0.028495944445719942,0.3203388556731865
1738005560611366100,8.7983662109375,-0.07654547954201697,-0.27034583095945414,0.25846158762667326
1738005560621435100,8.80843505859375,-0.08447334993183613,0.005639081315917428,0.14194196209008805
1738005560631503400,8.81850341796875,0.25191782853901384,0.3067185457954183,-0.2061934758541174
1738005560641572400,8.828572265625,-0.12651041067242622,-0.0063656694242614316,0.13237988722771404
1738005560651641000,8.83864111328125,0.06487725358009339,-0.05837830174854025,-0.04308909054417163
1738005560661709300,8.848709228515625,-0.026847090393304823,-0.159697663872689,0.11469718674924224
1738005560671778300,8.8587783203125,-0.1526882235020399,-0.07184841690012253,-0.14570947966375386
1738005560681847300,8.868847412109375,0.030464111846685408,-0.08930886206319555,-0.0627482056621462
1738005560691916300,8.878916259765624,0.057252750051021574,0.0706452151228208,0.0007193358128279214
1738005560701984300,8.888984375,0.06592997750341892,0.3465743900394067,-0.010327549659402574
1738005560712053200,8.89905322265625,-0.30187925253808495,0.04701561633814126,-0.04698081901939585
1738005560722122200,8.909122314453125,0.7974977008908987,0.1693156793065369,-0.8672723711237311
1738005560732190200,8.919190185546874,-0.6815203746706247,0.11295023348405957,-0.08212582782446406
1738005560742259200,8.92925927734375,0.1465712019264698,0.0864117158495821,0.06739135985944886
1738005560752328200,8.939328125,0.06156710611879825,0.11460355364903807,0.12818502022060566
1738005560762396400,8.949396484375,-0.11440905399024486,0.023195212255674412,0.07371938013746403
1738005560772465200,8.959465087890624,0.08999006752669811,0.0054438030557008455,0.09506781831556
1738005560782534400,8.969534423828126,-0.06609013650119304,0.007007010951545089,0.08997584720510057
1738005560792602400,8.979602294921875,-0.023446926560997963,-0.15081743379463441,0.30950013933796433
1738005560802671000,8.989671142578125,-0.04290507574677467,-0.09743576215645298,0.01452040508922655
1738005560812740400,8.999740234375,0.14578443546295164,0.035137547017820174,0.011288760516018374
1738005560822808300,9.009808349609376,-0.2533054835051298,-0.3315799422642216,0.20914136587427928
1738005560832877000,9.019876953125,0.31575638672113415,-0.2130694808371365,-0.2806037699983455
1738005560842945300,9.0299453125,-0.07226268765628338,0.1261377414351329,-0.13682144987173378
1738005560853014300,9.04001416015625,0.0344248321712017,0.37814657272584734,0.09145859657614491
1738005560863083000,9.0500830078125,-0.16071487809121607,0.2644118012679741,0.44050267379786817
1738005560873152300,9.06015234375,0.04503098185956478,0.04748502394817769,0.37286859579030424
1738005560883220200,9.07022021484375,-0.0935328547000885,-0.23751751073207705,0.6230675281148403
1738005560893289200,9.080289306640625,-0.24572189650833606,-0.2686750299367122,0.5903264843121171
1738005560903357200,9.090357177734376,0.30598551881313324,0.20536592072248458,0.2349622915576212
1738005560913426200,9.10042626953125,-0.10955869134962558,0.00798377442867495,0.29360755541296674
1738005560923495200,9.1104951171875,0.06237374632656574,0.07184623407619073,0.33188170168977227
1738005560933563100,9.120563232421874,-0.24423195021152494,-0.08673983355909586,0.5251258074639364
1738005560943632100,9.130632080078126,0.2542097388684749,-0.1429003587934654,0.38966201927885413
1738005560953701400,9.140701416015625,-0.17884148641228675,-0.08246232063667848,0.5142995852841064
1738005560963769000,9.15076904296875,0.14467793552577496,0.03003193097449839,0.2489707057038322
1738005560973838300,9.16083837890625,-0.028601240584254263,-0.03746223623887635,0.08712997452099808
1738005560983907300,9.1709072265625,-0.41181612955033775,-0.2320046107958071,0.2680473812913522
1738005560993975000,9.18097509765625,0.7335042444080114,0.48280700717251746,-0.7396674432128667
1738005561004044300,9.191044189453125,-0.6281985343277454,-0.08308342994339764,0.19398000056697054
1738005561014113300,9.20111328125,-0.06885667860507964,-0.24928704164400695,0.13275389903872273
1738005561024181200,9.21118115234375,0.23729952059984205,0.0038493871708400545,-0.36933687800019976
1738005561034250200,9.221250244140625,-0.04327390905916691,0.12425505122737958,-0.38910296062398697
1738005561044319200,9.2313193359375,-0.008407762861251831,-0.11515718721011653,-0.44546570303272454
1738005561054387500,9.241387451171875,-0.14801964716911314,0.02180386292855255,-0.2865548421561718
1738005561064456200,9.251456298828124,-0.07723755345940589,0.25580647000800816,-0.1606973424345255
1738005561074525400,9.261525390625,0.25779753422737123,0.2373457708943635,-0.2745801440609619
1738005561084593400,9.271593505859375,-0.16822247724235057,-0.14854685851414687,-0.17479966367557645
1738005561094662100,9.281662109375,-0.0880167216271162,-0.03196115917114075,-0.04585808946662582
1738005561104731400,9.2917314453125,-0.15550094283521174,-0.12687370929317549,0.3558705531077459
1738005561114799400,9.30179931640625,0.22606617892384528,0.06720658244364895,-0.14464138464136048
1738005561124868000,9.3118681640625,0.07747486934661865,-0.14021076351646333,0.10698118727812543
1738005561134937300,9.321937255859375,-0.10538111340403557,-0.028448808235209434,0.032919389194448014
1738005561145005300,9.33200537109375,-0.05869535007476806,0.03486833358842414,-0.09987141920500435
1738005561155074300,9.34207421875,-0.022335750448703763,-0.05217156519605778,0.03207424360719742
1738005561165143300,9.352143310546875,0.16096914511322974,0.03745841858028434,-0.12459275874914601
1738005561175211300,9.362211181640625,0.06983984442353249,-0.06992409777403809,0.15671729635503143
1738005561185280300,9.3722802734375,-0.1204939268618822,-0.27717423394108187,0.3213116827607155
1738005561195349200,9.382349365234376,0.0436532637655735,-0.14194310373440383,0.39213900385163725
1738005561205417200,9.392417236328125,-0.21028233433663843,-0.08046584045668131,0.4172858296656981
1738005561215486200,9.402486328125,0.3145037563115358,0.17897044655419886,0.08351234114626423
1738005561225555200,9.41255517578125,-0.1739116287946701,0.015546976224565877,0.19596907375864683
1738005561235623400,9.42262353515625,0.03229074275195598,-0.10915087773371487,-0.044182840597629544
1738005561245692200,9.432692138671875,-0.11645137347280979,0.10163171600895002,-0.11539021964785642
1738005561255761200,9.44276123046875,0.11040098739266395,-0.044870288572250866,-0.3370994728706777
1738005561265829400,9.452829345703124,-0.1757102026492357,-0.005742845367779955,-0.06964488810701296
1738005561275898000,9.462898193359376,0.19913374833464623,0.04812107509570196,-0.01942804174188059
1738005561285967400,9.47296728515625,0.016281272715330124,-0.037171304168016644,0.0539157967811916
1738005561296035300,9.483035400390625,-0.19874971745312212,0.04272475987696089,0.28712475099861623
1738005561306104000,9.49310400390625,0.06670329996347427,0.11237138328333385,0.25718897387497125
1738005561316172000,9.503172119140626,-0.11720131505727767,-0.08096377090830355,0.34732813101615756
1738005561326241300,9.5132412109375,0.20975392654836175,0.1352844130301848,-0.37995380481090396
1738005561336310300,9.523310302734375,-0.17990122459828853,0.06948077445332893,0.1503902487579733
1738005561346378200,9.533378173828124,0.11204641651213168,0.12338082567611708,-0.08908046013480052
1738005561356447200,9.543447265625,-0.06497545325756073,0.05384006466385908,-0.0631682120393496
1738005561366516200,9.55351611328125,0.08511281687915324,0.004073898375406861,-0.2960499618627131
1738005561376584700,9.563584716796875,-0.12482874119579791,-0.14160711324568837,-0.0821681234630756
1738005561386653700,9.57365380859375,0.14855623826384542,0.17053579568602142,-0.23874438564591108
1738005561396722700,9.58372265625,-0.042077392750978465,0.07726670648865401,-0.027477552050258962
1738005561406790700,9.593790771484375,-0.11749825217723846,0.07795214060270227,0.2399361161811277
1738005561416859600,9.603859619140625,-0.047769466912746424,-0.11384307240424676,0.4332577807035297
1738005561426928600,9.6139287109375,0.3162988230347633,0.004552347808424383,-0.061075797204207624
1738005561436996600,9.62399658203125,-0.08906944555044173,0.11038838363941758,-0.12566938413786702
1738005561447065900,9.63406591796875,-0.0341547830581665,0.030674772622413,-0.44533192058522253
1738005561457134800,9.644134765625,0.09033961161673068,0.12783954951749182,-0.22762902606008573
1738005561467202600,9.65420263671875,-0.062440966343879696,0.10264405312296003,-0.24531698723556472
1738005561477271800,9.664271728515626,-0.18559505232572554,-0.02068394182079937,-0.12407565780617295
1738005561487340800,9.6743408203125,0.4053244294434786,0.17492878821427002,-0.4870056644387543
1738005561497408500,9.684408447265625,-0.011575286981463432,0.06301640531138983,-0.8055738937102258
1738005561507477800,9.694477783203125,-0.13127835572659968,0.009797997943521477,-0.28503037253525104
1738005561517546800,9.704546630859374,0.04349310476779938,-0.031220880464161743,-0.47480972480829803
1738005561527614700,9.71461474609375,-0.1823164690464735,0.014768808626034297,-0.23766656381394713
1738005561537683700,9.72468359375,0.11636544875502586,-0.112862354271207,0.06570269895303063
1738005561547751700,9.734751708984374,-0.05302490322291851,-0.040496964292274784,0.26654771731812504
1738005561557820700,9.744820556640626,0.10258709877133369,-0.23400539269158616,0.09985465073329396
1738005561567889700,9.7548896484375,-0.17977730595767497,-0.13950139140440151,0.17030109188100323
1738005561577957600,9.76495751953125,0.13356266727149485,-0.1635124363878742,-0.057109208827908146
1738005561588027000,9.77502685546875,-0.022510522493720053,-0.09524761359556577,-0.09039262044560163
1738005561598095600,9.785095703125,0.10079963083267211,0.017115298686944877,-0.37789252489954234
1738005561608163800,9.795163818359375,-0.05107961437404156,0.2104261815204285,-0.6292293386802077
1738005561618232800,9.80523291015625,0.03195814979672432,0.24748612970188258,-0.2546098806345835
1738005561628301800,9.8153017578125,0.056497547769546505,0.1808455927763134,-0.14621327360058203
1738005561638369800,9.825369873046874,-0.13160218085348604,0.19174433220308273,-0.17853786382321268
1738005561648438800,9.835438720703126,0.22723346913754938,0.1349212422735989,-0.1844237617903389
1738005561658507800,9.8455078125,-0.09671440734565258,-0.01263508453296963,0.02299511853973381
1738005561668575700,9.85557568359375,0.033467385315895076,0.08405296909529715,-0.24638724681558086
1738005561678644700,9.865644775390624,-0.05197860904037952,0.020516690928535534,-0.06849202371088321
1738005561688713700,9.875713623046876,0.08706102833747863,-0.39092634012624616,0.19316842845575882
1738005561698781700,9.88578173828125,-0.007205985856056213,0.15504653186490758,0.06248129835426807
1738005561708851000,9.895850830078125,-0.1454810686022043,0.07873046803143806,0.014452406470489221
1738005561718919000,9.9059189453125,0.2791992186963558,0.16831092271078377,-0.23797036906611174
1738005561728987600,9.915987548828125,-0.18243045081496237,0.16123104745242745,0.11218353256103582
1738005561739057000,9.926056884765625,-0.04806581951081752,0.12068950423290953,0.309126410654746
1738005561749124900,9.936124755859375,-0.045377603340148925,-0.28912177003473044,0.5087926949635148
1738005561759193600,9.946193603515624,-0.022638532787561415,-0.33155203134398903,0.9057553926445543
1738005561769262800,9.956262939453126,-0.07471651054918765,-0.3369301441857591,1.0449080619428306
1738005561779330800,9.966330810546875,0.23712182594537734,0.11933147722007706,0.4237327407827601
1738005561789399600,9.976399658203125,-0.16675182016789913,0.33835761970560996,0.40220337481349705
1738005561799468800,9.98646875,-0.04045475998520851,-0.03657480414616875,0.32557401638031
1738005561809536800,9.996536865234376,-0.15612755030095576,-0.3141568791026249,0.6051424702478573
1738005561819605800,10.006605712890625,0.03466390162408352,0.12548108589099718,0.23885778289251028
1738005561829674800,10.0166748046875,0.12010755789279937,0.1912763128325343,-0.10457306669047102
1738005561839742700,10.02674267578125,-0.11242577121853828,0.15188631426831706,0.31531481696609404
1738005561849811700,10.036811767578126,0.04694236843883991,-0.06215056856255978,-0.027121491454471833
1738005561859879700,10.046879638671875,0.0044470425367355345,-0.14740123214297926,-0.16178585005728527
1738005561869948700,10.05694873046875,-0.1411591137498617,0.24968913790518416,-0.06497269504489377
1738005561880017700,10.067017578125,0.04843991352021694,0.06934925246157217,-0.023315822411060796
1738005561890085600,10.077085693359376,0.032872342032194135,0.19387305132746696,-0.4292729853836819
1738005561900155000,10.08715478515625,-0.19457798472642898,-0.07682092634937726,-0.03487379978140816
1738005561910223600,10.0972236328125,0.09243804520070552,-0.056245915662613694,-0.1556813591697253
1738005561920291600,10.10729150390625,-0.12707973499298095,0.2567490663540549,-0.10395467906380072
1738005561930360800,10.11736083984375,0.018819266760349274,-0.21806327053643762,-0.2124386173213832
1738005561940429600,10.1274296875,-0.08412965106070042,0.2866032296088524,-0.11912309516640379
1738005561950497500,10.13749755859375,-0.03999006508290767,-0.024548060769890433,-0.10707788911825045
1738005561960566800,10.14756689453125,-0.031164369070529937,-0.0013492820173734799,-0.06560823930234182
1738005561970634800,10.157634765625,0.00041442601978778834,0.0548755406248616,-0.26247758180238306
1738005561980703700,10.167703857421875,-0.013499533042311667,-0.06768755719389301,-0.28679798499597237
1738005561990772700,10.177772705078125,-0.009604863691329955,0.021762119845789855,-0.1257723787214607
1738005562000840700,10.1878408203125,-0.04117781356275081,-0.10005937039200216,0.07299545891024171
1738005562010909700,10.19790966796875,-0.15878946298658847,-0.0003106185854412615,0.4411995334882289
1738005562020978700,10.207978759765625,0.01044248355925083,-0.05645116504428442,0.27452963771643113
1738005562031046700,10.218046630859375,-0.0366951151907444,0.04320901799625717,0.23740305403955278
1738005562041115600,10.22811572265625,-0.08561842831373215,-0.11325383780682459,0.515333604506962
1738005562051184600,10.2381845703125,-0.07364566644728184,-0.010908968559838831,0.26247677808478476
1738005562061252900,10.2482529296875,-0.13963701874911785,-0.008950263106962666,0.09023699149247258
1738005562071321600,10.258321533203125,0.06311901173591614,0.3619853827262297,0.17011287583252413
1738005562081389600,10.2683896484375,-0.16223112787306307,0.13322939846282825,0.3334399639824405
1738005562091458800,10.278458740234376,0.09006313276290893,-0.072417996949004,0.35356976535208523
1738005562101527800,10.28852783203125,-0.07828092503249645,-0.22837907724240794,0.5091134513504803
1738005562111595500,10.298595458984375,0.02122574338018894,-0.42402558624949305,0.3894073503980413
1738005562121664800,10.308664794921874,0.04486673120856285,-0.08437118646530434,0.5544246383909136
1738005562131733800,10.318733642578126,0.07658931868374347,-0.33275179905518887,-0.0798639747065492
1738005562141801700,10.3288017578125,-0.0998328316271305,0.18342623865297064,-0.044124790267460044
1738005562151870700,10.33887060546875,-0.045666357153654094,0.06668682831928599,0.12399163278453051
1738005562161940000,10.34893994140625,-0.09325462228059768,-0.2187206384666264,0.21326683004014194
1738005562172007700,10.359007568359376,-0.014995909079909324,-0.27664589921804145,0.014602238153782672
1738005562182076700,10.36907666015625,0.034085809475183484,0.01986135055865161,0.013068530347058549
1738005562192144600,10.37914453125,0.012238719326257705,-0.052448907132982274,0.23417287647929041
1738005562202214000,10.3892138671875,0.0025046762973070145,-0.038873641973338084,-0.22656117763286454
1738005562212282600,10.39928271484375,-0.10358487763702869,0.03505470017311163,-0.2334517225978896
1738005562222350800,10.409350830078125,-0.05824351465404033,0.007419966533454134,-0.4934142528394237
1738005562232419800,10.419419921875,-0.02995382423698902,0.10099995744405314,-0.17672425679629666
1738005562242488600,10.429488525390624,-0.03234802589714527,0.0491793793764431,-0.035576717036508484
1738005562252556800,10.439556884765626,0.0035649990051984785,0.04873726163213141,0.06466938298307359
1738005562262625800,10.449625732421875,-0.11614508400261402,0.06148894001578446,0.20986741512650622
1738005562272694800,10.45969482421875,0.18089023563563822,0.26313177139479665,0.06510241780520883
1738005562282762800,10.4697626953125,-0.12796002495884895,0.08321106577790342,0.3422653312012553
1738005562292831700,10.479831787109376,0.013141805645823477,-0.2097083703735843,0.3823979465600103
1738005562302899700,10.489899658203125,0.0198725752055645,-0.08730071884486824,0.3150619381835684
1738005562312968700,10.49996875,0.08078034063279628,0.2709207995695062,0.22410035874359308
1738005562323037700,10.51003759765625,-0.19619535679519176,-0.16512852981500326,0.42978206741698083
1738005562333106000,10.52010595703125,0.056985623547434805,-0.15585152810486033,0.31239998896531757
1738005562343174700,10.530174560546875,0.11803893492519855,-0.005981480995821766,0.1440843444136437
1738005562353244000,10.540243896484375,-0.12511807953119278,0.2705679858101532,0.10250135671664029
1738005562363311900,10.550311767578124,0.05893909570276737,0.27777205370375885,0.024628688258049078
1738005562373380600,10.560380615234376,-0.11343874765336513,-0.05193772904071957,0.5527891096109524
1738005562383447800,10.57044775390625,0.1255319210290909,-0.1524937969084829,0.2176093527564779
1738005562393517000,10.58051708984375,-0.12182196059525012,-0.025706295460881663,0.5025592804666609
1738005562403585800,10.590585693359374,0.08452712594568729,-0.21803884848123414,0.4938512194845825
1738005562413654000,10.600654052734376,-0.08874795851111411,0.1798071531066671,0.327312749806419
1738005562423723000,10.610722900390625,0.06133505092859268,-0.06984431510267314,-0.13427521772133186
1738005562433792000,10.6207919921875,-0.10131576366126537,0.3001234949119389,0.6146565503831952
1738005562443860000,10.63085986328125,0.0766097769498825,-0.49273354056626556,0.05444809985987376
1738005562453929000,10.640928955078126,-0.013164017477631568,0.2044054781924933,-0.03405502389456378
1738005562463997000,10.650996826171875,-0.026929507979750633,0.05549916611565277,0.549282343599014
1738005562474066000,10.66106591796875,0.008382043898105622,-0.25043858629930765,0.501332478618063
1738005562484135000,10.671135009765624,-0.07706161237061024,0.05404941483191214,0.9598970980029553
1738005562494203100,10.681203125,0.05611351688802242,-0.09488541095335967,0.970745751210302
1738005562504272000,10.69127197265625,-0.027536241701245308,-0.20854875200968234,0.5435905251655727
1738005562514340900,10.7013408203125,-0.0025479309171438217,-0.02265449754167348,0.039105025876685975
1738005562524409000,10.7114091796875,-0.024544658669829366,-0.050636364118568596,-0.26242415284840387
1738005562534477800,10.721477783203126,0.007478373056650161,-0.02015712776798755,-0.3227736450720578
1738005562544547000,10.731547119140625,-0.03307400208413601,0.00532878467417322,-0.013575013997894712
1738005562554615000,10.741614990234375,-0.02424304537475109,0.014955124978371894,-0.11044750254866667
1738005562564684000,10.75168408203125,-0.008081599646806716,0.028814591073989867,-0.14965650938963518
1738005562574752000,10.761751953125,0.011968670213222503,0.07155898266660515,-0.29388165964661167
1738005562584821000,10.771821044921875,-0.051478258302807806,0.06319692667718045,-0.25944477171143515
1738005562594890000,10.781889892578125,0.019599603483080864,-0.008416402825433761,-0.008125589485582896
1738005562604958000,10.7919580078125,-0.03830956465005875,-0.12684601756865158,0.2951846137376502
1738005562615027000,10.80202685546875,0.035761049211025235,-0.05755639547298196,0.2745979719785973
1738005562625096200,10.81209619140625,-0.0055395139485597605,-0.024373571852664463,-0.220481090534199
1738005562635164000,10.822163818359375,-0.04160159193277359,0.15064155663792042,-0.2341391934053972
1738005562645233000,10.83223291015625,-0.05087853884398937,0.03365218099800404,0.06080785328329075
1738005562655301000,10.842301025390626,0.03575871112346649,-0.19135304959686472,-0.14102660081083884
1738005562665370000,10.8523701171875,-0.02036006646156311,0.13414671423714608,-0.4265258421000093
1738005562675438800,10.86243896484375,-0.03532499588131904,0.24011845047809183,0.2747888549081981
1738005562685507000,10.872507080078124,-0.02096270852982998,-0.16149762596674264,0.8630483967531472
1738005562695576000,10.882576171875,0.0038753801286220547,-0.2901371028234251,0.5454194576257839
1738005562705645000,10.89264501953125,-0.002260346147418022,-0.10970056577203795,-0.014616209596919361
1738005562715713000,10.902713134765625,-0.02769815426468849,0.06191306087910197,-0.09970716855400241
1738005562725782000,10.912781982421874,-0.027245734322071075,0.06220716672115959,0.12263471088339574
1738005562735850000,10.92285009765625,-0.0050970308780670165,0.07547620634268969,0.3332326048420742
1738005562745919000,10.9329189453125,-0.019461071795225143,0.02934409027423244,0.6245408886030316
1738005562755988000,10.942988037109375,-0.01167991639971733,-0.004303003556700423,0.29188208332723004
1738005562766056000,10.953055908203124,-0.0037479543566703794,-0.002833647956768982,0.005640426172921434
1738005562776125000,10.963125,-0.012875263664126396,-0.0005368011572863907,0.014430671846005133
1738005562786194200,10.973194091796875,-0.014521277305483818,0.0011055774885695426,0.011708537422714289
1738005562796262100,10.98326220703125,-0.014521277305483818,-0.014305725725507363,0.011418568899657111
1738005562806331000,10.993330810546874,-0.0160164842993021,-0.009993146056286059,0.012338752484496217
1738005562816399000,11.003399169921876,-0.01571662456989288,-0.006549503841856494,-0.001962301632470917
1738005562826468000,11.013468017578125,-0.02095335617959499,-0.008478864469239488,-0.01285392176528694
1738005562836536800,11.023536865234375,-0.01421966401040554,-0.008432321913773194,-0.0022932026708265764
1738005562846605000,11.03360498046875,-0.013470306947827339,-0.010530554568348453,0.014729844305536243
1738005562856674000,11.043674072265626,-0.006437339571118354,-0.010966110141132957,0.024979816950391975
1738005562866742000,11.053741943359375,-0.008681903627514838,-0.012490771558298728,0.022884990962455047
1738005562876811000,11.06381103515625,-0.004792494973540306,-0.0023124051282182334,0.012965403332724236
1738005562886880000,11.0738798828125,-0.012872341054677962,0.000035025647608563304,0.00031051583745284
1738005562896948200,11.0839482421875,-0.024245383462309835,-0.0014166664314689114,0.011619283670105505
1738005562907017000,11.094016845703125,-0.01586567765176296,-0.0009334905909840017,0.013858705760503652
1738005562917086000,11.1040859375,-0.0014998831689357758,-0.0110491807481274,0.01106541036372073
1738005562927154200,11.114154296875,-0.000751110628247261,0.0016658006206387653,0.014228413572441785
1738005562937223000,11.124222900390626,-0.004192190992832184,-0.00446765149992425,0.016592165295407173
1738005562947291000,11.134290771484375,-0.007333996149897575,0.005648728210385889,0.026208294732845385
1738005562957360000,11.144360107421875,-0.014367548048496246,-0.0068297364221885795,0.025995243353920523
1738005562967428900,11.154428955078124,-0.005987842237949371,-0.017291203243122433,0.008808747160865459
1738005562977497000,11.1644970703125,-0.005239654219150543,-0.003760781872202642,0.0017354226575931532
1738005562987566000,11.174566162109375,-0.003743278181552887,-0.005787570425495505,0.0003627232320141047
1738005562997634800,11.184634765625,-0.008231821772456169,-0.007247130717197433,0.004898996688472107
1738005563007703000,11.194703125,-0.021998481318354607,-0.010841392349498345,0.006977730058133602
1738005563017772000,11.20477197265625,-0.004041968867182732,-0.012931391465268097,0.010254014065733645
1738005563027840000,11.214840087890625,-0.01137362692952156,-0.016007246113498696,0.011094903602974954
1738005563037909000,11.224908935546875,-0.021249124255776405,-0.003246078382292762,0.010274547680397518
1738005563047978000,11.23497802734375,-0.011972177344560622,-0.000781186106102541,0.013245966989907902
1738005563058046200,11.245046142578126,-0.012720949885249137,0.0030284946754341943,0.009838393885991536
1738005563068115000,11.255114990234375,-0.013469722425937651,-0.006170039537595585,0.013488872367690783
1738005563078183000,11.265182861328125,-0.009130816438794136,-0.00027505864829290656,0.0056513014766736884
1738005563088252200,11.275252197265624,-0.015863339564204215,-0.0038563694674754513,0.009893745368998497
1738005563098321000,11.28532080078125,0.006282441270351409,-0.010496679698210208,0.010528533857909497
1738005563108388900,11.295388916015625,-0.014817045381665228,-0.013299982749065383,0.017948208130418787
1738005563118458000,11.3054580078125,-0.008681903627514838,-0.009620422020065598,0.028372557811357543
1738005563128526800,11.31552685546875,-0.011674071180820464,-0.007437506756721995,0.014522393833624664
1738005563138595000,11.325594970703126,-0.020503274324536323,-0.007084017143934034,0.0026202746341470627
1738005563148664000,11.3356640625,-0.015266542714834212,-0.0041575398045592005,-0.004395049771305639
1738005563158732000,11.34573193359375,-0.010478139394521713,-0.004959398805932142,-0.011906242818746249
1738005563168801000,11.355801025390624,-0.008382628419995307,-0.004200397132174112,-0.002516405551007483
1738005563178870000,11.3658701171875,-0.013470891469717024,-0.00995812497525476,0.006833684228232596
1738005563188938000,11.37593798828125,-0.003893500307202339,-0.01219415866532363,0.01691354502016911
1738005563199007000,11.386007080078125,-0.004940379011631012,-0.015774309573881328,0.023488660510606132
1738005563209076000,11.396075927734374,-0.0016477672070264815,-0.007294476990262046,0.017488671177136712
1738005563219144200,11.406144287109376,-0.0068862523823976516,-0.010562228348245844,0.022122824650653638
1738005563229213000,11.416212890625,-0.01466799229979515,-0.0031485134590649977,0.024047890412120614
1738005563239281000,11.426281005859375,-0.011076689809560775,0.00255350670798216,0.00830241192379035
1738005563249350100,11.43635009765625,-0.017511106771230696,0.0011090709201758728,0.002651153829600662
1738005563259419000,11.4464189453125,-0.006138064363598823,0.004382617264706641,0.007529310942732263
1738005563269486800,11.45648681640625,-0.009129647395014762,-0.00022974906868766993,0.011603102003573439
1738005563279556000,11.46655615234375,-0.0028442835152149197,-0.00828812310353387,0.02342937263799831
1738005563289624000,11.4766240234375,-0.007034720942378044,-0.009608946211403235,0.02530668113444699
1738005563299693000,11.486693115234376,-0.010626023432612418,-0.003730158405075781,0.03650683064360637
1738005563309762000,11.496761962890625,-0.014966098463535308,-0.002230330035067163,0.024418993313412646
1738005563319830000,11.506830078125,-0.020054361513257027,-0.0033969763613771646,0.018162681998161134
1738005563329899000,11.51689892578125,-0.015565817922353743,-0.002716478717350401,0.002717072372394614
1738005563339967000,11.526967041015626,-0.01676291875243187,0.0026633557240478695,-0.0027477768962678962
1738005563350036000,11.537035888671875,-0.009281038564443587,0.0009512454433832317,0.0026186124000232664
1738005563360105000,11.54710498046875,-0.0035948096215724945,-0.005893277555983513,-0.0050389691314543595
1738005563370173000,11.5571728515625,-0.014219079488515854,-0.0153408774595242,0.0025875060173508246
1738005563380242000,11.567241943359376,0.006579962912201881,-0.0139692009472521,0.015380954883230151
1738005563390310700,11.577310546875,0.006131634622812271,-0.015292325610062106,-0.0010364623416913672
1738005563400379000,11.58737890625,-0.00838379746377468,-0.022506056381156665,-0.00594489814536646
1738005563410448000,11.59744775390625,-0.0035959786653518675,-0.015840406213188545,-0.016269697583612287
1738005563420515800,11.607515869140625,-0.006738952866196632,-0.00549645569154527,-0.0028183236651180775
1738005563430584800,11.617584716796875,-0.017961188626289367,-0.0019802414312493056,-0.0036518884124292525
1738005563440653800,11.62765380859375,-0.011377134060859679,-0.005935221568145789,0.013300417715549701
1738005563450722000,11.63772216796875,-0.009731704941391944,0.003855876277131028,0.021036543234309646
1738005563460790800,11.647790771484376,-0.006439677658677101,-0.004524747415445745,0.022174545704736374
1738005563470858800,11.657858642578125,-0.003297287979722023,-0.015154967532563022,0.017566668316791764
1738005563480928000,11.667927978515625,-0.0070388125956058496,-0.013493651290796696,0.00938486883167643
1738005563490996700,11.677996826171874,-0.015569325053691864,-0.026396743676764887,-0.004135980993299745
1738005563501064700,11.688064697265625,-0.008237666991353034,-0.01649080554647371,-0.007934320680203381
1738005563511134000,11.698134033203125,-0.008387889117002487,-0.011579620663286187,-0.0003153187350893859
1738005563521202000,11.708201904296875,-0.001654196947813034,-0.00351363414414227,0.0017549013929092324
1738005563531271000,11.71827099609375,-0.0003074585139751434,-0.003998892343859188,0.003585562302614562
1738005563541340000,11.72833984375,-0.014372808745503425,0.0016073118990520014,0.014257777805888326
1738005563551407900,11.738407958984375,-0.014822306078672408,-0.006390815281961113,0.021377997632720507
1738005563561476900,11.748476806640625,-0.007790507745742798,-0.004980870852223597,0.03175488230958581
1738005563571545900,11.7585458984375,-0.0052460839599370954,-0.005509127943450585,0.03689462666808394
1738005563581613800,11.76861376953125,-0.007640870141983031,0.0018732008602004497,0.04462806818105746
1738005563591682800,11.778682861328125,0.00029050737917423245,0.005792456663167104,0.022131222586240618
1738005563601750800,11.788750732421875,-0.006143325060606003,0.0011098015725379809,-0.004552899222628912
1738005563611820000,11.798820068359374,-0.009584989947080612,-0.017596241471148095,-0.018969399837742092
1738005563621888800,11.808888671875,-0.007190203765034675,-0.01868131046122871,-0.01702262913454324
1738005563631956700,11.818956787109375,-0.014521861827373504,-0.008263614283362404,0.00757273110099486
1738005563642026000,11.82902587890625,-0.01332476099729538,-0.015615789977344684,-0.003076674348849337
1738005563652094000,11.839093994140624,-0.009883680632710456,-0.008881864912714808,0.00039089444715064017
1738005563662162700,11.84916259765625,-0.016018822386860847,-0.004855162113322876,0.003961912201181985
1738005563672232000,11.85923193359375,-0.015421441015601157,0.0007509279651567339,0.0064460685835569164
1738005563682300000,11.8692998046875,-0.014971943682432173,-0.012960699758143164,0.0054446067732991646
1738005563692369000,11.879368896484374,-0.014672668474912642,-0.013507725481921806,0.005376238261803518
1738005563702436900,11.889436767578125,-0.007639701098203658,-0.006174578715395182,0.01869538807728677
1738005563712505900,11.899505859375,-0.002103109759092331,0.005206541967415251,0.0252161259073182
1738005563722574800,11.909574951171875,-0.0037479543566703794,-0.005594075413700193,0.028004895826033317
1738005563732642800,11.919642822265626,-0.01257657297849655,-0.006941759129031561,0.033606209264695645
1738005563742711800,11.9297119140625,-0.010032733714580536,-0.013074170069978571,0.023712014087836724
1738005563752780800,11.93978076171875,-0.006890344035625457,-0.01646673968429677,0.011341978265799116
1738005563762848800,11.949848876953125,-0.010332593443989754,-0.009812597291031852,0.001913643610087456
1738005563772918000,11.95991796875,-0.0113806411921978,-0.007979294616379775,-0.010786809193115914
1738005563782986000,11.969986083984375,-0.010034487280249594,-0.0062997759976424275,0.00827813143248204
1738005563793054700,11.9800546875,-0.004348258337378502,-0.0019769717619288712,0.045526103866170155
1738005563803124000,11.9901240234375,-0.00943652138710022,-0.021719582178583368,0.09162919476954266
1738005563813192000,12.00019189453125,-0.02230535531044006,-0.12924597311615943,0.0350777202890953
1738005563823260700,12.0102607421875,0.006873392900824547,0.011481571682868525,-0.06940471810901072
1738005563833329000,12.020328857421875,0.0019353519767522811,0.04366651140621398,-0.030467500247014685
1738005563843398000,12.03039794921875,-0.019462825360894203,0.0625201736265095,0.06793133022135589
1738005563853466600,12.040466552734374,0.011512743139266967,0.010895556522416881,0.08628147706603631
1738005563863534800,12.050534912109375,-0.02365267826616764,-0.016261577067594044,-0.06598972203375306
1738005563873603800,12.060603759765625,-0.0052460839599370954,-0.0009756035665050148,-0.03664210636187345
1738005563883671800,12.070671875,-0.011529109752178192,-0.00010723236729390919,0.0013316778620239347
1738005563893740800,12.08074072265625,-0.0025496844828128812,-0.005753827986097894,0.008704189666203456
1738005563903809800,12.090809814453126,-0.016315759506821632,-0.012873405067180283,0.013218373446795157
1738005563913878000,12.1008779296875,0.0031371289819478987,-0.02120676468508318,0.009194033851136919
1738005563923946800,12.11094677734375,-0.006139817929267883,-0.025057900855015032,-0.0075669954799523105
1738005563934014700,12.1210146484375,-0.017062778481841085,-0.015084975602850317,-0.012033082927163923
1738005563944084000,12.131083984375,-0.006139817929267883,-0.00403134244189132,-0.015289720377733464
1738005563954152700,12.141152587890625,-0.013172785305976866,-0.0021227734407875684,-0.0018324144753743892
1738005563964220700,12.151220703125,0.00672901599407196,-0.00207829497824423,-0.0013552128595940302
1738005563974290000,12.1612900390625,-0.01287292557656765,-0.00906013495591469,0.008721207016374683
