Timestamp,Acc x (m/s^2),Acc y (m/s^2),Acc z (m/s^2),Gyro x (rad/s),Gyro y (rad/s),Gyro z (rad/s),Beccheggio/Pitch (rad/s),Rollio/Roll (rad/s),Imbardata/Yaw (rad/s),Mag x (microTesla),Mag y (microTesla),Mag z (microTesla),Altitudine (m),Pressione (milliBar)
0.060045654296875,-0.05644194512479,0.0196901678433641,0.022236381727457,-0.0538611486554145,0.154163122177124,0.0193985365331172,0.0233722706931189,0.0631266357110953,-0.8980212772325634,22.055721282958984,21.268310546875,-36.84732055664063,-0.010276815211408446,1007.7063585063303
0.070114501953125,-0.0252439660456031,-0.0090601440890692,0.0468114355355501,-0.0386561006307601,0.1114902272820472,0.0149593129754066,0.022958142427288,0.0644185127985075,-0.8979998999736796,22.38457679748535,21.202056884765625,-36.824127197265625,-0.010461748506293203,1007.7063829199665
0.08018359375,-0.0098972707666456,-0.0688400197312235,0.0799012197107076,-0.031349029392004,0.0620179548859596,0.0209972653537988,0.0226452929110091,0.0652048311898434,-0.8977959267012804,22.309181213378903,21.67650604248047,-36.942169189453125,-0.010646686285278992,1007.7064073341948
0.090252685546875,0.0160941526453942,-0.0802453387069515,0.0946913770854473,-0.0350050143897533,0.0278999339789152,0.0280858036130666,0.0223519524011988,0.0655761389187544,-0.8978004412810477,22.560327529907227,21.77672576904297,-36.399200439453125,-0.010831624064264782,1007.706431748423
0.10032177734375,0.0436429615672677,-0.0502635122181847,0.0645247868806123,-0.0527075752615928,0.0068262992426753,0.0285369791090488,0.0219454027205567,0.0656198495755774,-0.8977792340887049,22.54016494750977,20.93181610107422,-36.35025024414063,-0.011016561843250571,1007.7064561626513
0.1103896484375,0.0271605402566492,-0.0219781143837608,0.0139554601162672,-0.0680638924241066,-0.0003109727986156,0.0330105572938919,0.0213810907078337,0.0655601436104067,-0.897656155221923,22.359434127807617,21.3291015625,-36.579010009765625,-0.011201477201731187,1007.7064805739197
0.120458740234375,0.0028167379211634,0.0059849013621918,-0.0584703091472387,-0.0765132382512092,0.0123300729319453,0.0435875542461872,0.0206770722343807,0.0655543582328541,-0.8973488065880969,22.487531661987305,21.055030822753903,-36.806427001953125,-0.011386414980716977,1007.7065049881479
0.130527587890625,0.0120243459232151,0.0353535643886774,-0.1670084252774715,-0.0699416249990463,0.009064239449799,0.0482587404549121,0.0199638083489876,0.0656217339656122,-0.8968888168785846,22.53167533874512,20.83749389648437,-36.55581665039063,-0.011571348275601731,1007.7065294017842
0.1405966796875,0.0190578247565776,0.0569327243164181,-0.3489624907523393,-0.0430816821753978,-0.0178250651806592,0.0534584932029247,0.0194175837187913,0.0655444989626702,-0.8964302265242702,22.530614852905277,20.94931030273437,-36.833099365234375,-0.01175628605458752,1007.7065538160125
0.15066552734375,0.0336647345189005,0.0428218179101124,-0.4383773887395858,-0.0025409134104847,-0.0315616503357887,0.0569227300584316,0.0192298567396916,0.0652595521877592,-0.8958581639613793,22.37053680419922,20.945655822753903,-37.32980346679688,-0.011941219349472275,1007.7065782296488
0.160734619140625,-0.024385814846307,0.0656514345566742,-0.3562514787167311,0.0293007008731365,-0.0186607018113136,0.0595111958682537,0.0194521557437931,0.0649989220123307,-0.89537110692786,22.39031982421875,20.77582550048828,-37.098541259765625,-0.012126157128458066,1007.7066026438771
0.170803466796875,-0.0883255683805793,0.0822759860180318,-0.2085924815535545,0.0426575168967247,0.0011244555935263,0.0575572364032268,0.0199115167769384,0.0649122978787417,-0.8948673304255479,22.39173698425293,20.62360382080078,-36.974945068359375,-0.012311090423342821,1007.7066270575133
0.18087255859375,-0.0950861485566943,0.057586676446814,-0.0804126763641834,0.043778833001852,0.0269644185900688,0.0537397637963295,0.0204152511307496,0.0650839496914944,-0.8943730929457392,22.488615036010746,20.66039276123047,-36.82638549804688,-0.01249602820232861,1007.7066514717416
0.190941650390625,-0.0920773221295327,0.0141080020631663,-0.0358452203631401,0.0422043725848197,0.0404954068362712,0.0538883656263351,0.0209103522717626,0.06543474434841,-0.8939811022660189,22.30003929138184,20.78720092773437,-36.771820068359375,-0.0126809659813144,1007.7066758859698
0.201009521484375,-0.0986287895996123,-0.0149471380347386,-0.0020797288835048,0.0363080501556396,0.044491671025753,0.0552648417651653,0.0213350999835229,0.065844978403075,-0.8935279273126169,22.708345413208008,20.815650939941406,-36.906829833984375,-0.012865881339795014,1007.7067002972383
0.21107861328125,-0.0796256176397204,-0.0526430642984807,0.0494435376048088,0.0292179174721241,0.0604448094964027,0.053107414394617,0.0216874327256969,0.0663503130022821,-0.8930574600013856,22.719486236572266,20.74047088623047,-36.684478759765625,-0.013050819118780806,1007.7067247114666
0.221147705078125,-0.0932521380625665,-0.0566107623530551,0.0690302816063165,0.0202980712056159,0.069285824894905,0.0512457340955734,0.0219390286608222,0.0669788095273744,-0.8926067226641126,22.69106674194336,20.669166564941406,-36.901214599609375,-0.013235756897766595,1007.7067491256947
0.231216552734375,-0.1013802802648395,-0.0309998261585831,0.0785386991858482,0.0216307174414396,0.0767304152250289,0.0501320026814937,0.0221703030317771,0.0676877072285205,-0.8921695371887297,22.773962020874023,20.723114013671875,-36.830108642578125,-0.013420690192651349,1007.706773539331
0.241285400390625,-0.066458531422168,-0.0086529515276663,0.0826543178111314,0.0214940756559371,0.0676362439990043,0.0484369285404682,0.0223891667317218,0.0684012867877472,-0.8916895235582609,22.859994888305664,20.552566528320312,-36.813018798828125,-0.013605623487536104,1007.7067979529673
0.2513544921875,-0.0855110954817384,0.0058057088703848,0.0688116704195737,0.0189201310276985,0.0441386476159095,0.0436054244637489,0.0225818495074115,0.0688961102158542,-0.8912858154506653,22.663311004638672,20.48917388916016,-36.77365112304688,-0.013790561266521895,1007.7068223671956
0.261423583984375,-0.0695155809052288,0.0163828516599722,0.0473427659332752,0.0095388768240809,0.0218695811927318,0.0377423241734504,0.0227296719558329,0.0691733374709348,-0.890932310968387,22.609113693237305,20.406944274902344,-36.356781005859375,-0.013975499045507683,1007.7068467814238
0.27149267578125,-0.0266859084822237,0.0218143386567942,-0.0183779527336359,-0.0004554335027933,-0.0028762458823621,0.032778725028038,0.0227800026557738,0.0692006139667143,-0.8905390062208309,22.92738914489746,20.304473876953125,-36.386016845703125,-0.014160436824493475,1007.7068711956521
0.2815615234375,-0.0024800533127039,0.0243972312894649,-0.0590840571314096,-0.0168238952755928,-0.018671877682209,0.028227811679244,0.0227229379093864,0.0690052593272834,-0.8902860372805356,22.617019653320312,20.37781524658203,-36.47506713867188,-0.01434537011937823,1007.7068956092884
0.29162939453125,-0.0381380805406719,0.0406423367128707,-0.1073486140847206,-0.0157935172319412,-0.0286094639450311,0.0193946398794651,0.022563637431656,0.0687341493911181,-0.8899864526964691,22.9117488861084,20.26520538330078,-36.558868408203125,-0.014530285477858843,1007.7069200205568
0.30169873046875,-0.0632529403138905,0.0293887924990616,-0.1549906552255153,0.0040707951411604,-0.0305196847766637,0.0153622236102819,0.0225452406731729,0.068379771861406,-0.8898815210872175,22.634334564208984,20.45874786376953,-36.511505126953125,-0.014715227740945669,1007.7069444353771
0.311767333984375,-0.0913119637802243,0.0228364847787655,-0.1005108770191669,0.0166334584355354,-0.0161822903901338,0.0092324260622262,0.0226705789855022,0.0680971504805014,-0.8898500349324618,22.536460876464844,20.42025756835937,-36.828216552734375,-0.014900156551729387,1007.7069688484214
0.321836669921875,-0.095008407145366,0.0380724496922455,-0.0651589931309223,0.0226422883570194,-0.0051086652092635,0.0032279216684401,0.0228814999459479,0.067970542964313,-0.8899443385898501,22.52452087402344,20.685699462890625,-36.624908447265625,-0.015085098814816214,1007.7069932632415
0.331905517578125,-0.0857739842016249,0.0107504169972613,-0.0419908835113048,0.0304661225527524,-0.0048697795718908,0.0003759427927434,0.0231625163448139,0.0679141980136983,-0.8900100145526236,22.553466796875,20.42742919921875,-36.65640258789063,-0.015270032109700966,1007.7070176768779
0.341974609375,-0.0647510699171572,-0.0244740045864135,-0.0314911168068647,0.0234374050050973,-0.0170908607542514,0.0024908292107284,0.0234311724804191,0.0677847012480012,-0.8900727637139082,22.760595321655277,20.5897216796875,-36.731781005859375,-0.015454969888686757,1007.7070420911061
0.352043701171875,-0.0590018587406724,-0.0166536862242966,-0.0207674782186746,0.0181933753192424,-0.0231663286685943,-0.0022021932527422,0.0236335844286726,0.0675644143585467,-0.8901955126194108,22.69219970703125,20.698745727539062,-36.77438354492188,-0.015639907667672547,1007.7070665053344
0.362112548828125,-0.0885595963321626,0.0249594500157982,0.0051829555958509,0.0137836504727602,-0.0071951504796743,-0.0044023711234331,0.0237723715515563,0.0674197561686807,-0.8902741400377346,22.81598472595215,20.50708770751953,-36.782318115234375,-0.0158248409625573,1007.7070909189706
0.372181640625,-0.1159540914751589,0.02469427800728,0.0639069472432136,0.0110480524599552,0.0281966626644134,-0.0034180670045316,0.0238674272561899,0.0675128041586588,-0.8903919580938513,22.547630310058597,20.332550048828125,-36.937042236328125,-0.016009778741543093,1007.7071153331989
0.38225048828125,-0.1394389388937503,0.0343325142452493,0.0650894350260496,0.0186567027121782,0.0582815930247306,0.0023801675997674,0.023995799255546,0.0679405142759594,-0.8904318579522299,22.59720230102539,20.262115478515625,-36.934173583984375,-0.016194712036427847,1007.7071397468352
0.392318603515625,-0.1157924711726605,0.0624241430732421,0.0156079034984111,0.0323866307735443,0.0492777116596698,0.0049855383113026,0.0242206418122614,0.068460662853752,-0.8904846041912463,22.566282272338867,20.36882781982422,-36.84298706054688,-0.016379631879009496,1007.7071641586956
0.4023876953125,-0.0623690701514482,0.0254250034346245,-0.0495393991947174,0.0420508757233619,0.0407070070505142,0.008260915055871,0.0245830214099479,0.0688587738139217,-0.890480303729077,22.60661506652832,20.284019470214844,-36.348052978515625,-0.016564569657995288,1007.7071885729239
0.41245654296875,-0.0484847755752503,-0.0283945572973228,-0.0415782110571861,0.0439342632889747,0.0528363734483718,0.007331205997616,0.0250154939646101,0.0693217896601774,-0.890454804786154,22.70664596557617,20.2578125,-36.685333251953125,-0.01674950295288004,1007.7072129865601
0.422525634765625,-0.0218646258056163,-0.0110664241438731,-0.0702782358407974,0.0376965254545211,0.041051011532545,0.0081849042326211,0.0254398350800597,0.0697831132502614,-0.8905079391604184,22.598512649536133,20.45221710205078,-36.64956665039063,-0.01693444073186583,1007.7072374007884
0.432594482421875,0.017827990700677,0.0055514966472983,-0.0724877285838127,0.0312053337693214,0.0190072320401668,0.0125293191522359,0.0257917331073238,0.0700399209281057,-0.8904954569544399,22.64688873291016,20.33212280273437,-36.68276977539063,-0.017119374026750584,1007.7072618144247
0.44266357421875,0.0326574571724981,0.0124832869381643,-0.1052080949246883,0.0333146601915359,-9.9251512438e-05,0.013061880134046,0.0261019550262742,0.070069522712003,-0.8904685242350314,22.7371768951416,20.42587280273437,-36.605377197265625,-0.017304311805736376,1007.707286228653
0.452732666015625,0.0478966004237532,0.0249213099624961,-0.1409907714456319,0.0399595163762569,-0.0108043598011136,0.0054242014884948,0.026454874809676,0.0699655030125095,-0.8904659961544346,22.81064224243164,20.461769104003903,-36.800140380859375,-0.017489249584722165,1007.7073106428811
0.462801513671875,0.0355045902319252,0.0252035427036695,-0.1244686757117509,0.0453303717076778,-0.0232748128473758,0.0059945243410766,0.0268652711903816,0.0697185865729664,-0.890552077691047,22.84306907653809,20.77532958984375,-36.487091064453125,-0.01767418287960692,1007.7073350565174
0.47287060546875,0.0247989987570792,0.0189548393061384,-0.0951034650176763,0.045514665544033,-0.0096578039228916,0.0033705118112266,0.0272963524793309,0.0694982002960451,-0.8906337129257581,22.705869674682617,20.4912109375,-36.46676635742188,-0.01785912065859271,1007.7073594707457
0.482939453125,0.0077710723929107,0.0273547111218795,-0.0471732545852661,0.0484668388962745,0.0149977840483188,0.0035159462131559,0.0277258152820065,0.0694805661008692,-0.890714228549282,22.693565368652344,20.425575256347656,-36.36740112304688,-0.018044053953477465,1007.707383884382
0.493007568359375,-0.01231368425861,0.0175321678255684,0.0066267246633768,0.0384757220745086,0.0202703103423118,0.0030435011722147,0.0281739526766932,0.0696225637582353,-0.890775720607814,22.68956184387207,20.306190490722656,-36.38491821289063,-0.018228973796059117,1007.7074082962424
0.503076416015625,-0.0043148675244301,0.0144854753397405,0.0240144973158836,0.0309097450226545,0.0317970886826515,0.0033399001695215,0.0285195491349092,0.0698764342942923,-0.8908128648057514,22.667102813720703,20.226844787597656,-36.541290283203125,-0.01841390709094387,1007.7074327098787
0.5131455078125,-0.0117095078203827,-0.0083054715305566,0.0636918431878089,0.0233461000025272,0.0245013609528541,0.0033034146763384,0.0287743589166585,0.0701740735037012,-0.8908244223075938,22.91603660583496,20.294448852539062,-36.81460571289063,-0.01861390447896859,1007.7074571242349
0.52321435546875,0.00215637431629,-0.0102658300844021,0.0621720862746238,0.0219828896224498,0.0067631746642291,0.0051645725034177,0.0290017949990082,0.0703327167394622,-0.8908024535155276,22.839311599731445,20.16259765625,-36.249786376953125,-0.018825313258570668,1007.7074815380961
0.53328369140625,0.0075323682662099,0.0044455812320113,0.0814414348900318,0.0201687440276145,-0.0143730025738477,0.002108328975737,0.0291897681304169,0.0703036258959126,-0.8907367867159991,22.973072052001957,20.08074188232422,-36.105804443359375,-0.01903673229028368,1007.7075059531413
0.5433525390625,-0.0060929100476205,0.0233836520664393,0.1132230590760707,0.0142673244699835,-0.0152538605034351,0.0008645029738545,0.0293509610533438,0.0701517700348688,-0.8907620838986947,22.81863784790039,20.20182037353516,-36.477447509765625,-0.01924814106988576,1007.7075303670025
0.553421630859375,-0.0122130003631114,0.0275668925678357,0.1123918689489364,0.016647657379508,-0.0174530986696481,-0.0017757548484951,0.0294876785358451,0.0699974793879966,-0.8907994045625699,22.729328155517575,20.10730743408203,-36.377044677734375,-0.019459554975543306,1007.7075547814557
0.563490478515625,-0.0045841859851032,0.0597763319781981,0.103466804215312,0.0163897611200809,-0.0091822203248739,-0.0057427287101745,0.0296288782835846,0.0698603259482668,-0.8908888118663594,22.675561904907227,20.04803466796875,-36.496856689453125,-0.019670963755145383,1007.707579195317
0.5735595703125,-0.0008300941485911,0.0503909197238273,0.099272275134921,0.0145407281816005,0.0007218094542622,-0.003612732514739,0.0297552629991381,0.069813333712051,-0.890952278641592,22.60772132873535,19.919273376464844,-36.26144409179688,-0.01988237766080293,1007.7076036097701
0.583628662109375,-0.0183614399902522,0.0386901066665537,0.0948918680936098,0.0149806831032037,0.0019508581608533,-0.0118743907660245,0.0298896858843774,0.0698160429837902,-0.890988066432929,22.828662872314453,19.92665100097656,-36.55807495117188,-0.020093791566460475,1007.7076280242234
0.5936962890625,-0.0153040982462465,0.0623469313848763,0.1037649103790521,0.0113302879035472,0.0178051888942718,-0.0129151549190282,0.0300132445625021,0.069916818084309,-0.8911124357173665,22.7056884765625,19.931251525878903,-36.656768798828125,-0.020305174715785215,1007.7076524351247
0.603765625,-0.0217586081478744,0.050918286332488,0.1359112762242555,0.0003303484991192,0.0256396252661943,-0.0103768277913331,0.0300685757505208,0.0701485371696547,-0.8912133277833051,22.925249099731445,20.09857177734375,-36.535247802734375,-0.020516593747498226,1007.70767685017
0.613834716796875,-0.0154977211222052,0.0297898658469319,0.1351677643805742,-0.0084937699139118,0.0196299366652965,-0.0073927557095885,0.0300197684177371,0.0703804318974744,-0.8913244179248484,22.951465606689453,20.27210998535156,-36.81906127929688,-0.020728007653155772,1007.7077012646231
0.623903564453125,0.0389816917579621,0.0221102893960662,0.094949151238799,-0.0134174413979053,0.027278259396553,-0.0007665157318115,0.0298774741294116,0.070608514598203,-0.8913480139020404,23.03709602355957,20.24748992919922,-36.816802978515625,-0.020939416432757853,1007.7077256784843
0.63397265625,0.0325245515078306,0.0338493338381871,0.0564221444457769,-0.0151905752718448,0.0510754697024822,-0.0002639768645167,0.0297164195412256,0.0709931006985142,-0.8913618031507428,22.938825607299805,20.28399658203125,-37.025909423828125,-0.021150830338415395,1007.7077500929375
0.64404150390625,0.0163676358245313,0.0505030383287928,0.0431628499001264,-0.0101930135861039,0.0711034163832664,0.0005753985606133,0.0295529821567004,0.0716198347810212,-0.8912722128237524,22.96495246887207,20.1424560546875,-36.655792236328125,-0.021362239118017476,1007.7077745067987
0.654110595703125,0.0299415492773056,0.0641416693145409,-0.0309194543987512,0.003383781760931,0.0608406588435173,-0.003301098709926,0.0294941240105298,0.0722975414944573,-0.8912225869665259,23.043161392211918,20.021995544433597,-36.458404541015625,-0.021573653023675022,1007.707798921252
0.6641796875,0.0435392819970846,0.0213754540491849,-0.10052373650074,0.0040754042565822,0.03158450871706,-0.0097025390714406,0.0295124642275495,0.072743420217913,-0.8912082786303784,23.095766067504883,19.945289611816406,-36.54244995117188,-0.021785066929332568,1007.7078233357051
0.67424853515625,0.0366788216430693,-0.0500467641949653,-0.031596915268898,0.0034647416323423,-0.0159547850489616,-0.0134522691369056,0.0295231298627704,0.0728176339778698,-0.8912667542169748,22.886720657348636,19.8985595703125,-36.407745361328125,-0.021996475708934645,1007.7078477495664
0.684317626953125,0.0148212831653654,-0.0156896817640401,0.0804231977581977,-0.0034427000209689,-0.0436250269412994,-0.0171082578599452,0.029517056574106,0.0724819566270212,-0.8913859819737417,22.864917755126957,19.91656494140625,-36.678131103515625,-0.02220788961459219,1007.7078721640196
0.694386474609375,0.0182583449419587,0.004283303342387,0.1389946291923522,-0.016995258629322,-0.0434607118368148,-0.0152994375675916,0.0293869257218311,0.0720229878201497,-0.8915054979501624,22.997596740722656,20.041030883789062,-36.49868774414063,-0.022419298394194268,1007.7078965778808
0.70445458984375,-0.0022280513130128,-0.0209015346608124,0.1304647012561559,-0.0310315266251564,-0.0262637287378311,-0.008221361786127,0.0291380184298836,0.0716996397967503,-0.8915824700795943,22.70147132873535,19.87329864501953,-36.43771362304688,-0.022630691795629942,1007.7079209899662
0.7145234375,-0.0190192463118582,-0.0251740608808584,0.0664624769449234,-0.0334078669548034,-0.0042569637298583,-0.007707105949521,0.0287937499310751,0.0715644331260214,-0.8916406475921297,22.759469985961918,19.979415893554688,-36.598419189453125,-0.022842100575232022,1007.7079454038274
0.724592529296875,-0.009491904836148,-0.0540618633215315,-0.0093301384031772,-0.0320057719945907,0.0084784962236881,-0.0018199482001364,0.0284418650388173,0.0715993828904255,-0.891642315609976,22.8305778503418,19.917144775390625,-37.089263916015625,-0.02305351448088957,1007.7079698182806
0.73466162109375,-0.0077383391670882,-0.0367710665037855,-0.014116203635931,-0.0310792606323957,0.0148487770929932,0.0023875799961388,0.0281144516443711,0.0717254487976399,-0.8914583884977993,22.95347023010254,19.602027893066406,-36.457550048828125,-0.02326492838654711,1007.7079942327338
0.74473046875,0.0040688568741083,0.0013117036530748,-0.0015922376275062,-0.0207743421196937,0.0172795169055461,0.0042705461382865,0.0278473148081374,0.0718946997331131,-0.891307937240409,22.879810333251957,19.7703857421875,-36.576019287109375,-0.02347633716614919,1007.7080186465951
0.754799560546875,-0.0206887138940393,-0.0108274642888456,0.002661328163743,-0.0155468238517642,0.0109755471348762,0.0069494200870394,0.0277080450336679,0.072069671981286,-0.8911440612296136,22.772750854492188,19.71378326416016,-36.65524291992188,-0.023687751071806738,1007.7080430610482
0.76486865234375,-0.0304950184416025,-0.0224378956489264,-0.0046650692015886,-0.0211510583758354,0.0013129087164998,0.0003497409634292,0.0275463864415761,0.072123428916929,-0.8909523186275724,23.02664375305176,19.69374084472656,-36.85812377929688,-0.023899164977464284,1007.7080674755014
0.7749375,-0.0011539192754775,-0.0082336484033614,-0.0384136095464229,-0.0240515060722827,-0.0052312770858407,-7.5299758464e-05,0.0273315302146129,0.0721064546982297,-0.8908730138105921,22.85212516784668,19.897926330566406,-36.47329711914063,-0.024110573757066357,1007.7080918893627
0.7850068359375,0.0112026542767882,-0.0353792285528965,-0.05940028347373,-0.0273638628423213,-0.0115940300747752,0.0016095279715955,0.0270963213858428,0.0720359496433046,-0.8907999301828171,22.704669952392575,19.7576904296875,-36.750091552734375,-0.024321992788779372,1007.7081163044078
0.795075439453125,-0.0123510205943137,-0.0480208478579297,-0.0197281982988119,-0.0323524959385395,-0.0123977717012166,-0.0012206134852021,0.0268142116182186,0.071903866168631,-0.8907641023438617,22.87912368774414,20.11567687988281,-36.74508666992188,-0.024533396442325984,1007.7081407176771
0.80514453125,-0.0137973469451069,-0.0291159303744323,-0.0130108727425336,-0.03763098269701,-0.0011031399480998,-0.001539057586342,0.0264835597983955,0.0718368979747213,-0.890782403822151,22.55653953552246,19.98541259765625,-36.386505126953125,-0.02474481034798353,1007.7081651321303
0.815212646484375,-0.0060499476887285,-0.0107380872386507,0.0111187753856182,-0.0305776037275791,0.014759711921215,0.0030386499129235,0.0261601996824303,0.0719009459286223,-0.8907270606812617,22.68709945678711,19.8863525390625,-36.38644409179688,-0.024956203749419203,1007.7081895442155
0.825281494140625,-0.0025971768863499,-0.0083162669192068,-0.0198982941687107,-0.012266076169908,0.0114889834076166,0.0051324977539479,0.0259493221806822,0.072037150202821,-0.8907561950290422,22.467622756958008,20.12775421142578,-36.616058349609375,-0.025167612529021284,1007.7082139580768
0.8353505859375,-0.0058794134274125,0.0110188038761727,-0.0805517925739288,0.0060868319123983,0.0058494736440479,0.0060401032678782,0.0259373054717985,0.0721126415229109,-0.8907392196236148,22.647851943969727,20.152984619140625,-36.496429443359375,-0.025379026434678827,1007.70823837253
0.845419677734375,-0.0083991411633789,0.0205001325193792,-0.0758159962236881,0.0133480839431285,0.0050179050303995,0.0044475183822214,0.0260649400121159,0.0721410257686988,-0.8906256353803407,22.953840255737305,19.988052368164062,-36.720489501953125,-0.025590440340336373,1007.7082627869833
0.855488525390625,-0.0289851984005421,0.0125214817903935,-0.0317845467954874,0.005520787090063,0.0158929228782653,0.0028544147498905,0.0261821708615784,0.0722571323212496,-0.8905140883856744,22.993486404418945,19.9490966796875,-36.466217041015625,-0.025801849119938453,1007.7082872008444
0.8655576171875,-0.0197637810688465,0.010562474943418,0.0237538005530834,-0.0050354935228824,0.0154827386140823,0.0053677377291023,0.0261960344422061,0.0724312381594679,-0.8903852276523491,23.209487915039062,20.228050231933597,-36.29702758789063,-0.026013263025596,1007.7083116152977
0.87562646484375,0.0212244282059371,0.0071766318974085,0.0883674347609281,-0.019972363486886,0.002577859442681,0.0049456269480288,0.0260948816918382,0.0725088548706267,-0.8902457724932437,22.96444320678711,19.993431091308597,-36.14498901367188,-0.026224671805198073,1007.7083360291589
0.885695556640625,0.0644550826452672,-0.0142573839385993,0.1266232233971357,-0.0251449570059776,-0.0103287976235151,0.00839121080935,0.025877533846522,0.0724487240872283,-0.8900589288680721,23.10378646850586,19.900222778320312,-36.39132690429688,-0.026436085710855622,1007.708360443612
0.8957646484375,0.0507840654935687,-0.0307471665717661,0.1364806005448103,-0.0241593234241008,-0.008374304510653,0.0103787295520305,0.0256455484391466,0.0723466777901416,-0.8899095970484314,22.985960006713867,20.158302307128903,-36.325714111328125,-0.02664749961651317,1007.7083848580653
0.90583349609375,0.0103596275813877,-0.0227400021343491,0.1611398255050182,-0.025244889780879,-0.010782953351736,0.0081507414579391,0.0254243811549793,0.072256731526903,-0.8898377807271908,22.982759475708008,20.40928649902344,-36.255889892578125,-0.026858908396115246,1007.7084092719265
0.915902587890625,0.0125933049175888,-0.0053036776323802,0.134547002133727,-0.0363614559173584,-0.0239189956337213,0.0063991802744567,0.0251271041544178,0.0720889606867152,-0.8897284164764819,23.11454391479492,20.40589904785156,-36.072540283203125,-0.027070322301772788,1007.7084336863797
0.9259716796875,0.015851502995938,0.0074599423508159,0.0703448713362216,-0.0422461666166782,-0.0295025072991848,0.006300488486886,0.0247195175146046,0.071816224239825,-0.8896381206449486,23.01829719543457,20.259376525878903,-36.420196533203125,-0.027281736207430338,1007.7084581008329
0.93603955078125,0.0150428900267928,-0.0143002184333279,0.0346148017853498,-0.0436885319650173,-0.0347960740327835,0.0089990701526403,0.0243010118623157,0.0714850230264576,-0.8895635122862575,22.780750274658203,20.25115966796875,-36.44869995117188,-0.027493124482810542,1007.7084825123263
0.946108642578125,0.022271745301783,-0.0103887623443268,-0.0165285254746675,-0.0364316180348396,-0.0282262340188026,0.014797025360167,0.0239062975420674,0.0711429641633922,-0.8894062861456231,22.67132377624512,20.05194091796875,-36.410491943359375,-0.027704538388468092,1007.7085069267795
0.956177490234375,0.0005788228012621,0.0026933124708943,-0.0353203197062015,-0.0215599946677684,-0.0159700997173786,0.0180793702602386,0.0236380455707322,0.0709278156519019,-0.889120781513837,22.88296127319336,19.875640869140625,-36.296966552734375,-0.02791594716807017,1007.7085313406407
0.96624658203125,-0.0096407387223094,0.0332537242989055,-0.0165489837408065,-0.0082171941176056,-0.00282758846879,0.0171340312808752,0.0235194477723235,0.0708709430211076,-0.8888949388149313,22.81059837341309,20.04582977294922,-36.523345947265625,-0.028127361073727715,1007.7085557550939
0.9763154296875,-0.0320340645771473,0.0163733897118829,0.0263502467870712,0.0027124201878905,0.0143679091706871,0.0228619594126939,0.0235071131936059,0.0709420732549027,-0.8885892341640187,22.853906631469727,19.805892944335938,-36.43258666992188,-0.02833876985332979,1007.7085801689551
0.986384521484375,-0.0215473765499889,0.0009552914308384,0.0579185204833745,0.0044643897563219,0.0246904585510492,0.0244622379541397,0.0235828738387546,0.0711398906453611,-0.8882862898663634,22.93454360961914,20.08505249023437,-36.46334838867188,-0.028550183758987338,1007.7086045834084
0.996453857421875,-0.0592309182561933,0.0111287305240519,0.0640057314425706,-0.0031828768551349,0.0285642929375171,0.0205908007919788,0.0236132068697968,0.0714128034247324,-0.8880330695325025,22.766246795654297,19.99161529541016,-36.432891845703125,-0.02876160279070035,1007.7086289984535
1.0065224609375,-0.0376909943602979,-0.0085793017695657,0.0232663092970848,-0.0151331145316362,0.0277575422078371,0.02074571326375,0.0235413899627793,0.0717042317909,-0.8878085664502678,22.75321388244629,20.00336456298828,-36.42306518554688,-0.02897300644424696,1007.7086534117227
1.016591552734375,-0.0002332242339849,-0.0423196953405626,-0.0481710334509611,-0.0240376610308885,0.002163500059396,0.0219345483928918,0.0233508969606413,0.0718519885429947,-0.887547310324662,22.820850372314453,20.079360961914062,-35.829437255859375,-0.029184420349904504,1007.708677826176
1.026660400390625,0.0165888773597776,-0.0294868277797475,-0.1055599771022796,-0.0201032534241676,-0.007548430468887,0.0165544860064983,0.0231488114201965,0.0718146389574226,-0.8873237517550661,22.64871025085449,19.94667053222656,-36.11203002929688,-0.029395829129506584,1007.7087022400372
1.0367294921875,0.0233565448638051,-0.0024198658243753,-0.1068015015959739,-0.0247675143182277,-0.0080930469557642,0.0186352152377367,0.0229333529877664,0.0717342904209844,-0.8870547454667745,22.813867568969727,19.8709716796875,-36.23696899414063,-0.029607243035164134,1007.7087266544904
1.046798828125,0.0282311651628464,-0.0256537706892006,-0.0785685098022222,-0.0306216925382614,-0.0008159657008945,0.0162929929792881,0.0226545350375849,0.0716791146317062,-0.8868197202206963,22.873764038085938,20.044715881347656,-36.253814697265625,-0.029818662066877145,1007.7087510695355
1.056867431640625,0.02018850928694,-0.0593180302840657,-0.0401800346970558,-0.0234540589153766,-0.004953452385962,0.0175750367343425,0.0223955011622259,0.0716442285668015,-0.8866112894457779,22.991905212402344,20.250518798828125,-36.003509521484375,-0.030030065720423757,1007.7087754828049
1.066936767578125,0.0084895959258079,-0.0518331909540109,-0.0559703090250492,-0.0095899943262338,-0.0056606158614158,0.0196986831724643,0.0222584385166919,0.071585583182496,-0.8863980045786838,23.055221557617188,20.331130981445312,-35.900726318359375,-0.03024148475213677,1007.70879989785
1.077004638671875,-0.0080370298527181,-0.034942736831773,-0.0501104770809412,0.0014874236658215,0.0049712555482983,0.0171220749616622,0.0222260133440707,0.0715617171420084,-0.8863016958179704,22.794654846191406,20.467803955078125,-36.127044677734375,-0.030452873027516973,1007.7088243093433
1.087073486328125,-0.005552081169188,-0.0296932736046612,-0.0190723647385835,0.0024104146286845,0.0215863864868879,0.0180367305874824,0.0222577789232292,0.0716749112362086,-0.8861877953611577,22.74716186523437,20.3204345703125,-36.487091064453125,-0.030664281807119054,1007.7088487232046
1.097142578125,-0.0219543499156832,-0.0348912806391716,-0.003258125013113,-2.58451327681e-05,0.0300879962742328,0.0163304433226585,0.0222923136079328,0.0719444775394466,-0.8860668900041817,22.6889762878418,20.156402587890625,-36.49508666992188,-0.030875695712776596,1007.7088731376577
1.107215087890625,-0.0185153153777122,-0.0425324247757904,0.0051011225312948,-0.0172714125365018,0.0183775443583726,0.0154952760785818,0.0222302812871,0.0722047836011683,-0.8860063518997814,22.67935943603516,20.280929565429688,-36.834747314453125,-0.031087181383210694,1007.7088975603984
1.1172841796875,0.0075864365410059,-0.0298053922096267,-0.0188444012016057,-0.0281219277530908,-0.0035551860928535,0.015324568375945,0.0220174062914565,0.0722743392188145,-0.8859183654112878,22.63836097717285,20.14707946777344,-36.799102783203125,-0.03129859528886823,1007.7089219748517
1.127353271484375,0.0281511587291955,-0.0202269416011869,-0.0426467170715332,-0.0313130170106887,-0.0194045733660459,0.0137321967631578,0.021742849246097,0.0721601959260353,-0.8858490934790615,22.641407012939453,20.26665496826172,-36.407989501953125,-0.03151000919452578,1007.7089463893049
1.137422119140625,0.0009914952553808,-0.024820059811417,-0.0096902038872241,-0.0204734187573194,-0.0162932015955448,0.0109720975160598,0.0215033036811208,0.0719685913083167,-0.885785854322185,22.64582252502441,20.25756072998047,-36.500579833984375,-0.03172141797412786,1007.7089708031662
1.1474912109375,0.0016745821487158,-0.0036877851346507,-0.0033130700707435,-0.0049215164035558,-0.0063786627724766,0.007786463946104,0.0213998766227892,0.0718679780465166,-0.8857087438009336,22.91178131103516,20.324440002441406,-36.206634521484375,-0.031932831879785406,1007.7089952176193
1.157559814453125,0.0025281302381306,0.0119547512857243,-0.0288970086604356,0.0144897326827049,-0.0008113244548439,0.0088903438299894,0.0214691044285969,0.0718420031925644,-0.8855987402430429,22.986984252929688,20.155670166015625,-36.350006103515625,-0.03214423553333202,1007.7090196308886
1.167629150390625,-0.0171685769438743,-0.0144334528915584,-0.0254939222186803,0.0108449514955282,0.0028574760071933,0.010634796693921,0.0216164317005106,0.0718518732578725,-0.8854310852885234,23.05992126464844,20.02947235107422,-36.723907470703125,-0.032355654565045036,1007.7090440459338
1.177697998046875,-0.0362495633803308,-0.0030293029596097,-0.0350531932026147,0.0074608726426959,-0.0141183119267225,0.01108487136662,0.0217112353676139,0.0717986915154825,-0.8854042470058728,22.726926803588867,20.38897705078125,-36.231536865234375,-0.03256706334464711,1007.7090684597949
1.18776708984375,-0.0405914650421589,0.0313551241359673,-0.0504699580430984,0.0006387494504451,-0.0285509694367647,0.0133521053940057,0.0217842609567902,0.0715695213903463,-0.8852842136178516,22.837974548339844,20.090049743652344,-36.49087524414063,-0.03277847725030465,1007.7090928742482
1.197836181640625,-0.0223702372401952,0.0397926062820479,0.0191541978031396,-0.0071304896846413,-0.027186632156372,0.0150053966790437,0.0217748911044407,0.071297610905107,-0.8851836434559904,23.024974822998047,20.21259307861328,-36.646759033203125,-0.0329898911559622,1007.7091172887013
1.2079052734375,-0.0270500656194984,0.042035654234793,0.0105202249705791,-0.0099188145250082,-0.0229564439505338,0.0118874795734882,0.0216984257023074,0.0710415810246504,-0.8850401022519938,23.004398345947266,20.29365539550781,-36.71255493164063,-0.033201305061619744,1007.7091417031546
1.21797412109375,-0.0181224436026066,0.0098442254051566,-0.067145783033967,0.008316115476191,-0.0175430364906787,0.0096549512818455,0.0216964517796103,0.0708325408197922,-0.8849171032019943,22.99696922302246,20.219627380371094,-36.75875854492188,-0.033412713841221825,1007.7091661170158
1.228043212890625,-0.0399891883000731,-0.0131357229649089,-0.0180506204754114,0.0156098743900656,0.0068367472849786,0.0120075475424528,0.0218250996971219,0.0707735391666771,-0.8848071233386661,22.892332077026367,20.17545318603516,-36.518402099609375,-0.03362412774687937,1007.709190531469
1.238112060546875,-0.0599601823788136,0.0356275224918499,0.0494172341197729,0.0185593254864215,0.026497533544898,0.0063584493473172,0.0219910914722348,0.0709644900226755,-0.8846780271424504,23.15984916687012,20.280181884765625,-36.571868896484375,-0.03383553652648145,1007.7092149453302
1.24818017578125,-0.0553556111928075,0.0618894882072694,0.0715834732204675,0.0065583614632487,0.03989939391613,0.0118635268881917,0.0221361455971444,0.071320138832251,-0.8845001779370086,23.266956329345703,20.126296997070312,-36.389068603515625,-0.03404692992791712,1007.7092393574155
1.2582490234375,-0.0409259576935321,0.0659796253314241,0.0795318018764257,-0.0002566678449511,0.0418171361088752,0.0135357258841395,0.0221717602885617,0.0717114528546372,-0.884363720988129,23.107839584350582,20.273178100585938,-36.64126586914063,-0.034258338707519195,1007.7092637712768
1.268318115234375,-0.0300953515995293,0.0551865382362157,0.0513695372313261,0.0014868434518575,0.0541155487298965,0.0107869356870651,0.0221698060348572,0.0721800177747298,-0.8841991370599612,23.13980484008789,20.15697479248047,-36.519439697265625,-0.03446975261317675,1007.70928818573
1.27838720703125,-0.0316875892270356,0.0658529667444527,-0.0136140993326902,0.006272011436522,0.03844790533185,0.0077304267324507,0.0222046283559833,0.0726489574420111,-0.8840330025678443,23.130006790161133,19.97417449951172,-36.507415771484375,-0.034681166518834294,1007.7093126001832
1.2884560546875,-0.0186998781643807,0.0425432566970586,-0.0497369675934314,0.0057502342388033,0.0177433621138334,0.0087393587455153,0.0222538612314754,0.0729276359233832,-0.8839572907197648,22.833131790161133,20.024139404296875,-36.499114990234375,-0.03489257529843637,1007.7093370140444
1.298525146484375,-0.0072441259093582,-0.0056384077457711,-0.029711247652769,0.0054977666586637,-0.0089425761252641,0.0149370674043893,0.0222998146951685,0.0729498001200034,-0.8838243787763678,22.88640785217285,19.916412353515625,-36.46627807617188,-0.03510398920409392,1007.7093614284976
1.308593994140625,-0.025476824953407,-0.0037067638297565,0.0015846388429403,0.0076510272920131,-0.0373363196849823,0.0130934473127126,0.0223747340336519,0.0726873957597689,-0.8836851064991074,22.76156234741211,19.913360595703125,-36.48794555664063,-0.035315397983696,1007.7093858423589
1.3186630859375,-0.0414412137392908,0.0347191206763498,0.0408171635568141,0.0061021326109766,-0.0497549101710319,0.0155725851655006,0.0224326260088486,0.0722083224724522,-0.8835746127255042,22.983583450317383,20.266189575195312,-36.09835815429688,-0.03552681188935354,1007.709410256812
1.328732177734375,-0.042256767905876,0.0227450436356477,0.0883195039659738,0.0021307477727532,-0.0470398887991905,0.0208263546228408,0.022462839591923,0.0716796792352672,-0.8834233502322126,22.739431381225582,20.005142211914062,-36.04000854492188,-0.03573822579501108,1007.7094346712653
1.338801025390625,-0.0556665037728846,0.0267595399740152,0.0799029732763767,0.0069859568029642,-0.0270249024033546,0.0246317461133003,0.0225060034061379,0.0712913122526637,-0.8831648016785786,23.002805709838867,20.116043090820312,-35.967010498046875,-0.03594963457461317,1007.7094590851265
1.348870361328125,-0.0698635175600647,0.0359261401122435,0.0500759902894496,0.0095474878326058,-0.0038901860825717,0.0298797003924846,0.0225862659791882,0.0711212336691106,-0.8829025346914688,23.009801864624023,20.30360412597656,-35.701385498046875,-0.03616105360632618,1007.7094835001717
1.35893896484375,-0.0746984634358435,0.0718327718064189,0.0235275905817747,0.007810840383172,0.0201677456498146,0.0291396081447601,0.0226619272971947,0.071187318847685,-0.8825751439833553,23.060686111450195,20.055564880371094,-36.184356689453125,-0.03637245725987279,1007.7095079134409
1.36900830078125,-0.0649414779227226,0.0849532241369597,-0.031285365101695,0.0088985431939363,0.0296425633132457,0.0287129525095224,0.0227333778653874,0.0714444352773015,-0.8822133474432068,23.09957504272461,19.971847534179688,-35.993255615234375,-0.0365838762915858,1007.709532328486
1.379076904296875,-0.0498508032314479,0.0866560094668529,-0.0847767167925834,0.0092578046023845,0.0210815649479627,0.0254753474146127,0.0228460079323752,0.0717223832770095,-0.8819039864599164,23.20845031738281,20.171112060546875,-36.051361083984375,-0.03679527994513241,1007.7095567417554
1.38914599609375,-0.0218958977267146,0.0936599516784772,-0.1073047749429941,0.0105334743857383,-0.0041628410108387,0.0260117072612047,0.0229651502923403,0.0718018717774062,-0.8816429274189578,22.999187469482425,20.03150177001953,-36.427520751953125,-0.03700669385078996,1007.7095811562085
1.39921533203125,-0.0048646103616803,0.0800040407643653,-0.1021346788287162,0.0175509043037891,-0.0271829385310411,0.024445503950119,0.0231138142367484,0.0716366037972024,-0.8813847315267209,22.9348258972168,19.935333251953125,-36.724212646484375,-0.03721811288250297,1007.7096055712537
1.409283935546875,-0.0106686204653233,0.0672768986003473,-0.1262257485121488,0.029054045677185,-0.0242330636829137,0.0166340116411447,0.0233572114387516,0.0713430210181331,-0.8812761373414854,22.88039970397949,20.16046905517578,-36.89865112304688,-0.037429516536049576,1007.709629984523
1.419353271484375,-0.0070125091105699,0.0707205179818905,-0.1023281555742025,0.030908403918147,-0.020059622824192,0.0111212693154811,0.02366266727819,0.0710920660048366,-0.8811472839481942,23.113422393798828,20.062332153320312,-36.646087646484375,-0.0376409355677626,1007.7096543995681
1.429421875,0.0046217415165156,0.0836443882944062,-0.062568976637721,0.0272876881062984,-0.0271613672375679,0.0090460404753685,0.023927755332738,0.0708515295066082,-0.880964263823986,23.10455322265625,19.7012939453125,-36.607452392578125,-0.037852339221309206,1007.7096788128374
1.4394912109375,0.0106549572661519,0.1062350816185586,-0.0267833775073289,0.0239227823913097,-0.0308535732328891,0.0082939639687538,0.0241562347261554,0.0705257040368495,-0.8807630434069464,23.206287384033203,19.755516052246094,-36.587249755859375,-0.03806375825302222,1007.7097032278825
1.449560302734375,0.0114227267682552,0.1037407988511025,0.003015548428893,0.0276019014418125,-0.0254007875919342,0.0090427873656153,0.0243749737923174,0.0702027522429154,-0.880653415780384,23.17058753967285,20.06723022460937,-36.155181884765625,-0.03827517215867977,1007.7097276423358
1.459629150390625,0.007716419596225,0.0590260616001673,0.0244786076962947,0.0371858179569244,-0.0091821365058422,0.014682563021779,0.0246829901939989,0.070000830793866,-0.8805318507204404,23.14064598083496,20.163406372070312,-36.385589599609375,-0.03848658093828184,1007.709752056197
1.4696982421875,-0.0042780426453799,0.0551089429553598,0.0754798961371183,0.0391352660953998,0.0319565162062644,0.015187207609415,0.0250466077128432,0.0701262708457792,-0.8803894847743223,22.957141876220703,19.87098693847656,-36.785186767578125,-0.03869799484393939,1007.7097764706502
1.47976611328125,-0.032692455420643,0.0500828401553444,0.1009527755677699,0.0386079624295234,0.0568847693502903,0.0152127742767333,0.0254039502255413,0.0705995410187712,-0.880242550248416,22.878955841064453,19.80841827392578,-36.508148193359375,-0.0389093831193196,1007.7098008821436
1.489835205078125,-0.0277306682948023,0.0226830477827228,0.0546989739149808,0.0344057977199554,0.0496476665139198,0.0100516248494386,0.0257381091002341,0.0711486018886341,-0.8801105382899477,23.056007385253903,19.91831970214844,-36.75405883789063,-0.039120797024977144,1007.7098252965967
1.499904052734375,0.0013566022407263,0.0295094962692819,0.0035182372540235,0.0338987335562706,0.0168303288519382,0.007634540554136,0.0260681113543762,0.0714646796558314,-0.8801169834014663,22.839807510375977,20.085037231445312,-36.431182861328125,-0.03933220580457922,1007.709849710458
1.50997314453125,-0.0021094664346426,0.0305086451081559,0.0424900652050972,0.0368479937314987,-0.0155778732150793,0.000959176570177,0.0263837287767706,0.0714677739973766,-0.8801168442600477,22.92649269104004,19.92424774169922,-36.617462158203125,-0.03954361971023677,1007.7098741249112
1.5200419921875,-0.0131661363694816,0.0194000075240619,0.0878314281880855,0.0275274626910686,-0.048306256532669,0.0049179652705788,0.0266701302577161,0.0711452639137887,-0.8801271191733625,22.849777221679688,19.794761657714844,-36.304718017578125,-0.03967981943217556,1007.7098907225518
1.530111083984375,-0.004031666668877,0.006768891346734,0.0657142889261245,0.020908199250698,-0.0562017038464546,0.0053833001293241,0.0268775510514949,0.0705940902754883,-0.8801061844033061,22.803436279296875,19.749786376953125,-36.64108276367188,-0.03975908801490007,1007.7099014035929
1.54018017578125,-0.0204588506609201,0.0125554388589225,0.0301256736725568,0.0179259926080703,-0.0506788380444049,0.0028098882175982,0.0270556919475851,0.0700554728856215,-0.8801205441997407,22.63882064819336,19.712242126464844,-36.43618774414063,-0.039838356597624594,1007.7099120846339
1.5502490234375,-0.052850058112666,0.0412832101659849,-0.0020732991427183,0.0171583779156208,-0.0405439883470535,0.0015948638319969,0.027192800404757,0.0696037974851682,-0.880137011438771,22.77297782897949,19.782455444335938,-36.68423461914063,-0.03991762325836034,1007.7099227654159
1.560318115234375,-0.0461225764885544,0.0535983922619372,-0.0451490552812814,0.0180614553391933,-0.0174796823412179,0.0033679963089525,0.027334763386521,0.0692986749618288,-0.8802286311964179,22.616758346557617,19.96593475341797,-36.56124877929688,-0.03999689184108486,1007.7099334464568
1.570386962890625,-0.0554522765003144,0.0478693653569556,-0.0737479577779769,0.0249365493655204,0.0069461492821574,0.0079093426465988,0.0275440995367995,0.0692431997206122,-0.8803426340523687,22.38384246826172,19.959251403808597,-36.713958740234375,-0.04007615850182061,1007.7099441272388
1.5804560546875,-0.0436321479123085,0.033673922472354,-0.0812684164106845,0.0355066359043121,0.0225088633596897,0.013116355985403,0.0278514456926637,0.0693969358750554,-0.8802508955102939,22.71393394470215,19.580421447753903,-36.71646118164063,-0.04015542708454513,1007.7099548082798
1.590525146484375,-0.0309495572760701,0.0357723195237107,-0.0620943448632955,0.0440815202891826,0.0246258452534675,0.0169180762022733,0.0282486871676527,0.0696462819616542,-0.8801412057750594,22.744218826293945,19.747840881347656,-36.814727783203125,-0.04023469566726965,1007.7099654893208
1.60059423828125,-0.0487123737860471,0.0300893785164691,-0.0313864873886108,0.0435661971569061,0.0156880095601081,0.0186224989593029,0.0286917067006819,0.069856888174971,-0.8799990142575105,22.72499084472656,19.631637573242188,-36.807891845703125,-0.040313964249994165,1007.7099761703618
1.6106630859375,-0.0556330398947,0.0488185741068795,0.0054728784531354,0.0418686605989933,0.0233679786324501,0.0180758349597454,0.0291216292266522,0.0700452073736904,-0.8799086715535046,22.622901916503903,19.70500946044922,-36.786895751953125,-0.04039323091072992,1007.7099868511438
1.620732177734375,-0.0382218133013695,0.0414351127920672,0.0570066663354635,0.0331143178045749,0.0175391174852848,0.0125798704102635,0.0294980380865797,0.070239468554492,-0.8798122204849465,22.624237060546875,19.580612182617188,-36.698272705078125,-0.04047249949345443,1007.7099975321847
1.630801025390625,-0.0250462515164166,0.0193453181947581,0.0625771599441766,0.0339143835008144,-0.0033378731459379,0.0142090860754251,0.0298243844822666,0.0702700011590963,-0.8796752865601598,22.87693977355957,19.578224182128903,-36.732452392578125,-0.040551766154190184,1007.7100082129667
1.6408701171875,-0.0048882104329764,-0.0031255846746265,0.0341138665258884,0.0407493859529495,-0.011409381404519,0.0143510326743125,0.0301729195948296,0.0701680111737681,-0.8795562538124315,22.972373962402344,19.72008514404297,-36.711517333984375,-0.040631034736914706,1007.7100188940077
1.650939208984375,0.0113920393690466,0.0070550878769718,0.0217021287202835,0.0511782094836235,-0.0250608511269092,0.0162326470017433,0.0306314328000525,0.0699578305368259,-0.879418291267456,22.880464553833008,19.52819061279297,-36.899444580078125,-0.04071030331963922,1007.7100295750487
1.661008056640625,0.0217553202122449,0.017480729899276,0.028635142853856,0.0457877069711685,-0.0276790037751197,0.017865166068077,0.0311302171826385,0.0696642357715317,-0.8792837258803197,22.881933212280277,19.629493713378903,-36.672210693359375,-0.04078956998037497,1007.7100402558307
1.6710771484375,0.012361541988328,0.005676145940274,0.0502513468563556,0.0405630134046077,-0.0243539027869701,0.0194219946861267,0.0315593814911406,0.0693709899025278,-0.8790403237621753,23.04862403869629,19.45433807373047,-36.67111206054688,-0.04086883856309949,1007.7100509368717
1.68114599609375,0.0190942112442106,0.0154748151706531,0.0438864879995584,0.0344840809702873,-0.0269824434071779,0.0216638445854187,0.0319331486781651,0.0690964663281316,-0.878789454592681,23.09586906433105,19.58139038085937,-36.39566040039063,-0.04094810522383524,1007.7100616176537
1.69121533203125,0.0209954417556524,0.0466483173957094,0.0266401696443557,0.0303519740700721,-0.0313030928373336,0.0233252830803394,0.0322587338441151,0.0687803249478227,-0.8785269020217085,23.145612716674805,19.60350799560547,-36.556488037109375,-0.041027375728548525,1007.7100722989537
1.701283935546875,0.0267892227262258,0.0433633409082889,-0.0240858089864254,0.0305583700537681,-0.0351886451244354,0.0264078937470912,0.0325495294562039,0.0684180166882275,-0.8782527774230604,23.139728546142575,19.71729278564453,-36.481536865234375,-0.04110664046729551,1007.7100829794767
1.711353271484375,0.031155382046476,0.0337978593792766,-0.0716863490730524,0.033492587506771,-0.034163124859333,0.0316895805299282,0.0328712896653996,0.0680640522827307,-0.8779308880417281,23.115020751953125,19.569862365722656,-36.806427001953125,-0.0411859109720088,1007.7100936607767
1.721422119140625,0.012929916460812,0.0526673950221389,-0.0660439592719078,0.0260394643992185,-0.0278735365718603,0.0305968858301639,0.033178182086438,0.0677555882563688,-0.8775261665719801,23.321712493896484,19.56390380859375,-36.56271362304688,-0.041265177632744544,1007.7101043415587
1.731490966796875,0.0452714395519346,0.0503609447106719,-0.0676040481954813,0.0249749366194009,-0.0239321235567331,0.0295405369251966,0.0334466746780669,0.0674940344433196,-0.8772449765419882,22.996776580810547,19.58173370361328,-36.844635009765625,-0.0413444442934803,1007.7101150223407
1.741560302734375,0.0578814764086157,0.0150905285608023,-0.0170049108147621,0.0276484843343496,-0.0093108359724283,0.0286627579480409,0.0337259860571093,0.0673222090802603,-0.8769677493906316,22.93461036682129,19.571983337402344,-36.731536865234375,-0.04142371479819358,1007.7101257036406
1.75162890625,0.042116409587115,0.0149566730480641,0.0207628020435571,0.0351199768483638,0.0028957421891391,0.0270588845014572,0.0340482126001423,0.0672977715171979,-0.8766521031689675,22.969125747680664,19.38471221923828,-36.951568603515625,-0.041502979536940564,1007.7101363841637
1.7616982421875,0.0504780682843178,0.012719890439324,0.0093038349181413,0.0402795858681201,0.0254987888038158,0.0278525054454803,0.0344459709570327,0.0674535619284142,-0.8763549137316572,22.899045944213867,19.32207489013672,-36.806976318359375,-0.041582250041653855,1007.7101470654636
1.77176708984375,0.0577021012537181,-0.0087319898469373,0.0067208326876163,0.0377152189612388,0.0305899493396282,0.025462869554758,0.0348527210401254,0.067756334948306,-0.8760590996864929,23.06049156188965,19.416336059570312,-36.564056396484375,-0.0416615167023896,1007.7101577462456
1.781836181640625,0.0599892623428255,-0.0152610628221184,0.047992169752717,0.0275856181979179,0.0332400612533092,0.0294392332434654,0.0351942280178705,0.0680741596322354,-0.875786495819664,23.07522201538086,19.504791259765625,-36.96774291992188,-0.04174078528511412,1007.7101684272866
1.7919052734375,0.0588403845686465,-0.0158098192786797,0.124334235677123,0.012736327946186,0.0242638420313596,0.0262058340013027,0.0353977992260965,0.0683758034395873,-0.8754714684315352,23.107839584350582,19.38727569580078,-36.87179565429688,-0.04182005386783864,1007.7101791083276
1.80197412109375,0.05790376130566,-0.0168383586088195,0.1513075827986001,-0.0037656845524907,0.0064896377734839,0.0277619175612926,0.0354455359945171,0.0685176183842606,-0.8751547730015293,23.27307891845703,19.540489196777344,-36.578460693359375,-0.04189932052857439,1007.7101897891096
1.812043212890625,0.0694280487522482,-0.0053180897502228,0.1541518663138151,-0.0120298285037279,0.0039028138853609,0.0273158885538578,0.035353738737419,0.0685630801311862,-0.8748546500610223,23.21747589111328,19.57946014404297,-36.39425659179688,-0.04197858911129891,1007.7102004701505
1.822112060546875,0.0643296296346932,-0.001055683065392,0.1079635311126708,-0.0214454364031553,0.0004524220712482,0.0228865183889865,0.0351779274111206,0.0685790666048395,-0.8745119427817927,23.2778434753418,19.409080505371094,-36.812835693359375,-0.04205785577203466,1007.7102111509325
1.83218115234375,0.0612614011704921,-0.0014893252423033,0.046994390887022,-0.0178171508014202,-0.00682521937415,0.0210602711886167,0.0349809974682095,0.0685557017925593,-0.8742756263125778,23.073627471923828,19.469520568847656,-36.547760009765625,-0.04213712435475918,1007.7102218319735
1.84225,0.0559853604637086,-0.0243074523804709,-0.0096148005634546,-0.0072561195120215,-0.0133622139692306,0.0156157035380601,0.0348513838862994,0.0684675266885367,-0.8740974283655669,22.991676330566406,19.43344116210937,-36.83755493164063,-0.04221639101549493,1007.7102325127555
1.852319091796875,0.0873147839028388,-0.0209486800044775,-0.0100005850106477,0.006083708256483,-0.0134335272014141,0.0192071329802274,0.0348581910743287,0.0683700785157545,-0.8739441026881554,22.9527530670166,19.465049743652344,-36.499114990234375,-0.042295659598219446,1007.7102431937966
1.86238818359375,0.0888573371697217,-0.0243347787788137,0.0303296718120574,0.0071569615975022,-0.0170386470854282,0.0200992915779352,0.0349402013007665,0.0682125085645326,-0.8737845004697921,23.04578018188477,19.526351928710938,-37.08248901367188,-0.04237492818094396,1007.7102538748376
1.87245703125,0.0686294457204639,-0.0204074857998639,0.0921568901717662,0.0005353791639208,0.0035793795250356,0.0187599193304777,0.0350050188430938,0.0681388873150328,-0.8735677561698422,23.236793518066406,19.54634094238281,-37.041595458984375,-0.04245419484167971,1007.7102645556196
1.882526123046875,0.0305035670742392,0.0066690659677609,0.0779343035519123,0.00414396263659,0.0316237956285476,0.014853861182928,0.0350500242130645,0.0683500075408052,-0.8733766596141394,23.148595809936523,19.453956604003903,-36.882598876953125,-0.042533463424404234,1007.7102752366606
1.89259521484375,0.040138168316707,0.0311559300357475,0.0160065474271774,-8.2729384303e-06,0.0392408706247806,0.0144781582057476,0.0350903462458692,0.0687421053617099,-0.8732376384637967,23.14299964904785,19.62955474853516,-36.791534423828125,-0.04261273200712875,1007.7102859177015
1.9026640625,0.0226145673900842,0.0260127219283953,-0.0612678309112787,-0.0040541468188166,0.0199473313987255,0.008120659738779,0.0350694152443544,0.0690650855846392,-0.8731133845762503,23.168588638305664,19.49358367919922,-37.003448486328125,-0.0426919986678645,1007.7102965984835
1.9127333984375,0.002176832582429,-0.0068203475393354,-0.0969581529736518,0.0081484569236636,-0.0029449332505464,0.0024646390229463,0.0350935812945649,0.0691658712476858,-0.8730200788469954,23.32830238342285,19.4874267578125,-36.851165771484375,-0.042771269172577786,1007.7103072797835
1.922802001953125,0.0114208270721137,-0.0257421613587066,-0.0639759208261966,0.0145970350131392,-0.0298154279589653,0.0062987920828163,0.0352088369095203,0.0690165258983969,-0.8731070622120952,22.88596534729004,19.703155517578125,-36.89028930664063,-0.04285053391132477,1007.7103179603065
1.93287109375,-0.0162362645298242,-0.002345613278076,-0.0349380423903465,0.0226443633437156,-0.0410320870578289,0.0015786285512149,0.035412745460428,0.068677682076369,-0.8731483811420379,22.975740432739254,19.59172821044922,-36.864837646484375,-0.04292980249404929,1007.7103286413475
1.94293994140625,-0.0310215995989739,0.0165287812029942,0.0029483284115791,0.0290942750871181,-0.0459714494645595,0.0030273883603513,0.035674353344798,0.0682774591476312,-0.8731733086006163,22.994632720947266,19.400718688964844,-37.29244995117188,-0.04300906915478504,1007.7103393221295
1.953009033203125,-0.0242344236768782,-0.0027612083416432,0.0142073890507221,0.0348162166774272,-0.0428314469754695,0.0069536776281893,0.0359963468375205,0.0678289612023999,-0.8731524063716796,23.044294357299805,19.430953979492188,-37.01315307617188,-0.04308833773750956,1007.7103500031704
1.963078369140625,-0.0266097014408558,-0.014466953302361,0.0540957473248243,0.036153919994831,-0.0196046903729438,0.0132192969322204,0.0363593316359503,0.0675065403713858,-0.8730905657268321,23.02908706665039,19.482765197753903,-36.93356323242188,-0.04316760824222284,1007.7103606844704
1.97314697265625,-0.0547067918952554,-0.000503602140583,0.096668814638257,0.0282982550561428,0.0026509445160627,0.016632679849863,0.0366847777748573,0.0674425750109306,-0.8729968038145604,22.968759536743164,19.403091430664062,-37.14108276367188,-0.043246872980969825,1007.7103713649934
1.98321630859375,-0.0684128803603351,0.021000519789569,0.0710620796948671,0.0179976802319288,0.0202299393713474,0.0158084314316511,0.0369093570153921,0.0675746735998319,-0.8728122674786345,22.989381790161133,19.161895751953125,-36.834381103515625,-0.043326143485683116,1007.7103820462934
1.993284912109375,-0.0487646154299378,0.0189688312988728,0.0158142397254705,0.0114312637597322,0.016842532902956,0.0189730562269687,0.0370532362364936,0.0677693166376227,-0.8726160430418289,23.079872131347656,19.245269775390625,-37.135772705078125,-0.0434054082244301,1007.7103927268164
2.003354248046875,-0.0461336093392223,-0.0005005334006622,-0.0395312153995037,0.0106328483670949,0.0117867877706885,0.0178161785006523,0.0371737059604308,0.0678984421970347,-0.8724534434697278,22.886693954467773,19.25965118408203,-36.86245727539063,-0.04348467872914338,1007.7104034081163
2.01342333984375,-0.0895692848313599,-0.0025180472355335,-0.0606190116137266,0.0216999426484107,0.0134494639933109,0.0149664673954248,0.0373495713745922,0.0680101954406637,-0.8722974935758241,23.050886154174805,19.309066772460938,-37.300201416015625,-0.0435639473118679,1007.7104140891574
2.023491943359375,-0.0734578157249838,0.009237893542461,-0.0558966592669486,0.0367044582962989,0.0199683494865894,0.0118614882230758,0.0376482869898742,0.0681690537807172,-0.8721856414379726,23.008432388305664,19.21428680419922,-37.060150146484375,-0.04364321205061488,1007.7104247696805
2.033561279296875,-0.0502908751491457,0.0125452279921621,-0.0568605358630418,0.0389189049601554,0.0016048206016421,0.0040209535509347,0.038031588253262,0.0682799337059852,-0.872060074364316,23.160362243652344,19.016616821289062,-37.244049072265625,-0.04372248255532817,1007.7104354509804
2.0436298828125,-0.0592928775765001,0.0045007454853504,-0.0490238508880138,0.0322990864515304,-0.014292387291789,-0.0030603918712586,0.0383864673763487,0.0682220687262589,-0.8720786223066013,23.072633743286133,19.252120971679688,-36.93209838867188,-0.043801747294075155,1007.7104461315034
2.05369921875,-0.0597827069200575,-0.0097537341101095,-0.0329810631036758,0.0254801362752914,-0.0214263927191495,-0.0073703313246369,0.0386726287862705,0.0680127278619889,-0.8722086835098638,22.708526611328125,19.100997924804688,-37.21017456054688,-0.04388101779878844,1007.7104568128034
2.063767822265625,-0.0764333244044333,0.0050191068036481,-0.0138806413143873,0.0158565361052751,-0.0254008956253528,-0.0083570331335067,0.0388669293539405,0.0677572232444818,-0.8723092119759506,22.884937286376957,19.02275848388672,-37.472259521484375,-0.04396028253753542,1007.7104674933264
2.073837158203125,-0.0712642512034624,0.0399826489614322,-0.0006114098966121,0.0165368318557739,-0.0164224673062562,-0.0077012116089463,0.0390143579886268,0.0675197117243946,-0.8724466163132898,22.99176597595215,19.318756103515625,-37.49069213867188,-0.04403955304224871,1007.7104781746264
2.08390625,-0.046500177629292,0.0333711949324235,0.0423047717660665,0.0236863549798727,0.0056841662153601,-0.0054700155742466,0.0392100802022745,0.0674514538488715,-0.8725768547245147,22.95265769958496,19.323211669921875,-37.627349853515625,-0.04411882162497323,1007.7104888556673
2.09397509765625,-0.0387431337617337,0.0181027525214478,0.0373036024779081,0.0322755090892314,0.0320978611707687,0.0016546170227229,0.0394691244170151,0.0676229582599425,-0.8726945924969716,22.87047576904297,19.314956665039062,-37.57467651367188,-0.04419808828570898,1007.7104995364493
2.104044189453125,-0.0400198756992816,0.0219068575121462,0.0361415729612112,0.0361695848405361,0.0528958179056644,0.0028945845551788,0.0398115327138027,0.0680452993493263,-0.8727957527032862,22.939653396606445,19.47965240478516,-37.406158447265625,-0.044277356868433496,1007.7105102174903
2.114109619140625,-0.0511956419691443,0.0185003004716709,0.0664683221638202,0.0330504551529884,0.0562399178743362,0.00366604141891,0.0401510789635782,0.0685924543626837,-0.8727850078676359,22.995288848876957,19.525184631347656,-37.85910034179688,-0.0443565966213265,1007.7105208946466
2.1241787109375,-0.040336759628728,-0.0197005431069061,0.0944768575519323,0.0245424546301364,0.0369258746504783,0.0009610685519874,0.0404520868281165,0.0690438181035978,-0.8727964236069226,23.355205535888672,19.452133178710938,-37.79367065429688,-0.044435865204051024,1007.7105315756876
2.134247802734375,-0.0129210025019943,-0.0216508003918454,0.1391565417557954,0.0136931166052818,0.0026977024972438,-0.0035405694507062,0.0406501067941213,0.0692400988098208,-0.8728198430101263,23.27779960632324,19.36353302001953,-37.200103759765625,-0.044515133786775546,1007.7105422567286
2.14431689453125,-0.0042905368007719,-0.0141626000609248,0.15018880790174,-0.0028283353894948,-0.0321798548102378,-0.0060756327584385,0.0406812945084484,0.0690614563398361,-0.8728913012103043,23.292949676513672,19.420494079589844,-37.292999267578125,-0.04459440236950006,1007.7105529377695
2.1543857421875,-0.002083601341024,-0.0225151621362194,0.1160036297053098,-0.0153666054829955,-0.0556378811597824,-0.0056126927956938,0.0405466249042834,0.0685750796837929,-0.8729394085659153,23.014766693115234,19.10192108154297,-37.14566040039063,-0.04467366903023581,1007.7105636185515
2.164454833984375,-0.0248250099811702,-0.0073897449251264,0.0589800122350454,-0.0169674307107925,-0.0442627221345901,-0.006174886599183,0.040349316523328,0.0680384277104675,-0.8730519445069067,23.11261749267578,19.454376220703125,-37.289825439453125,-0.04475293761296033,1007.7105742995925
2.174523681640625,-0.0352024654801934,0.0406625209843739,0.032820319584012,-0.0087954746559262,-0.0285907592624425,-0.0020942222326993,0.0401832393194174,0.0676453769364885,-0.8731242441468189,23.01105690002441,19.28948211669922,-37.11886596679688,-0.04483220427369608,1007.7105849803746
2.184592529296875,-0.0198775436416268,0.0456527304871007,0.0100415015429258,0.0050854533910751,-0.0002496652305126,0.0059682317078113,0.0401580132644984,0.0674859133259911,-0.873119472741522,23.075244903564453,19.361618041992188,-36.917327880859375,-0.04491147093443183,1007.7105956611566
2.194661865234375,-0.0235536748711019,0.0563117794064804,-0.002976385462284,0.0218270942568779,0.0258564408868551,0.0117593882605433,0.0403142767714493,0.0676174707242734,-0.8729862489267058,23.286518096923828,19.214683532714844,-37.254913330078125,-0.04499074143914511,1007.7106063424566
2.204730712890625,-0.0168356917276978,0.0354828167915344,0.0149918174266815,0.0151793118566274,0.0362923070788383,0.0076876813545823,0.0405250830089416,0.067925788131924,-0.8728366254394969,23.35546875,19.264854431152344,-36.693206787109375,-0.04507000809988086,1007.7106170232386
2.21480078125,0.0166029058851301,0.0417217111811041,0.05945639757514,0.0050149112939834,0.0324092283844947,0.0073711252771317,0.0406425743220075,0.0682710641633247,-0.8728507408893922,23.00736618041992,19.47203826904297,-36.937347412109375,-0.045149284370560455,1007.7106277053155
2.224869873046875,0.0250084767892956,0.023563392547518,0.0865203455895185,-0.0074678575620055,0.020174665376544,0.0101157799363136,0.0406372492700677,0.0685286291957762,-0.8727972337786181,22.940614700317383,19.27728271484375,-37.135284423828125,-0.04522855295328497,1007.7106383863564
2.234938720703125,0.02526369365938,0.0298032367851585,0.0539122074514627,-0.008807823061943,-0.0153054287657141,0.005062956828624,0.0405715760187219,0.0685482603124779,-0.8727285817662322,23.13785171508789,19.30694580078125,-37.34078979492188,-0.04530781961402072,1007.7106490671384
2.2450078125,0.0512921611461788,0.0149270450947806,0.0147761288493871,-0.0144329518079757,-0.0294526740908622,0.0039441627450287,0.0404583413685092,0.0682885885056373,-0.8726513047439728,23.08991432189941,19.18408203125,-36.972564697265625,-0.04538708819674524,1007.7106597481794
2.25507666015625,0.046455827030912,-0.0078834467262029,0.0153460376918315,-0.0201349258422851,-0.02323779463768,0.0030083484016358,0.0402836625776203,0.0679868688673631,-0.8726068950338941,23.245969772338867,19.43134307861328,-36.698760986328125,-0.04546635485748099,1007.7106704289614
2.265145751953125,0.0300167334053665,-0.0016745821487158,0.0420849915355443,-0.028003767132759,-0.0232481807470321,-0.0019206304568797,0.0400315834338909,0.0677544385687601,-0.8726126324634205,23.12464714050293,19.43567657470703,-36.753448486328125,-0.04554562344020551,1007.7106811100024
2.275214599609375,0.0399661727506667,0.0211612998418509,0.0314361717492341,-0.0348029173910617,-0.0184095818549394,-0.0009149517863988,0.0397049027373212,0.0675317742318622,-0.8726314102521645,23.1513671875,19.38922882080078,-37.24136352539063,-0.045624890100941264,1007.7106917907844
2.28528369140625,0.0462350969523191,0.0012700930010527,0.0149333652377128,-0.0308774150907993,-0.0212956499308347,-0.0040710642933845,0.0393547608753851,0.0673487935122509,-0.8726392438880508,23.08822631835937,19.292892456054688,-37.039825439453125,-0.04570415868366578,1007.7107024718254
2.29535302734375,0.0212445211458951,0.0064893620193004,0.0006663549542427,-0.0236618295311927,-0.0233529321849346,0.0015854514203965,0.0390780470496289,0.0671338947821805,-0.8726412594342665,23.264440536499023,19.50357818603516,-37.228057861328125,-0.04578342918837906,1007.7107131531253
2.305421630859375,0.0169811646129935,0.0093125296812504,-0.0018494272589683,-0.0171112492680549,-0.0042474130168557,0.0054265283979475,0.0388622303244049,0.0669878035789806,-0.8726823282580185,23.053211212158203,19.44219207763672,-37.433502197265625,-0.045862693927126046,1007.7107238336483
2.31549072265625,-0.0190649851497262,0.022882059219852,-0.0063648588567972,-0.0031887786462903,0.0212733931839466,0.0018901173025369,0.0387504907536902,0.0670929586828602,-0.8726765860273807,22.99366950988769,19.39710998535156,-37.079681396484375,-0.04594196250985057,1007.7107345146893
2.3255595703125,-0.0343534474354237,0.0336056978080421,-0.0076093059599399,0.0040771244093775,0.028097741305828,0.0053753959946334,0.0387606257431397,0.0673863777125216,-0.8726358202449815,23.27272224426269,19.476646423339844,-37.205169677734375,-0.04602122917058632,1007.7107451954713
2.335628662109375,-0.0087483199272304,0.0206907597206532,-0.0100619598090648,0.0040537761524319,0.0208910554647445,0.0077165369875729,0.0388322708184547,0.0676603068289678,-0.8725958879301524,23.144880294799805,19.46402740478516,-37.303009033203125,-0.046100497753310835,1007.7107558765124
2.34569775390625,-0.0123060124088078,0.0009261384015902,0.0091956983685493,0.0114720109850168,0.0262440089136362,0.0054872049950063,0.0389226260495148,0.0679019972742257,-0.8725036042155503,23.113943099975582,19.18711853027344,-37.561309814453125,-0.04617976633603535,1007.7107665575534
2.3557666015625,-0.0251272077981382,-0.0075994786856696,0.0306616802453994,0.0108070336282253,0.025006178766489,0.00540462275967,0.0390298995507888,0.0681882231518376,-0.8724777119185302,22.940874099731445,19.26160430908203,-36.960784912109375,-0.0462590329967711,1007.7107772383354
2.3658359375,-0.0185406690146774,0.0212065637556836,0.0699643475860357,0.0064413137733936,0.0185179207473993,0.0018759346567094,0.0391292370316835,0.0684331307179136,-0.8724477574599366,23.18999481201172,19.28455352783203,-37.04953002929688,-0.046338303501484386,1007.7107879196353
2.375904541015625,-0.0105094843808561,0.0306658084312453,0.061364277023077,-0.007091149687767,0.0054754829034209,-0.005287152249366,0.0391172402624002,0.0685452833816865,-0.8724669436993868,23.167051315307617,19.27940368652344,-36.94448852539063,-0.04641756824023137,1007.7107986001583
2.385973876953125,0.019394144038856,-0.0071116221034899,0.0539408490240573,-0.0172260738909244,-0.0061500137671828,-0.0067223296500742,0.0389880555276856,0.068532063088142,-0.8724552402249958,23.429590225219727,19.350196838378903,-36.690338134765625,-0.04649683874494466,1007.7108092814583
2.396042724609375,0.030992154308781,-0.0202526970969513,0.0466062683522701,-0.0242220927029848,-0.0092144096270203,-0.0074931285344064,0.0387770343213094,0.068431909092429,-0.8724621745266453,23.296417236328125,19.33666229248047,-36.508880615234375,-0.04657610540568041,1007.7108199622403
2.406111572265625,0.0241775058578699,-0.017821049503237,0.0517237574964761,-0.0280461255460977,-0.0136541649699211,-0.009078774601221,0.0385059882042123,0.0683170099255222,-0.8725122505092985,23.090768814086918,19.273696899414062,-36.70700073242188,-0.046655372066416165,1007.7108306430223
2.416180908203125,0.0261661223918199,-0.005335844602622,0.0636462504804134,-0.038575530052185,-0.0162071362137794,-0.0070575713180005,0.0381461747567473,0.0681432849781705,-0.872656350577542,23.242490768432617,19.77202606201172,-37.22555541992188,-0.04673464257112944,1007.7108413243222
2.42624951171875,0.0091170801743865,0.0273323166269809,0.0708773707777261,-0.0359501875936985,-0.0022628256119787,-0.0038852137513458,0.0377539708173091,0.068064753359723,-0.8727507354607549,22.95952415466309,19.41954040527344,-36.905853271484375,-0.04681390730987643,1007.7108520048453
2.43631884765625,-0.0294382028650492,0.0356394321253523,0.0364344184279441,-0.0245229303836822,-0.0033172706607729,-0.0041759628802537,0.037456445237164,0.0680434531312077,-0.8728085932658061,23.01417350769043,19.41448211669922,-36.89450073242188,-0.046893177814589716,1007.7108626861452
2.4463876953125,-0.0185529439743608,0.056359783266671,-0.0391845939189195,-0.0065127704292535,-0.0063407574780285,-0.0083512673154473,0.0372956574916114,0.0679857268472101,-0.8728275291178883,23.178861618041992,19.3624267578125,-36.94625854492188,-0.04697244447532547,1007.7108733669272
2.456456787109375,-0.0364194400545209,0.0312600845299661,-0.0786380679070949,0.0053046764805912,-0.007568540982902,-0.0073628379032015,0.0372844127420207,0.0679152853270012,-0.8729214847663807,23.301698684692383,19.612030029296875,-37.159759521484375,-0.04705171305804998,1007.7108840479682
2.46652587890625,-0.056007353099808,-0.0006523629615083,-0.0084580317437648,0.0072546433657407,0.0007533049210906,-0.006466950289905,0.0373414455786779,0.0678833248501143,-0.8730254480804548,23.30165100097656,19.66903686523437,-37.260833740234375,-0.0471309816407745,1007.7108947290092
2.476595947265625,-0.0571680674422532,0.0043485140657052,0.0891834273189306,-0.003933623433113,0.0136288274079561,-0.0067059826105833,0.0373783956327522,0.067971523803152,-0.8731001576877893,23.1343936920166,19.449447631835938,-36.852325439453125,-0.04721025791145409,1007.7109054110861
2.48666455078125,-0.0334123671930283,0.0042364319933578,0.1348544606477022,-0.0197823625057935,0.0307476259768009,-0.0007788510993123,0.0372753425313786,0.068204586744744,-0.873063950923476,23.325687408447266,19.357330322265625,-37.108428955078125,-0.047289522650201074,1007.7109160916091
2.49673388671875,-0.0220506498970091,-0.008305252334848,0.1038502505749464,-0.0299979411065578,0.0455860011279583,0.0018100612796843,0.0370338783153031,0.068603006032236,-0.8729937143402946,23.294811248779297,19.37853240966797,-37.013519287109375,-0.04736879315491436,1007.7109267729091
2.506802734375,-0.0128397539593279,0.0025023016771301,0.0340688583403825,-0.0254607126116752,0.0403307862579822,0.0056817652657628,0.036747200460712,0.0690529508768131,-0.8729170213219091,23.32140350341797,19.491973876953125,-37.198333740234375,-0.047448059815650104,1007.7109374536911
2.516871826171875,0.0048326808534562,0.0129837290072813,-0.0635679245471954,-0.01224235445261,0.0083579644560813,0.0043617174960672,0.0365493927799231,0.0692651686178621,-0.8728081010551432,23.39762115478516,19.452072143554688,-36.938873291015625,-0.047527328398374626,1007.7109481347321
2.52694091796875,0.0146248838104307,-0.0101421489058062,-0.0695130966871976,-0.0006048735231161,-0.0095805553719401,-0.0022056375164538,0.0364799855806652,0.0692429639960045,-0.872871206859527,23.11532592773437,19.65979766845703,-37.281768798828125,-0.047666518315124154,1007.7109635748791
2.537009521484375,-0.0316828399866819,-0.0213221529593691,0.0108048871308565,0.0069208582863211,-0.02246555685997,-0.0066634444519877,0.0364996195646134,0.0690664749658069,-0.8729499576993949,23.168472290039062,19.59198760986328,-36.57418823242188,-0.04785144474946398,1007.7109826473248
2.547078857421875,-0.026465251468867,-0.0331523645499721,0.0387239906698465,-0.0021762335672974,-0.0499621629714965,-0.0097015788778662,0.03652925480261,0.0687012434790628,-0.8731448889990674,23.092973709106445,19.76482391357422,-37.40963745117188,-0.04803638463593403,1007.711001721158
2.557147705078125,-0.0109792938496917,-0.0292213817765936,0.0229740483522415,-0.0160539709031581,-0.0532327927649021,-0.0144233535975217,0.0364264987725439,0.0681425132911206,-0.8733072662077392,22.98454093933105,19.476959228515625,-37.205413818359375,-0.048221315554317266,1007.7110207940663
2.567216796875,-0.0208301681913435,-0.0547214780077338,0.0426572384655475,-0.0259361639618873,-0.0369227975606918,-0.0144888665527105,0.0362217062015052,0.0676803040996639,-0.873443205511245,23.090654373168945,19.431686401367188,-37.077545166015625,-0.04840625095674392,1007.711039867437
2.57728564453125,-0.0088315412312746,-0.0605746244827285,0.0447410590022802,-0.0343535393476486,-0.0164009388536214,-0.0084417769685387,0.0358993006022847,0.0674165399525173,-0.8735596577731263,23.0754451751709,19.538070678710938,-36.85812377929688,-0.048591181875127155,1007.7110589403452
2.587354736328125,-0.0044962154407054,-0.0231373856877908,-0.0219651635706424,-0.0206007100641727,-0.0104176141321659,-0.001794260693714,0.0356120350116008,0.0672938397363096,-0.8736398234354253,23.043596267700195,19.641807556152344,-37.10122680664063,-0.0487761172775538,1007.7110780137159
2.597423828125,-0.0026608897723257,-0.0107615959784016,-0.0643845016270875,-0.008165979757905,0.0031324485316872,0.0017856280319392,0.0354548474216599,0.0672587964163717,-0.873684685575103,23.173776626586918,19.73890686035156,-37.189056396484375,-0.04896105267998045,1007.7110970870866
2.60749267578125,-0.029547654588893,0.0029849340949207,-0.1088625257790088,-0.0024031661450862,0.0087003195658326,0.0011973357759416,0.0354222541446924,0.0673303199377197,-0.8736650755897618,23.044336318969727,19.42549133300781,-36.99673461914063,-0.04914598359836369,1007.7111161599948
2.617561767578125,-0.0281217134390026,-0.0090013813728466,-0.120714291614294,0.0048929005861282,0.0013703042641282,0.0039035002700984,0.0354359663267496,0.0673681679288865,-0.8736336689032811,23.232519149780277,19.62163543701172,-36.930999755859375,-0.04933091900079033,1007.7111352333656
2.627630859375,-0.0231453132659196,-0.007901493839547,-0.1069581534624099,0.0078093283809721,-0.0035301786847412,0.0037314598448574,0.0355023887119837,0.0673491023028757,-0.8735827017214464,23.235349655151367,19.570602416992188,-36.908050537109375,-0.04951585440321698,1007.7111543067363
2.63769970703125,-0.0235067669894546,-0.008349602933228,-0.0756897394955158,0.0103545477613806,-0.0038941982202231,-0.0019005292560905,0.0355940835310752,0.0673097717619473,-0.8735141586712492,23.08757781982422,19.188316345214844,-36.711944580078125,-0.049700785321600216,1007.7111733796446
2.647768798828125,-0.0010718670152127,0.0009036708414554,-0.0366471843957901,0.0162502527236938,-0.0065309940837323,4.3312087655e-05,0.0357442888430723,0.0672500220630153,-0.8735118634109933,23.023929595947266,19.347320556640625,-36.854827880859375,-0.04988572072402686,1007.7111924530153
2.657837646484375,0.0224747935932129,0.0096127547368407,-0.0170054953366518,0.0173748657107353,-0.0250176303088665,-0.0023916715290397,0.0359305822021354,0.0670919565803179,-0.8735469794037695,22.9166202545166,19.43675994873047,-36.46939086914063,-0.0500706516424101,1007.7112115259235
2.66790771484375,0.0255984055064618,0.0033429537523537,-0.0318400763750076,0.0150912050157785,-0.0323937870562076,-0.0077102705836296,0.0361000655122919,0.0668035303051407,-0.8736262499324259,22.75687789916992,19.206573486328125,-36.965606689453125,-0.050255604981010386,1007.711230601144
2.677976806640625,0.002471431614831,-0.0025957155816257,0.0073351651936769,0.002877889201045,-0.0120971007272601,-0.0116697354242205,0.0361964600783439,0.0665673906959926,-0.8737301499977888,22.92759323120117,19.34813690185547,-36.71896362304688,-0.05044054038343704,1007.7112496745148
2.688045654296875,-0.0284156548842787,0.0068696665737777,0.0097702833861112,-0.0067217415198683,0.0052840202115476,-0.0178501326590776,0.0361545570742658,0.0665276927160295,-0.8738551828916606,23.048728942871094,19.41150665283203,-36.454681396484375,-0.050625471301820275,1007.711268747423
2.69811474609375,-0.0154225369941443,0.0168860702080652,-0.0014613047242164,-0.0063127046450972,0.0073452820070087,-0.0181285180151462,0.036061992210489,0.0665912797953381,-0.8741482720112241,22.73473358154297,19.62732696533203,-36.814544677734375,-0.05081040670424691,1007.7112878207938
2.70818359375,-0.0001220920097082,0.0170493344783782,0.0183890586495399,-0.0003602737560868,0.0147131830453872,-0.0151654854416847,0.0360175719958309,0.066694457984756,-0.8743383837272234,22.819509506225582,19.377166748046875,-36.96157836914063,-0.05099533762263015,1007.711306893702
2.7182529296875,0.0026795944727957,0.0041426527626812,0.0623702391952276,0.0017806300893425,0.0308173093944787,-0.0089528420940041,0.0360137133024671,0.0669435344156817,-0.8744685284957594,22.91293334960937,19.385009765625,-36.816314697265625,-0.05118027750910021,1007.7113259675352
2.72832177734375,0.0044895665042102,-0.0149580612875521,0.096120533105731,0.0039729448035359,0.0340461246669292,-0.0061767632141709,0.0360343743478241,0.0672634815481868,-0.8745172079756257,22.78581428527832,19.112564086914062,-37.056488037109375,-0.05136520842748345,1007.7113450404435
2.738390869140625,0.0432792428214102,-0.0297418619867414,0.0842260971724987,0.0054704137146472,0.0238690935075283,-0.0056223720312118,0.0360985474019397,0.0675662790673079,-0.8745780849453952,22.877220153808597,19.284576416015625,-37.07583618164063,-0.0515501438299101,1007.7113641138142
2.748459716796875,0.0339255043469369,-0.0568838802060112,0.0640747050255537,-0.001011986285448,0.0053619882091879,-0.0051448671147227,0.036107937175048,0.067711827702189,-0.8746584755814023,22.90362930297852,19.413185119628903,-37.297760009765625,-0.051735074748293336,1007.7113831867224
2.75852880859375,0.0384073259361088,-0.0431088912231847,0.068475570333004,-0.0096273124217987,-0.0115594714879989,-0.0070900400169193,0.0360477138321386,0.0676512165221362,-0.8747310151062395,22.912094116210938,19.38556671142578,-37.071685791015625,-0.051920010150719974,1007.7114022600931
2.76859765625,0.0293047857437282,-0.0380291402734816,0.087377254679799,-0.0140462964773178,-0.0314564779400825,-0.0107809156179428,0.0359247551951633,0.0674187740546609,-0.8749275604775375,22.732458114624023,19.55750274658203,-37.284698486328125,-0.05210494106910321,1007.7114213330013
2.77866650390625,0.0297003609325736,-0.0459871866058558,0.1126601644963026,-0.0133568635210394,-0.0398462936282157,-0.0134090669453144,0.0357692889131213,0.0670565718400003,-0.8752000531506722,22.544958114624023,19.69800567626953,-36.663116455078125,-0.05228987198748645,1007.7114404059096
2.78873583984375,0.0300585997857153,-0.0356253305347636,0.1121142210513353,-0.017964132130146,-0.046331625431776,-0.0120215602219104,0.0356050972388449,0.0666063737008148,-0.8754413947705127,22.39953994750977,19.364959716796875,-37.16818237304688,-0.05247481187395651,1007.7114594797428
2.7988046875,0.008658741947636,-0.0272484012031927,0.0918465090483427,-0.0185970366001129,-0.0481807962059974,-0.0090987337753176,0.0354215930177678,0.0661164466186376,-0.8755588533772143,22.79511833190918,19.347938537597656,-37.21749877929688,-0.052659742792339745,1007.711478552651
2.808873779296875,-0.0017616759102791,-0.0062988078832626,0.0631365473926067,-0.0187970399856567,-0.0318233929574489,-0.004914375487715,0.0352231318569414,0.0657278922136968,-0.8755705540180202,22.795652389526367,19.156471252441406,-37.035552978515625,-0.05284467819476639,1007.7114976260217
2.818943603515625,-0.0130939479161053,-7.31748340651e-05,-0.0014338321954011,-0.0014939121901988,-0.0343163423240184,0.0004351763054728,0.0351254918919468,0.0654328477632838,-0.8755636168111064,22.880970001220703,19.333946228027344,-36.878326416015625,-0.05302962704932327,1007.7115167007798
2.829012939453125,-0.0391495226055383,0.0139290105007588,-0.0167968210220336,0.0134757170453667,-0.0381515622138977,-0.0048562586307525,0.035195330530178,0.0650829908077151,-0.8755519440703393,22.948469161987305,19.36083221435547,-37.193878173828125,-0.053214566935793337,1007.711535774613
2.83908154296875,-0.019384791688621,0.0221967803694307,0.0371884516656398,0.0216355435550212,-0.0260265506803989,-0.0028606890700757,0.0353976647818168,0.0647914625196219,-0.8755859418357748,22.71023750305176,19.18187713623047,-37.14028930664063,-0.05339949337013316,1007.7115548470588
2.84915087890625,-0.0148099580537527,-0.0200843913253396,0.0876817905843257,0.0084417117759585,-0.0204586796462535,-0.0030825303401798,0.0355876437874256,0.0645842330495876,-0.8756007256075815,22.80656623840332,19.339080810546875,-36.86343383789063,-0.05358443325660321,1007.711573920892
2.859219482421875,-0.0034994594883173,-0.0574859012197703,0.1145300500214099,-0.0145723288878798,-0.0015188800171017,-0.0078071085736155,0.0355884522629461,0.0644834647556671,-0.8755822369273099,22.92396354675293,19.358154296875,-36.996185302734375,-0.053769359690943035,1007.7115929933377
2.869288818359375,-0.0318147227380424,-0.0108767467906698,0.1668149485319852,-0.0336424298584461,-0.0018760100938379,-0.0106750670820474,0.0353514861394109,0.064516966051267,-0.8755968662583132,22.82584953308105,19.094810485839844,-37.42526245117188,-0.053954299577413094,1007.7116120671709
2.87935791015625,-0.0007823094841092,0.0062672802338376,0.1029220298141241,-0.0407542660832405,-0.0110017322003841,-0.0106665417551994,0.0349784911577068,0.0644796480217389,-0.8757572536435766,22.539522171020508,19.49787139892578,-37.15640258789063,-0.054139234979839745,1007.7116311405416
2.8894267578125,0.0321079335309565,-0.0384553663289174,0.0639279900312423,-0.0429242104291915,-0.0104214297607541,-0.00635009072721,0.0345529256254543,0.0643746643130091,-0.8759185728250654,22.624805450439453,19.643699645996094,-37.366729736328125,-0.05432416589822298,1007.71165021345
2.899495849609375,0.0233102945692837,-0.0909974910035729,0.065787938684225,-0.0417028740048408,-0.0131184002384543,-0.0061775278300046,0.0341234570499847,0.0642634554253224,-0.876028372798914,22.6735954284668,19.59336853027344,-37.305267333984375,-0.05450910130064962,1007.7116692868207
2.909564453125,-0.013362754920125,-0.1030923083471134,0.06618892070055,-0.0404128432273864,-0.018270019441843,-0.0116612426936626,0.0337138679489167,0.0640801869476074,-0.8760822093502741,22.7847957611084,19.4676513671875,-37.03482055664063,-0.054694027734989444,1007.7116883592664
2.9196337890625,0.010168781184405,-0.1000869525186717,0.0662917965531349,-0.0404522567987442,-0.0240855664014816,-0.0114798806607723,0.0333029354609355,0.0638917884650828,-0.8761853019185522,22.804262161254883,19.56236267089844,-37.040130615234375,-0.05487896762145951,1007.7117074330996
2.929702880859375,0.045598771810159,-0.0830010488895699,0.0241501063942909,-0.0398288071155548,-0.0522247925400733,-0.0115251541137695,0.032908766390553,0.0635272882790632,-0.8763252636097761,22.64603042602539,19.57640838623047,-37.280364990234375,-0.055063903023886154,1007.7117265064703
2.939771728515625,0.0334498496592044,-0.0826791599914431,-0.0256096575528383,-0.0456252507865428,-0.0706542059779167,-0.0180345848202705,0.0324988613763266,0.0629021267275199,-0.8765513336068507,22.52842712402344,19.677467346191406,-37.112335205078125,-0.05524883394226939,1007.7117455793785
2.9498408203125,0.015919417132996,-0.079579038551636,-0.0183089791506528,-0.0529422834515571,-0.0593560077250003,-0.021660478785634,0.0320060170438947,0.0622304192552819,-0.8768688003675129,22.347251892089844,19.729591369628903,-37.201080322265625,-0.05543376934469604,1007.7117646527493
2.959910888671875,0.0315816446345299,-0.0790236331585794,-0.0361117623448371,-0.0604236721992492,-0.0334466807544231,-0.0167952142655849,0.0314367568228768,0.0617755003664419,-0.8771258557815018,22.412729263305664,19.650901794433597,-37.38131713867188,-0.05561872268329633,1007.7117837279698
2.969979736328125,0.0297541004138067,-0.0753200476665981,-0.0999631800085306,-0.0653854012489318,-0.0197958499193191,-0.0155898686498403,0.0308222968172328,0.0615175591748984,-0.8773228476038976,22.4871768951416,19.669754028320312,-37.459320068359375,-0.05580365360167957,1007.7118028008781
2.980048828125,0.0329393428537994,-0.0973053407098166,-0.1178793604493141,-0.0563589520752429,0.0065736449323594,-0.0145825296640396,0.0302586258602777,0.0614815328301414,-0.8774642081673889,22.65083122253418,19.748390197753903,-36.944244384765625,-0.055988589004106214,1007.7118218742488
2.99011767578125,0.0177189408356323,-0.1390357283877208,-0.0860077198922634,-0.0399363003671169,0.0343887619674205,-0.0111502483487129,0.0298025440436349,0.0617057529404421,-0.8775809630373683,22.671689987182617,19.70313262939453,-37.319183349609375,-0.05617351992248945,1007.711840947157
3.000186767578125,0.0240781371366232,-0.1631440414668992,-0.0361807359278202,-0.0329383835196495,0.0419704429805278,-0.0096052112057805,0.029480269101619,0.0621105126641798,-0.8776830801375823,22.658435821533203,19.78307342529297,-36.828643798828125,-0.056358455324916096,1007.7118600205278
3.010255859375,0.0446503485115244,-0.1748382421202957,0.0326350261449813,-0.0255201496183872,0.0275768563151359,-0.0112260114401578,0.0292337315454273,0.0625003863038105,-0.877782023737393,22.753246307373047,19.813507080078125,-36.692169189453125,-0.05654339072734274,1007.7118790938985
3.02032470703125,0.0770716223079711,-0.2227569447780027,0.0924596725106239,-0.0300040394067764,0.0012236204929649,-0.0090601993724703,0.029001211981411,0.062658036480018,-0.8779830650564782,22.33477020263672,19.78929901123047,-36.80831909179688,-0.05672832164572598,1007.7118981668067
3.030393798828125,0.0855011586096137,-0.2167401504402048,0.1296960549712181,-0.0394923500716686,-0.018998559564352,-0.0120088513940572,0.0286991049588418,0.0625912128564092,-0.8781701568300134,22.483339309692383,19.903831481933597,-36.897308349609375,-0.05691325704815263,1007.7119172401774
3.040462646484375,0.0732643389794975,-0.1910660128164105,0.1022550903379917,-0.043607372790575,-0.0244361069053411,-0.0198913402855396,0.0283109964985587,0.0623729698979403,-0.8783750271046127,22.54819869995117,19.92266082763672,-36.81661987304688,-0.05709818796653586,1007.7119363130856
3.05053173828125,0.0919558146417141,-0.14705924117174,0.0617927315682172,-0.0397937260568141,-0.0222965236753225,-0.0172292441129684,0.0279154713237215,0.0621595079358239,-0.8786098051051983,22.48695945739746,19.8004150390625,-37.23989868164063,-0.057283123368962505,1007.7119553864563
3.0606005859375,0.0736996251242235,-0.1564136372333392,0.0287976399391889,-0.0312031004577875,-0.0220615677535533,-0.0184485726058483,0.0276023362759261,0.0619295982133632,-0.8788736231061467,22.350557327270508,19.854736328125,-37.244903564453125,-0.05746805428734574,1007.7119744593646
3.070669677734375,0.0446035502277314,-0.1950079005762934,0.0415624289661645,-0.030414005741477,-0.021785132586956,-0.0168072655797004,0.0273440896283249,0.0617218285363825,-0.8790743544620695,22.53338432312012,19.83612823486328,-37.227935791015625,-0.05765298968977239,1007.7119935327354
3.08073974609375,0.0313781944843009,-0.1771838005994446,0.0705114600747823,-0.0302205868065357,-0.0345048457384109,-0.0171128660440444,0.0271016123130805,0.0614672826581718,-0.8792787210360484,22.53127670288086,19.807472229003903,-37.176849365234375,-0.05783794302837268,1007.7120126079559
3.09080859375,0.0409575584081932,-0.1584363934989087,0.0997059903770685,-0.0404817461967468,-0.0446267239749431,-0.0194857418537139,0.0268159500098627,0.0610689331210356,-0.8794844725562901,22.65937614440918,20.0372314453125,-36.778167724609375,-0.05802287394675591,1007.7120316808641
3.100877685546875,0.0443848294431343,-0.2016415116381831,0.1051198321193456,-0.0483093783259391,-0.0378849990665912,-0.0226230788975954,0.0264384384974562,0.0606874754135803,-0.8796879904165914,22.58963203430176,19.97405242919922,-36.62466430664063,-0.058207809349182564,1007.7120507542348
3.110947021484375,0.0269717031536623,-0.1454875348756089,0.0292149885684251,-0.0400035083293914,-0.0255495011806488,-0.0265467148274183,0.0260456417093152,0.0604172307080177,-0.8799204640557353,22.457576751708984,19.782379150390625,-37.164886474609375,-0.05839274923565263,1007.712069828068
3.12101611328125,0.0036570977354422,-0.0857037137106992,-0.0686725542098283,-0.0184908658266067,-0.0094590540975332,-0.0269051101058721,0.0258094177303672,0.060306869004088,-0.8802327685998007,22.37396049499512,19.87457275390625,-36.956329345703125,-0.058577684638079275,1007.7120889014387
3.131085205078125,0.0485187143774703,-0.1238040560568682,-0.1143652148485183,-0.0095988353714346,-0.0206741578876972,-0.0298907794058322,0.0257084080670918,0.0601874080024174,-0.8805719164880066,22.427982330322266,19.99401092529297,-37.182708740234375,-0.05876262004050592,1007.7121079748094
3.14115380859375,0.0210682512635365,-0.185669743263442,-0.0569704259783029,0.0049024112522602,-0.0140894204378128,-0.0327255800366401,0.0257170047514972,0.0600413369429559,-0.8809125124412246,22.327451705932617,19.78356170654297,-37.016021728515625,-0.058947546474845736,1007.7121270472552
3.15122314453125,0.0091823274303227,-0.1834157172589562,0.0237175601959228,0.0108838714659214,-0.0112116085365414,-0.0310318116098642,0.0258553463425596,0.0599258086687606,-0.8812756306900266,22.411176681518555,19.888450622558597,-36.993072509765625,-0.0591324863613158,1007.7121461210884
3.1612919921875,0.0148200410563498,-0.1953445669184438,0.1024590884774923,0.0065885270014405,-0.0126507086679339,-0.0296968985348939,0.0259970206903714,0.0598086605136164,-0.8815900799329321,22.56494903564453,19.93927764892578,-37.080169677734375,-0.05931741727969904,1007.7121651939967
3.171361083984375,0.0430388581942766,-0.2387683327770791,0.1621732602059841,-0.0024326657876372,0.0038100234232842,-0.0291203241795301,0.0260551343063171,0.0597692834416793,-0.8819121155458832,22.345474243164062,19.7989501953125,-37.092071533203125,-0.059502352682125684,1007.7121842673674
3.181429931640625,0.1018813981873914,-0.2613916314628906,0.1701619208723306,-0.0091120395809412,0.0215768665075302,-0.0308429263532161,0.0260370118182276,0.0599338852321562,-0.8822131851249944,22.515161514282227,19.89765930175781,-37.15737915039063,-0.05968728360050892,1007.7122033402757
3.191500244140625,0.1518210487460717,-0.2991256429810077,0.0771773477047681,-0.0127224866300821,0.0011155344545841,-0.0304956510663032,0.0259428438223172,0.0600753828324751,-0.882520075286938,22.40409278869629,19.80998992919922,-37.31222534179688,-0.059872241423152624,1007.7122224159586
3.20156884765625,0.1377598632330074,-0.3153735979486257,0.0829360573619604,-0.024518959224224,-0.0133989630267024,-0.0444050729274749,0.0257660556569299,0.0600287443309226,-0.8828953428630154,22.357755661010746,19.809814453125,-37.213897705078125,-0.06005716785749245,1007.7122414884044
3.21163818359375,0.1156821426659822,-0.320761866858229,0.1175146187901496,-0.0374398194253444,-0.0212427712976932,-0.0535037629306316,0.0254606424001888,0.0598836400290513,-0.8833715290812095,22.48207664489746,19.88409423828125,-37.33950805664063,-0.06024210774396251,1007.7122605622376
3.22170703125,0.1647312010604888,-0.3137692314919084,0.0762929660856723,-0.0415480732917785,-0.0306861363351345,-0.0591612458229064,0.0250749383852982,0.05965696916778,-0.8839111670337676,22.403987884521484,19.823814392089844,-36.972015380859375,-0.060427038662345736,1007.7122796351458
3.231776123046875,0.1765866932228207,-0.3220934807881713,0.0077887541800737,-0.0415227748453617,-0.057602971792221,-0.0652668103575706,0.0246837468400504,0.0592553530468406,-0.8845722960721475,22.289325714111328,19.99838256835937,-37.236724853515625,-0.06061197406477239,1007.7122987085166
3.24184521484375,0.2028103910207748,-0.3357510174037888,-0.0380044442236423,-0.038669005036354,-0.0664066597819328,-0.0711416155099868,0.0243132929302198,0.0586394206125386,-0.8852035217147252,22.45965385437012,19.896751403808597,-36.918365478515625,-0.06079690946719904,1007.7123177818874
3.2519140625,0.2367285523114725,-0.3047302215224132,-0.0389607220351696,-0.0350007638335228,-0.050281748175621,-0.0769385173916816,0.0239821736843643,0.0580936086441826,-0.8859028900525635,22.45033073425293,19.957740783691406,-37.176849365234375,-0.06098184038558227,1007.7123368547956
3.261983154296875,0.2321304473988711,-0.2532336421116255,-0.0565495702177286,-0.016111159697175,-0.0256239976733922,-0.0783581137657165,0.0238011857949028,0.0577834284089754,-0.8865797594802929,22.32146644592285,19.601585388183597,-37.391021728515625,-0.06116677578800892,1007.7123559281663
3.2720517578125,0.2419165128760039,-0.2836990143336355,-0.0349509018719196,-0.0075975656509399,-0.0072348704561591,-0.0826412737369537,0.02374632224336,0.0577161063718482,-0.8873974363634387,21.98312759399414,19.771690368652344,-37.04171752929688,-0.061351702222348745,1007.712375000612
3.28212109375,0.2680585602724925,-0.3084878204902634,-0.0387269132792949,0.0101827308535575,-0.0028518713079392,-0.0878728479146957,0.0238125767811224,0.0577513250294607,-0.8882162995637182,22.206026077270508,19.810287475585938,-36.996856689453125,-0.0615366421088188,1007.7123940744452
3.292190185546875,0.310476656219922,-0.342349100494571,-0.0280710792303085,0.0229406040161848,0.0115153491497039,-0.0971236079931259,0.0240371223808186,0.0578667260727768,-0.8891842667792325,22.076011657714844,19.997100830078125,-36.73062133789063,-0.06172157751124545,1007.7124131478159
3.302260009765625,0.3129261682638898,-0.3659438745610415,0.0751052176058292,0.0248235221952199,0.0232208017259836,-0.0962227955460548,0.024332019010819,0.0581366917336494,-0.89017832984772,22.0518798828125,19.88964080810547,-36.997650146484375,-0.061906526365802336,1007.7124322225741
3.3123291015625,0.3300545958604663,-0.3613059856273233,0.1776256808817386,0.0182748101651668,0.03611795976758,-0.0983085855841636,0.02460667255923,0.0585121910499249,-0.8911365431356036,22.208499908447266,19.924362182617188,-37.18472290039063,-0.062091461768228974,1007.7124512959448
3.322398193359375,0.3652888447184115,-0.3359612626209854,0.2149655237168073,0.0042401179671287,0.0586830973625183,-0.0999916344881057,0.0247650151615749,0.0590863453812039,-0.8921555747490201,22.16274642944336,20.07878875732422,-36.96920776367188,-0.062276397170655626,1007.7124703693155
3.332467041015625,0.3920884792407974,-0.3274485780805349,0.1456856512635946,-0.0025687860324978,0.0678209289908409,-0.1058332771062851,0.0248091022970444,0.0598341627471401,-0.8931604221158674,22.201879501342773,19.92015838623047,-37.165802001953125,-0.062461328089038856,1007.7124894422237
3.3425361328125,0.4224305721430108,-0.370957538004592,0.0385638316720724,-0.0091502210125327,0.0618951693177223,-0.1034680530428886,0.0247516789599902,0.0605868536136239,-0.8941792160246188,22.17525863647461,19.969215393066406,-36.951202392578125,-0.06264626349146551,1007.7125085155944
3.35260498046875,0.4499615531472489,-0.3965741002222523,-0.057872927775979,-0.015199857763946,0.0507477074861526,-0.1089360564947128,0.0246571887750819,0.0612444985658391,-0.8953063939809808,21.97790908813477,20.069786071777344,-37.280792236328125,-0.06283119440984875,1007.7125275885027
3.362674072265625,0.4217985943824052,-0.3905721198610961,-0.1474760418117046,-0.0205714553594589,0.0266927033662796,-0.1172847971320152,0.0245062381683435,0.0617520953607075,-0.8964390069155022,22.148401260375977,20.089645385742188,-37.182403564453125,-0.06301612981227539,1007.7125466618734
3.372742919921875,0.4226623716048896,-0.3781158853266388,-0.1912625765681266,-0.0185810066759586,-0.009868768043816,-0.1158613413572311,0.0243420428205278,0.0619694224371204,-0.8976010603181125,21.98572158813477,19.91602325439453,-37.11813354492188,-0.06320106073065862,1007.7125657347816
3.382812255859375,0.3958856065014377,-0.3872833805140108,-0.2085270151019096,-0.0072144363075494,-0.0343286357820034,-0.1112627238035202,0.0242616877040136,0.0618461042049159,-0.898716353495726,22.116914749145508,19.97421264648437,-37.13766479492188,-0.06338600061712868,1007.7125848086148
3.392881103515625,0.3683724899474531,-0.3687319709096103,-0.1639350091814994,-0.0065414570271968,-0.0391351096332073,-0.1082331165671348,0.0242613149281439,0.0615993609439501,-0.8998215382485945,22.114093780517575,20.1048583984375,-37.39328002929688,-0.06357093153551192,1007.712603881523
3.402950927734375,0.3290855316326022,-0.3248588538482785,-0.1652677190899849,-0.0083573311567306,-0.042401872575283,-0.0949220955371856,0.0242490422048484,0.0613324566162855,-0.9007203405650316,22.23160552978516,20.181365966796875,-37.342620849609375,-0.0637558803900688,1007.7126229562812
3.41302001953125,0.316938143851608,-0.2878609928512946,-0.2209112803786992,-0.0191005244851112,-0.035562876611948,-0.0832987427711486,0.0241765360828413,0.0610751174171675,-0.9016554593524708,22.069211959838867,20.43348693847656,-37.12741088867188,-0.06394081579249544,1007.7126420296519
3.42308935546875,0.2931493085177615,-0.2198490945072844,-0.3140641958504915,-0.0251600816845893,-0.008152893744409,-0.0670767575502395,0.0240316977860611,0.0610133727396764,-0.9023976801846372,22.13496780395508,20.29624938964844,-37.287200927734375,-0.0641257556789655,1007.7126611034851
3.433157958984375,0.2722697116941213,-0.1432258552876301,-0.4496750278234481,-0.0202388241887092,0.0069349794648587,-0.0569687336683273,0.0238646985846788,0.061143637135637,-0.9030448964890464,21.8618106842041,20.272010803222656,-37.223541259765625,-0.06431068211330533,1007.7126801759308
3.44322705078125,0.2381993920490145,-0.0892862666388973,-0.5690799904048442,0.001556453295052,0.0266636423766613,-0.0495811849832534,0.0238260565805273,0.0613987335747659,-0.903649041580222,21.89439582824707,20.40611267089844,-37.417083740234375,-0.06449561751573198,1007.7126992493015
3.4532958984375,0.2329761409753933,-0.0958103894443251,-0.5236076945185661,0.0305492226034402,0.0495125018060207,-0.0274130348116159,0.0240000613741907,0.0618563136964831,-0.9040505697338796,22.095672607421875,20.47197723388672,-37.289825439453125,-0.06468054843411522,1007.7127183222098
3.463364990234375,0.1906462713006883,-0.0766719371995888,-0.3861982886910438,0.0774470865726471,0.0741942748427391,-0.0164259020239114,0.0245785224962944,0.0625435764411805,-0.9042875626516343,21.91156005859375,20.13539123535156,-36.884552001953125,-0.06486548383654187,1007.7127373955805
3.473434326171875,0.1596578433189541,-0.0517365073801949,-0.151263159134984,0.1092787832021713,0.0772116333246231,-0.0065538301132619,0.0255651405784054,0.0633570814811104,-0.9045062665638176,21.795846939086918,20.13097381591797,-37.068756103515625,-0.06505042372301192,1007.7127564694136
3.4835029296875,0.1154248069040477,-0.1543460919779725,0.1269669222682714,0.1159476414322853,0.0900483801960945,0.007552751339972,0.0267447352931539,0.0642247777982159,-0.9045017323519652,22.145902633666992,20.00819396972656,-37.098724365234375,-0.06523535015735174,1007.7127755418595
3.493572998046875,0.0692051997818052,-0.210266259984672,0.3603109832406044,0.1099928095936775,0.0625304728746414,0.016964629292488,0.0279246221268158,0.065050987801489,-0.9043565096628988,22.167634963989254,19.795623779296875,-37.217376708984375,-0.06542030349595203,1007.71279461708
3.50364208984375,0.0523503649622201,-0.271651652861014,0.4899222825378179,0.0883952751755714,0.0205336511135101,0.022181287407875,0.028974438135043,0.0654910248445146,-0.9041687443659157,22.02638816833496,19.808311462402344,-37.22750854492188,-0.06560523889837869,1007.7128136904507
3.513711181640625,0.0201039728086441,-0.2566224990986287,0.5930301903128624,0.0564160346984863,-0.0005932068452239,0.0161665380001068,0.0297291110177072,0.0656071658628894,-0.9040187430256336,22.22176742553711,20.09929656982422,-37.23434448242188,-0.06579017430080533,1007.7128327638214
3.523780029296875,-0.0130004244137555,-0.1859579308213666,0.5796633437395096,0.0366966947913169,-0.0233996920287609,0.0136943869292736,0.030190713290592,0.0654739078268419,-0.9039395081117738,22.104639053344727,20.071273803710938,-37.680694580078125,-0.06597510521918856,1007.7128518367297
3.53384912109375,-0.0303833016954362,-0.1565515478666871,0.4461035990774631,0.0299501102417707,-0.0255496613681316,0.0170513000339269,0.0305191946459452,0.0652170366113326,-0.9039189713266432,21.897815704345703,20.23429107666016,-37.64175415039063,-0.0661301385536759,1007.7128709100638
3.54391796875,-0.0640032472245395,-0.0837741156212985,0.3155208243995904,0.0317217111587524,-0.0220033302903175,0.0170650146901607,0.0308452451936079,0.0649832593671113,-0.9038736130143822,21.8891544342041,20.20880126953125,-37.35690307617188,-0.06626227521348843,1007.7128899829072
3.5539873046875,-0.092993779387325,-0.0067950304349884,0.2150952875763177,0.0362173914909362,-0.0049662897363305,0.0157635286450386,0.0312030311379412,0.0648422888557459,-0.9039031710431854,21.801315307617188,20.339599609375,-37.245635986328125,-0.06639441828116961,1007.7129090566757
3.56405615234375,-0.0686897245403379,0.0397470866398885,0.1230313363850116,0.0466683730483055,0.0182401705533266,0.0186737067997455,0.0316309809795654,0.0649285337218006,-0.9038533161877312,21.87501716613769,20.16350555419922,-37.020111083984375,-0.06652655494098214,1007.7129281295192
3.574125,-0.061348348801583,0.0497183724908158,0.044049569606781,0.0535976514220237,0.0115902572870254,0.0268157888203859,0.0321597589313132,0.0650969914080398,-0.9037488806964104,21.82571601867676,19.989830017089844,-37.32876586914063,-0.06665869160079467,1007.7129472023627
3.58419482421875,-0.0967974825192242,0.0856955486705526,0.0292559051007032,0.0619315430521965,0.0135296424850821,0.0368331521749496,0.0327922431307531,0.0652191954277714,-0.903536983130438,22.046039581298828,20.12007141113281,-37.365753173828125,-0.06679084107634453,1007.712966277056
3.59426416015625,-0.1213591653890907,0.0870075445845723,0.0871726720184087,0.0614282079041004,0.0079599069431424,0.0432082265615463,0.033475719573523,0.0653299348942905,-0.9032341600139462,22.12904930114746,20.081588745117188,-37.31198120117188,-0.06692298414402573,1007.7129853508245
3.604333251953125,-0.1098128122411668,0.1026224988782778,0.1089613099783659,0.0512029975652694,0.0003206259571015,0.0503457561135292,0.0340765235096185,0.0653440773188029,-0.902831191933599,22.127666473388672,20.06434631347656,-37.136016845703125,-0.06705512400777258,1007.7130044241304
3.61440185546875,-0.1701254613194614,0.1850360302034765,0.0984141970008611,0.0275133829563856,0.0230301991105079,0.0513063594698905,0.0345308031975067,0.0654530977635813,-0.9023476547085432,22.193063735961918,19.91388702392578,-37.153656005859375,-0.06718725746365077,1007.7130234965115
3.62447119140625,-0.1693409598782658,0.2475143328830599,0.0291769946455955,0.0056837182492017,0.0346530303359031,0.0579757057130336,0.0347373907509015,0.0657405600307838,-0.901749918426754,22.462570190429688,19.83740997314453,-36.987640380859375,-0.06731940053133197,1007.7130425702799
3.634539794921875,-0.1585620109062641,0.2574849246142432,-0.0963058265447616,0.0002881539985537,0.0352482460439205,0.0658559948205947,0.0347928389825757,0.0660768051735192,-0.9010910531257508,22.434240341186523,19.964767456054688,-36.841827392578125,-0.06745153398721017,1007.7130616426609
3.644609130859375,-0.1907509007189422,0.2568822094807401,-0.1690600971102714,-0.0014373762533068,0.0222490318119525,0.0671088993549346,0.0348229490698792,0.0663387217197828,-0.9004482052317515,22.32468032836914,20.019515991210938,-36.842803955078125,-0.06758367705489135,1007.7130807164294
3.65467822265625,-0.1854505292885005,0.2730410979254171,-0.1317611708074808,-0.002497580833733,0.0169413518160581,0.0665160790085792,0.0348380163890949,0.0665006257537307,-0.8998383461197507,22.164329528808597,19.95987701416016,-37.005950927734375,-0.06771581691863822,1007.7130997897353
3.6647470703125,-0.1909735304936766,0.2631594996519387,-0.0315916545718908,-0.014072342775762,0.031233599409461,0.0683054402470588,0.0347763799321885,0.0666674206355079,-0.8991905461775276,22.069395065307617,19.744606018066406,-36.79293823242188,-0.06784795357845073,1007.7131188625789
3.67481689453125,-0.2431298341885208,0.2908119516113773,0.0876467192709445,-0.0292845852673053,0.051859512925148,0.0543390288949012,0.0345595161053957,0.0670425924637921,-0.8985724277570661,22.16590118408203,19.67914581298828,-37.109649658203125,-0.0679801030540006,1007.7131379372722
3.68488623046875,-0.2522091396357864,0.284833169462718,0.1252004971176386,-0.0471079237759113,0.0425764024257659,0.0396967083215713,0.0341632425314348,0.0674804704411557,-0.8980255501470114,22.399789810180664,19.68860626220703,-37.121490478515625,-0.06811224612168179,1007.7131570110406
3.694955078125,-0.3511728602781891,0.2759971347194165,0.1086591121613979,-0.0656099617481231,0.0093063320964574,0.0186502784490585,0.0335517770766749,0.067683443341276,-0.897708576389601,22.25059127807617,19.63412475585937,-37.201507568359375,-0.06824438278149432,1007.7131760838842
3.705024169921875,-0.4067242863040417,0.2059466797525063,0.1998416043430566,-0.0790306702256202,-0.0201830882579088,0.0037286439910531,0.0327405720525984,0.0675475815689394,-0.8975489362259594,22.25773048400879,19.65032196044922,-36.96505737304688,-0.06837652264524118,1007.7131951571902
3.715093017578125,-0.4582333050712943,0.154251308100298,0.2962725185722112,-0.0861495658755302,-0.0331787802278995,-0.0155001785606145,0.03181738240473,0.067212375927948,-0.8975226875145472,22.27173614501953,19.684326171875,-36.696075439453125,-0.0685086593050537,1007.7132142300336
3.725162109375,-0.5398652210321278,0.134615263330657,0.3726975866049528,-0.07868243008852,-0.0356146022677421,-0.0310313813388347,0.0308979901579164,0.0667901470565227,-0.8977011830566632,22.297948837280277,19.87127685546875,-36.48013305664063,-0.06864079916880056,1007.7132333033396
3.735231201171875,-0.564690231013298,0.0646084465760737,0.4584872798323631,-0.0733997821807861,-0.0230498053133487,-0.0439610294997692,0.0300455029430575,0.0664196918228269,-0.8980406612261571,22.36959457397461,20.09491729736328,-36.514068603515625,-0.06877293903254743,1007.7132523766455
3.7452998046875,-0.6130209120053798,0.0238873455385677,0.5488993721634149,-0.0803772360086441,0.0031615863554179,-0.0565340258181095,0.029219163061776,0.0662801457055477,-0.8985288372737963,22.282594680786133,20.126365661621094,-36.699249267578125,-0.06890507248842562,1007.7132714490266
3.755369140625,-0.6479941718395799,-0.0514657093484886,0.5778554175347089,-0.1035568565130233,0.0155820362269878,-0.0700839161872863,0.0282182258914969,0.0663657430956592,-0.899107105128522,22.24173164367676,19.941177368164062,-36.78628540039063,-0.06903721555610681,1007.7132905227951
3.76543798828125,-0.6326484994739293,-0.117637423185911,0.5092781403928995,-0.1453433185815811,0.0136519111692905,-0.0840737745165824,0.0268869562336484,0.0665231382824922,-0.8998215600566064,22.25613594055176,20.099571228027344,-36.830657958984375,-0.06916935221591934,1007.7133095956385
3.775508056640625,-0.6078131142292171,-0.1247366607318632,0.3834481132000684,-0.1916991025209427,-0.0161270219832658,-0.089418739080429,0.0251095775307526,0.0665052073700935,-0.900571766452074,22.268991470336918,20.009483337402344,-36.61251831054688,-0.06930150489540353,1007.7133286707943
3.7855771484375,-0.568110195524618,-0.1449492450141347,0.2066156285226345,-0.2351458221673965,-0.053539540618658,-0.0844322890043258,0.0228799762891717,0.0660989356216815,-0.9013034972462396,22.293968200683597,20.20272827148437,-36.613677978515625,-0.0694336447591504,1007.7133477441004
3.79564599609375,-0.5105922917313873,-0.1769665959184989,0.0078793550729751,-0.2585757672786712,-0.0401212014257907,-0.0655219778418541,0.0203316837849903,0.065569426649751,-0.9018276493639736,22.46040725708008,20.257888793945312,-36.20962524414063,-0.06956578141896291,1007.7133668169438
3.805715087890625,-0.4703473751045763,-0.1982945027652196,-0.2206365550905465,-0.2586256861686706,-0.0198767855763435,-0.03705545514822,0.0176833405286424,0.0651998484248858,-0.9021896062295472,22.00804328918457,20.242340087890625,-36.53781127929688,-0.06969792128270978,1007.7133858902498
3.8157841796875,-0.3742152246262878,-0.176209384343028,-0.400114585840702,-0.2348537892103195,-0.004386774264276,-0.0114390412345528,0.0151743161813667,0.0649917311949082,-0.9023084139603628,22.10433006286621,20.611793518066406,-36.703887939453125,-0.06983006114645664,1007.7134049635558
3.82585302734375,-0.3516965188261121,-0.144702576776687,-0.5287824668079615,-0.190823346376419,0.0116354646161198,0.0209854654967784,0.0130463261754702,0.0649517133671908,-0.902089414940682,22.065570831298828,20.431114196777344,-36.518646240234375,-0.06996219780626917,1007.7134240363993
3.835922119140625,-0.3220590670619159,-0.192426505780965,-0.578541646233201,-0.1449421495199203,0.043589137494564,0.0478378534317016,0.0114145830999765,0.0651482744656332,-0.9015934964112502,22.15421485900879,20.51270294189453,-36.724151611328125,-0.07009433767001602,1007.7134431097053
3.845990966796875,-0.2843162694491445,-0.2255863229850307,-0.5239882182687521,-0.1091941967606544,0.0670993328094482,0.0673134326934814,0.0102151592939687,0.0656791762241812,-0.9009227491982508,22.1015567779541,20.64849853515625,-36.400909423828125,-0.07022647432982855,1007.7134621825487
3.85606103515625,-0.2744675870645791,-0.2551278035614639,-0.492879963299632,-0.0749571323394775,0.0601261109113693,0.0751609802246093,0.009369471746291,0.0662931418081858,-0.900134928152935,21.975292205810547,20.61943817138672,-36.119232177734375,-0.07035862700931274,1007.7134812577045
3.866130126953125,-0.2590147279974073,-0.323576705083251,-0.4024339686989784,-0.0533573329448699,0.0387896299362182,0.0760674551129341,0.0087830366043975,0.0667321834542164,-0.8993085296737674,22.22281265258789,20.68065643310547,-36.165313720703125,-0.07049076687305961,1007.7135003310106
3.876198974609375,-0.214856583449617,-0.4502949132874608,-0.1981383075565099,-0.0306224599480628,0.0099928695708513,0.0728455632925033,0.0084346053102452,0.0669445481880301,-0.8985084172668727,22.2396183013916,20.71894836425781,-36.026153564453125,-0.07062290353287212,1007.7135194038541
3.88626806640625,-0.225962134027481,-0.533675207285583,0.018118425014615,-0.0143457511439919,-0.0038851373828947,0.0615239031612873,0.0082787333986908,0.0669171900754925,-0.8977674292463592,22.41311836242676,20.75238800048828,-36.274322509765625,-0.07075504339661899,1007.71353847716
3.896337158203125,-0.2295176345519721,-0.5561703860796988,0.1809831746160984,-0.0119299972429871,-0.0026297233998775,0.040713433176279,0.0081973844457342,0.0668370179128931,-0.8972963465768943,22.213645935058597,20.94518280029297,-36.155120849609375,-0.07088718326036585,1007.713557550466
3.906406005859375,-0.2252140190739184,-0.6104647612491623,0.279929871058464,-0.0170202292501926,-0.0003379331901669,0.0268005672842264,0.0080930247245985,0.0667947486821472,-0.8970087360843656,22.15376281738281,20.90917205810547,-36.183135986328125,-0.07101931992017838,1007.7135766233095
3.91647509765625,-0.2448543198935687,-0.6826619459211826,0.3494014666914939,-0.0234829224646091,-0.0020103983115404,0.0086918724700808,0.0079331005807849,0.0667526407251222,-0.8968238158248296,22.234703063964844,20.79004669189453,-35.841522216796875,-0.07115145978392523,1007.7135956966155
3.9265439453125,-0.3239432003080845,-0.6941620487745851,0.3861374984145164,-0.033824011683464,-0.0055899992585182,-0.0049747703596949,0.0076759413865272,0.0666689367075969,-0.8968039258258624,22.165258407592773,20.7281494140625,-35.765899658203125,-0.07128359644373776,1007.713614769459
3.9366142578125,-0.35807409103401,-0.7225812838554382,0.4501175108939409,-0.0392837561666965,0.0016567283309996,-0.0115993833169341,0.0073261885125421,0.0665783903881411,-0.8969048464927383,22.03392219543457,20.65612030029297,-36.05734252929688,-0.07141575232715629,1007.7136338450772
3.94668310546875,-0.3936219358857721,-0.777413309565559,0.4822790743082761,-0.0335479415953159,0.0184502657502889,-0.013651255518198,0.0069686382607615,0.0666326605431206,-0.8970316937872876,22.07956886291504,20.665542602539062,-35.931732177734375,-0.07154788898696882,1007.7136529179207
3.956751953125,-0.4661408633254468,-0.8248822591617703,0.5516694213986396,-0.0193599499762058,0.0505072697997093,-0.0153191927820444,0.0067362980573984,0.0669480596109156,-0.8972033610855126,22.250534057617188,20.936241149902344,-36.257659912109375,-0.07168002564678135,1007.7136719907643
3.966821044921875,-0.4571224212199449,-0.8442752341568469,0.5976420680224895,-0.0017398465424776,0.0789675116539001,-0.0123101416975259,0.0066508512088301,0.0675862514398827,-0.8973096876967508,22.323678970336918,20.782066345214844,-35.974578857421875,-0.0718121655105282,1007.7136910640702
3.976889892578125,-0.4392980107158422,-0.8506981068111955,0.595680997082591,0.0044157840311527,0.1012839972972869,-0.0053848577663302,0.0067130635876642,0.0685021531264877,-0.8972694506072273,22.60751724243164,20.60971069335937,-35.884613037109375,-0.07194430217034073,1007.7137101369137
3.986959228515625,-0.4046202997621148,-0.8497690092675387,0.5358522590637207,-0.0008141305297613,0.1108074635267257,0.0034650824964046,0.0067925536061868,0.0695614885847879,-0.8971595159414792,22.645193099975582,20.61532592773437,-35.937652587890625,-0.07207644523802191,1007.7137292106821
3.997028076171875,-0.3656825932763516,-0.8497370066940784,0.4283119217991828,-0.0248931013047695,0.0959824472665786,0.0080880634486675,0.00675004341001,0.0705830893591014,-0.897056888432914,22.34947204589844,20.6634521484375,-36.025909423828125,-0.07220858189783444,1007.7137482835257
4.00709716796875,-0.3553259613696485,-0.8377339227546006,0.3042857291579246,-0.049494881182909,0.0858046039938926,0.0167943984270095,0.0064633842457868,0.0714363872757849,-0.896842442101013,22.678117752075195,20.724891662597656,-35.987945556640625,-0.07234072176158131,1007.7137673568317
4.017166015625,-0.3414817796081304,-0.8259975999925285,0.1634235525280237,-0.0680408775806427,0.0698429495096206,0.0311360545456409,0.0059664246782772,0.0721931701842981,-0.8965071402801881,22.72536849975586,20.86195373535156,-36.15591430664063,-0.07247285842139384,1007.7137864296751
4.027236328125,-0.3314480960454791,-0.8087027663204819,-0.0133434656977653,-0.0803961083292961,0.04193751886487,0.0379555597901344,0.0053343669355921,0.0727275688144146,-0.8962051758139957,22.43115997314453,21.16614532470703,-36.431671142578125,-0.07260501430481237,1007.7138055052934
4.037304931640625,-0.3060764850322157,-0.8013084913507104,-0.0815618463993072,-0.0867847651243209,0.0170236490666866,0.0600486136972904,0.0046082597076264,0.0729636237683633,-0.8957343174323444,22.43090057373047,21.031028747558597,-36.22067260742188,-0.07273714776069055,1007.7138245776745
4.047374267578125,-0.2701602452594787,-0.8293436224848032,-0.1061608656048774,-0.0763606205582618,0.0180966388434171,0.0821861550211906,0.0039162137420644,0.073085479290935,-0.8949655207822063,22.601661682128903,21.02472686767578,-35.803131103515625,-0.07286929082837174,1007.7138436514429
4.05744287109375,-0.2786110435448586,-0.8556363669309764,-0.1239350072264671,-0.0638405680656433,0.0303562339395284,0.1068811118602752,0.0033713249934294,0.0732761874834151,-0.8939850600163356,22.640525817871094,21.068771362304688,-35.766998291015625,-0.07300142428424994,1007.7138627238239
4.06751220703125,-0.2517387456450611,-0.8776565486244857,-0.1045452471017837,-0.0559834763407707,0.0453913360834121,0.133043110370636,0.0029722031768596,0.0735884927358377,-0.8928046231116163,22.48859977722168,21.080062866210938,-35.629730224609375,-0.07313356735193113,1007.7138817975924
4.077581298828125,-0.2505303927686065,-0.8906051697857678,-0.1081476555079221,-0.0578841716051101,0.0520135536789894,0.1494010537862777,0.0026283764587711,0.0740309880299315,-0.8914739478702846,22.305591583251957,21.081565856933597,-35.329559326171875,-0.07326570721567799,1007.7139008708983
4.08764990234375,-0.2572493988253176,-0.9160000155441462,-0.1188192716479301,-0.0656473860144615,0.0578487031161785,0.1665925979614257,0.0022666047253363,0.0745190533390383,-0.8899535780598502,22.444307327270508,21.14955139160156,-35.550994873046875,-0.07339784067155618,1007.7139199432794
4.09771923828125,-0.2321351966392248,-0.9434862806238232,-0.1089355910152196,-0.0808545723557472,0.076586976647377,0.1762484312057495,0.0017983781061488,0.0751335969697789,-0.8882661879980803,22.51287841796875,21.01378631591797,-35.627593994140625,-0.07352998373923739,1007.7139390170478
4.1077890625,-0.2727014541748911,-0.998892526025325,-0.0895469999343156,-0.0872777551412582,0.0759095698595047,0.1870909482240677,0.0012296892455253,0.0758389183092735,-0.8864890218348807,22.551279067993164,21.03600311279297,-35.543304443359375,-0.07366213321478723,1007.7139580917411
4.11786181640625,-0.277477509470284,-1.0712504907496272,-0.1021066217780113,-0.0802914872765541,0.0553552992641925,0.1886603534221649,0.0006871653704062,0.0764344376888798,-0.8846562702121542,22.58812141418457,21.06208038330078,-35.402130126953125,-0.07379432113754911,1007.7139771719841
4.1279306640625,-0.2999806523751467,-1.1314359332516788,-0.0298106163740158,-0.0648390874266624,0.0323580279946327,0.1863528043031692,0.0003025234486592,0.0768075918809821,-0.882859033592984,22.6331787109375,21.09241485595703,-35.246551513671875,-0.07392645779736164,1007.7139962448275
4.137999755859375,-0.3141471248935908,-1.1964261456869545,0.0716360801905393,-0.0525307580828666,0.034473642706871,0.1843812763690948,0.0001756073105341,0.0770168242177755,-0.8810920476110429,22.667648315429688,21.07584381103516,-35.431427001953125,-0.07405859766110849,1007.7140153181335
4.14806884765625,-0.327317279851064,-1.2432698760569094,0.2269809556812047,-0.0448091179132461,0.0620110630989074,0.1794489622116089,0.0001748851690032,0.0773843394383663,-0.8793372914442473,22.841482162475582,21.102127075195312,-35.097381591796875,-0.07419073752485536,1007.7140343914394
4.1581376953125,-0.3717614747986197,-1.2762230282403528,0.2874965069204568,-0.0390825234353542,0.0980699956417083,0.1710592061281204,0.0002172965264773,0.078088557430371,-0.8776777076803105,22.874584197998047,21.103843688964844,-35.177276611328125,-0.07432287418466788,1007.714053464283
4.168206787109375,-0.3593914572428912,-1.2888346725322306,0.2532195587873458,-0.044559646397829,0.1150569021701812,0.1617009937763214,0.0002740475057288,0.0790732435814633,-0.8761332802829065,22.86648368835449,21.097145080566406,-35.193939208984375,-0.07445501404841473,1007.714072537589
4.178275634765625,-0.3235223445475101,-1.3029717728257175,0.2153723509520292,-0.0457807071506977,0.1320832818746566,0.1551645249128341,0.0002973119133175,0.0802104714045533,-0.87460013838778,23.13120651245117,21.003952026367188,-35.112213134765625,-0.07458715070822727,1007.7140916104324
4.188345458984375,-0.3358570715941488,-1.3701986582718788,0.1679237865567207,-0.0462902672588825,0.1561429798603058,0.1438075453042984,0.0003237821948059,0.0815489413195253,-0.8732073403943055,23.15558242797852,21.116119384765625,-35.174346923828125,-0.07471930018377712,1007.7141106851258
4.198414794921875,-0.3701660953659564,-1.451029267787188,0.1493400821179151,-0.0418089665472507,0.1704002171754837,0.1330505162477493,0.0003974028313557,0.0830689939178631,-0.8719339246503529,23.28758430480957,21.231735229492188,-34.835479736328125,-0.07485144325145832,1007.7141297588943
4.208483642578125,-0.3942855143610387,-1.494365428427607,0.1650748268663883,-0.028882049024105,0.1774255782365799,0.122460588812828,0.0005407173095882,0.0846796727128016,-0.8708243957779946,22.946531295776367,21.0257568359375,-34.802276611328125,-0.07498357991127085,1007.7141488317378
4.218552734375,-0.3971026176083833,-1.511035262069106,0.2079693812191486,-0.0133070861920714,0.1822642683982849,0.1156660616397857,0.0008550306606908,0.0863463371906188,-0.8697486811685005,23.073122024536133,20.692398071289062,-35.175994873046875,-0.0751157197750177,1007.7141679050437
4.22862158203125,-0.4313234516400843,-1.5270036694429814,0.2494359485954046,-0.0018646158277988,0.1903634071350097,0.1105172410607338,0.0013324205857397,0.0880724780885367,-0.8687681480445695,23.494802474975582,21.11317443847656,-34.924957275390625,-0.07524785643483023,1007.7141869778873
4.238690673828125,-0.4654374642964452,-1.5253807444162666,0.2529793202906847,0.0039405431598424,0.190174862742424,0.1016768738627433,0.0019404123722139,0.0898339490842443,-0.8678175615387395,23.63311195373535,20.99376678466797,-34.926300048828125,-0.07537999629857708,1007.7142060511932
