Timestamp,Acc x (m/s^2),Acc y (m/s^2),Acc z (m/s^2),Gyro x (rad/s),Gyro y (rad/s),Gyro z (rad/s),Beccheggio/Pitch (rad/s),Rollio/Roll (rad/s),Imbardata/Yaw (rad/s),Mag x (microTesla),Mag y (microTesla),Mag z (microTesla),Altitudine (m),Pressione (milliBar)
0.02786865234375,-0.1057069112922996,-0.0264551684662699,0.2004436618894338,-0.0540036670863628,0.0035564145073294,-0.0138231422752141,0.0832903204370951,0.0899932123031675,-0.8535878276974215,23.9891300201416,17.799156188964844,-36.287445068359375,-0.009204727617973568,1007.6986644245327
0.037938720703125,-0.0716690326120704,-0.0536499032534658,0.1321381874263286,-0.037573903799057,0.0219021420925855,-0.0123168043792247,0.0828196801721208,0.0901669488377793,-0.8539392308598052,23.925785064697266,17.867782592773438,-36.75552368164063,-0.0093633016903937,1007.6986827391513
0.048007568359375,-0.0118346685700118,0.0093657942384481,0.0646674102216958,-0.0250413343310356,0.022827323526144,-0.0169957131147384,0.08251531332031,0.0904281368826493,-0.8542135441202667,23.58761215209961,17.12389373779297,-37.14987182617188,-0.009521856540316146,1007.6987010515497
0.058076416015625,0.0018889555517584,0.0254230489395558,-0.0289350025832653,-0.0175955966114997,0.024519182741642,-0.0284812673926353,0.0823056824502648,0.0907077211346072,-0.8545523257806432,23.53175544738769,16.86841583251953,-37.048248291015625,-0.009680411390238591,1007.6987193639482
0.068145751953125,-0.0149451287407428,0.0260260563340038,-0.0667599985867738,-0.0208156257867813,0.020626176148653,-0.0460847653448581,0.0821377257921694,0.090990862138628,-0.8548717434937817,23.77016830444336,16.6630859375,-36.687103271484375,-0.009838973929160113,1007.6987376772347
0.078215576171875,0.0292374195959419,0.0420464861560612,-0.0672936670720577,-0.0231797844171524,-0.0028636578936129,-0.0571985244750976,0.0819090153141918,0.0911234595573664,-0.8554540591015792,23.571203231811523,16.88524627685547,-36.520599365234375,-0.009997544157080708,1007.6987559914093
0.08828466796875,0.0615280162174254,0.0640952363569289,-0.0826782832086086,-0.0186553373932838,-0.0208477191627025,-0.0310958195477724,0.0816693668543012,0.0909711152614983,-0.85591746431379,23.54786872863769,16.71173858642578,-36.753936767578125,-0.010156102851502691,1007.6987743042516
0.098353515625,0.0163308840107172,0.062244932315126,-0.0728261667579412,-0.020793080329895,-0.0023719202727079,-0.0348911695182323,0.081495372275881,0.0908167615890048,-0.8562875280177226,23.66382598876953,17.149742126464844,-36.06100463867188,-0.01031465770142514,1007.6987926166502
0.108423583984375,-0.062728404983133,0.1316296533823013,-0.0001812017858028,-0.0253558754920959,0.0367738865315914,-0.0471949726343154,0.0812303003613314,0.0909737316950531,-0.856790209101745,23.83086585998535,17.450965881347656,-36.234954833984375,-0.010473231773845272,1007.6988109312687
0.11849267578125,-0.0432659449484199,0.1610322004120797,-0.0197030638575553,-0.0117848450317978,0.0424606315791606,-0.0479811988770961,0.0810081901245852,0.0914169153539634,-0.8572858629089242,23.865623474121094,17.11396026611328,-36.181671142578125,-0.010631790468267255,1007.6988292441112
0.128561767578125,0.0200322227466851,0.1028934613067656,-0.1472761353254318,0.0067720599472522,0.0090960189700126,-0.0469633415341377,0.0809541441677337,0.0917238268716939,-0.8578456027492769,23.86013603210449,17.47203826904297,-36.068756103515625,-0.010790349162689238,1007.6988475569536
0.138631591796875,0.0127844435755163,0.0807188927691429,-0.1831412294328212,0.0224368646740913,-0.0119034368544816,-0.0410245507955551,0.0810737259632378,0.0917314181050802,-0.8583396904145576,23.923009872436523,17.299652099609375,-35.834686279296875,-0.010948919390609834,1007.6988658711282
0.14870068359375,-0.0047303895227611,0.0469135076705366,-0.109934538924694,0.0304844044148921,-0.0051464647985994,-0.0401286631822586,0.0813046586668912,0.0916570160211722,-0.8588618805768086,23.71410369873047,17.25914764404297,-36.147064208984375,-0.011107478085031817,1007.6988841839707
0.158769775390625,-0.0137318074282258,0.0068626523111015,-0.0346159708291292,0.0192549135535955,0.0146072283387184,-0.0406874790787696,0.0815090105053682,0.0917531723500473,-0.8594202034319967,23.513776779174805,17.26617431640625,-36.076507568359375,-0.0112660367794538,1007.6989024968132
0.168839599609375,-0.0226851484082639,-0.0197528212834149,0.0770499219328165,-0.0083740502595901,0.0325055345892906,-0.0458300411701202,0.0814957536549051,0.0920580092944929,-0.8599813106288554,23.730588912963867,17.486778259277344,-36.030181884765625,-0.011424607007374398,1007.6989208109877
0.17890869140625,-0.0229041249211877,-0.0386601316533982,0.1297597678571939,-0.0310204364359378,0.0279208943247795,-0.0515020973980426,0.0812300744841232,0.0924167467339448,-0.8605502584185136,23.71827507019043,17.375465393066406,-36.34243774414063,-0.01158316570179638,1007.6989391238302
0.188977783203125,-0.022442937150225,-0.0437184379562735,0.1024766241341829,-0.0454457141458988,0.0022807782515883,-0.0460660532116889,0.0807431884090388,0.0925655689165787,-0.8610667553884589,23.63580322265625,17.136024475097656,-36.156097412109375,-0.011741724396218364,1007.6989574366726
0.199047607421875,-0.0220353061974048,-0.0590614069081842,0.0413584308266639,-0.0494611039757728,-0.017048655077815,-0.0434189438819885,0.0801533008155439,0.0924885269684722,-0.8615149410324112,23.934232711791992,17.23462677001953,-35.986541748046875,-0.01190029462413896,1007.6989757508471
0.20911669921875,-0.0111957861445844,-0.038323520110175,-0.0153717566549777,-0.0474200546741485,-0.0146568696945905,-0.043144904077053,0.0795806056406801,0.0923391783470556,-0.8618991792785372,23.830507278442383,17.220733642578125,-36.02951049804688,-0.012058853318560943,1007.6989940636896
0.219185546875,-0.0434355293616652,0.0049971507001668,-0.0452870024472475,-0.0427072532474994,-0.0048119714483618,-0.0465253107249736,0.0790525755611938,0.0922807572048951,-0.862308814269109,23.799436569213867,17.28520965576172,-35.954559326171875,-0.01221740816848339,1007.699012376088
0.229254638671875,-0.0638399464216083,0.0006722001731395,-0.0449509023606777,-0.0384113080799579,0.0067256414331495,-0.0446400567889213,0.0785948749147917,0.0922983000224088,-0.8628014223302559,23.53534507751465,17.262100219726562,-36.16476440429688,-0.012375966862905373,1007.6990306889305
0.23932470703125,-0.0457671141143888,0.0079003247957676,-0.0334404973089694,-0.025586936622858,0.0159251987934112,-0.0456825383007526,0.0782321912180461,0.0924527911206924,-0.8632123445310504,23.77329635620117,17.226333618164062,-35.729095458984375,-0.012534540935325505,1007.6990490035491
0.2493935546875,-0.0284676773324608,0.0125857791982591,-0.0582931990146636,-0.0136977881193161,0.019235510379076,-0.0418084375560283,0.078007372571074,0.0926569886762407,-0.8637156356376675,23.704404830932617,17.460060119628906,-36.27291870117188,-0.012693095785247953,1007.6990673159476
0.259462646484375,0.0275205326754599,-0.0160115158632397,-0.0810235017389059,-0.0038798581808805,0.0195928774774074,-0.0354858599603176,0.077913864727164,0.0928844518956163,-0.864167929418332,23.82035255432129,17.62945556640625,-36.309173583984375,-0.012851654479669936,1007.69908562879
0.26953271484375,0.0768384711392223,-0.0009652648355811,-0.082739073485136,0.0071379048749804,0.0231191702187061,-0.0369138456881046,0.0779375961927639,0.0931062399944605,-0.8646628082231925,23.67699432373047,17.739097595214844,-36.287384033203125,-0.013010228552090069,1007.6991039434087
0.2796015625,0.0512431343726813,0.04468552942276,-0.0980342577725648,0.0192434731870889,0.022774152457714,-0.0285640656948089,0.0780765074608621,0.0933539608595415,-0.8650438011194698,23.864206314086918,17.545249938964844,-35.957550048828125,-0.013168783402012515,1007.6991222558071
0.289670654296875,0.0455586589954793,0.0482585656039416,-0.1461608675599098,0.0127389682456851,-0.0027091030497103,-0.0276695098727941,0.0782276951607751,0.0934932449004662,-0.8653780519171315,23.901769638061523,17.54761505126953,-36.242279052734375,-0.013327342096434498,1007.6991405686496
0.29974072265625,0.0482888146117329,0.0374974445495754,-0.1455418588787317,0.0142011521384119,-0.0240532159805297,-0.0286360457539558,0.0783514506547171,0.0933674082076044,-0.8657637846945112,24.00822639465332,17.893783569335938,-36.19992065429688,-0.01348591616885463,1007.6991588832681
0.3098095703125,0.0652057548820972,0.0642179128885269,-0.1215203473001718,0.0077291382476687,-0.0372944511473178,-0.0282168630510568,0.0784366632221397,0.0930443871801812,-0.8661887506128861,23.736446380615234,17.78582000732422,-36.345733642578125,-0.013644471018777077,1007.6991771956665
0.319878662109375,0.0525755520202219,0.0907023074492812,-0.0448509491175413,-0.0038384050130844,-0.0366459935903549,-0.0280870050191879,0.0784212204961604,0.0926662079392793,-0.8665386489791362,23.79337310791016,17.663429260253906,-36.395599365234375,-0.013803029713199062,1007.699195508509
0.329948486328125,0.0356141880862414,0.0774346834667027,0.0025543606579303,-0.0105756688863039,-0.0390375107526779,-0.0282204300165176,0.0783038859383098,0.0923018086832062,-0.8669071296001516,23.73125267028809,17.68975830078125,-36.492462158203125,-0.013961599941119658,1007.6992138226835
0.340017578125,0.0342758521545678,0.0739743138797581,0.0080184712827205,-0.0030018994584679,-0.0325361303985118,-0.021557293832302,0.0782101470332838,0.0919621185426448,-0.8671885906211245,23.851747512817383,17.617645263671875,-36.458892822265625,-0.01412015863554164,1007.699232135526
0.350086669921875,0.0709332656834274,0.0627773586913943,0.0024129063606262,0.0034546684473752,-0.0266233794391155,-0.0184472557157278,0.0781974882400386,0.0917164943278627,-0.8674244625823107,23.698341369628903,17.450218200683594,-36.451019287109375,-0.014278717329963624,1007.6992504483685
0.36015673828125,0.0409988767992705,0.031656901827827,0.0197480720430612,0.0087207173928618,-0.0154765164479613,-0.0195123739540576,0.0782285273715163,0.0915483505484293,-0.8676109200042562,23.868873596191406,17.478843688964844,-36.324127197265625,-0.014437291402383756,1007.6992687629871
0.3702255859375,0.0314225085500627,0.012795768687129,0.0843979466080665,0.0062224054709076,-0.0040470277890563,-0.0202186442911624,0.0782737459249187,0.0915025169309031,-0.8678999433419997,23.585912704467773,17.62328338623047,-36.26950073242188,-0.014595846252306203,1007.6992870753855
0.380294677734375,0.0414653983324766,0.0270673820804804,0.1119423716157674,-0.0010833702981472,-0.0097244018688797,-0.0141225419938564,0.0782794713609644,0.091485422274239,-0.8681269030832907,23.63736343383789,17.50707244873047,-36.243927001953125,-0.014754404946728186,1007.699305388228
0.390364501953125,0.0430069286860525,0.0261395997110754,0.1072761333703994,-0.0042948760092258,-0.013636851683259,-0.0143776722252368,0.0782151818938039,0.0914034697272532,-0.8683510187265651,23.635316848754883,17.621185302734375,-36.438385009765625,-0.014912975174648783,1007.6993237024026
0.40043359375,0.0610807108413428,0.0313577727507799,0.1037391914159059,-0.0047240974381566,-0.0218012779951095,-0.012901715002954,0.078106097134513,0.091267695728659,-0.868487308858411,23.730697631835938,17.43328094482422,-36.573272705078125,-0.015071533869070767,1007.6993420152451
0.410502685546875,0.0489765776801854,0.0203038792949169,0.0811357299417257,-0.0009229676797986,-0.0361213609576225,-0.0125616295263171,0.0780315451105329,0.0910041917806062,-0.8686954450611495,23.613283157348636,17.734542846679688,-36.215423583984375,-0.015230092563492751,1007.6993603280874
0.420571533203125,0.0503693472128361,0.0129851537793874,0.0717751964002847,0.0028498480096459,-0.0395880602300167,-0.01410105638206,0.0779869947957301,0.0906302881056081,-0.8688764525470802,23.577016830444336,17.523086547851562,-36.316436767578125,-0.015388647413415196,1007.699378640486
0.430641357421875,0.0370658481992781,0.0170629246123135,0.0825409205645322,-0.0033489251509308,-0.0277692191302776,-0.0190172512084245,0.0779449306958524,0.0903365429223799,-0.8691662664367831,23.48371124267578,17.74182891845703,-36.361724853515625,-0.01554721764133579,1007.6993969546605
0.440710693359375,-0.0046505292195826,0.0099542616508901,0.1228717619091272,-0.0088676810264587,-0.0156802013516426,-0.0226086936891078,0.0778453550072331,0.0901634496018462,-0.8694493526927475,23.510393142700195,17.63390350341797,-36.247406005859375,-0.015705780180257315,1007.699415267947
0.450779541015625,-0.0293835500683635,0.0090840546876192,0.1109936925888061,-0.0212883967906236,-0.0134767005220055,-0.0328794382512569,0.0776645238648124,0.0900436318520632,-0.869694379208618,23.69410514831543,17.512924194335938,-35.915374755859375,-0.01585736740537088,1007.6994327754213
0.460849609375,-0.0243036164555698,0.0143242203634232,0.0798199711680412,-0.0268101282417774,-0.0084453867748379,-0.0323510207235813,0.0773893292471572,0.089996402808615,-0.870010055278274,23.806833267211918,17.6815185546875,-36.19692993164063,-0.015910243198831213,1007.699438879409
0.470918701171875,0.0061682403061538,-0.0039253567501902,0.0392307711482048,-0.0374904684722423,-0.0005645607598125,-0.0334711447358131,0.0770379625039313,0.0899995203923839,-0.8703926393276026,23.634809494018555,17.8216552734375,-36.503204345703125,-0.01596311386456895,1007.6994449828047
0.480987548828125,0.0231372030247002,0.0066355655569583,-0.0368950216770172,-0.0360025614500045,0.013192263431847,-0.0327808521687984,0.0766335838300211,0.0901288521974458,-0.8707260775396503,23.6657772064209,17.691879272460938,-36.231842041015625,-0.016015983248376036,1007.6994510860525
0.491057373046875,0.0164028532683849,0.0238415519017726,-0.0907142901480197,-0.0250503122806549,0.0231034830212593,-0.0279826372861862,0.0762966728657706,0.0903570674864737,-0.8710730282215752,23.65497398376465,17.76690673828125,-36.68527221679688,-0.016068857759905717,1007.6994571898922
0.501126708984375,-0.0133964379940181,0.0210558667059987,-0.13463468041718,-0.0113862436264753,0.0220887921750545,-0.0258167199790477,0.0760882958701091,0.0906190503343815,-0.8713695286320525,23.592342376708984,17.631851196289062,-36.64010620117188,-0.016121729707574105,1007.699463293436
0.511195556640625,-0.0544513558294624,0.0371786609239876,-0.134985393550992,0.002527174539864,0.0238344948738813,-0.0256252400577068,0.0760231819546565,0.0909007533033584,-0.8716252148106671,23.6643009185791,17.614158630371094,-36.043243408203125,-0.016174599091381192,1007.6994693966838
0.521265625,-0.0256028624858707,0.0427581415567547,-0.1355237382113933,0.0197154935449361,0.0072496915236115,-0.0184832848608493,0.0761193910317487,0.0910890702209072,-0.87179088051006,23.653757095336918,17.334152221679688,-36.06417846679688,-0.01622747488484152,1007.6994755006715
0.53133447265625,0.0236353618051856,0.0096560093566775,-0.1610159068644046,0.0340025536715984,-0.0072283176705241,-0.0144611131399869,0.0763915567360881,0.0910901979624748,-0.8720128921635522,23.4834041595459,17.550216674804688,-36.568756103515625,-0.016280344268648612,1007.6994816039193
0.541403564453125,-0.0098792967185378,-0.0336298824012279,-0.1356874043405055,0.0404242128133773,0.0024977065622806,-0.0097242109477519,0.0767546865501469,0.0910769510137351,-0.872202192464728,23.50419235229492,17.5491943359375,-36.52584838867188,-0.016333214934386348,1007.699487707315
0.551473388671875,-0.0463851729474961,-0.0187626412022858,-0.0412310050547122,0.0417379513382911,0.0185805354267358,-0.0113503374159336,0.0771580251626804,0.0912021455682859,-0.8723486854548821,23.62763023376465,17.48810577392578,-36.72476196289063,-0.01638608944591603,1007.6994938111548
0.561542724609375,-0.0650915539178997,0.0143436557162553,-0.0138689508765935,0.0421137399971485,0.0139822419732809,-0.014752360060811,0.077559673375508,0.091389594458172,-0.8724625156662724,23.751300811767575,17.402557373046875,-36.439056396484375,-0.016438961393584417,1007.6994999146984
0.571611328125,-0.0546904252823442,0.0455101436786353,-0.0495803157269954,0.0436975210905075,0.0023082755506038,-0.0130716376006603,0.0779618831769481,0.0914922347964892,-0.872572291554357,23.891794204711918,17.463897705078125,-36.411956787109375,-0.016491829495460856,1007.6995060177983
0.5816806640625,-0.0493049328517168,0.0182796069256961,-0.0673585490018129,0.0337371155619621,-0.0003101178444921,-0.0132724065333604,0.07831425957413,0.0914949115240006,-0.8727100149718025,23.75521469116211,17.42823028564453,-36.756439208984375,-0.01654470144312924,1007.699512121342
0.59175048828125,-0.0592459696948528,-0.0420776119466871,-0.109649292242527,0.0258373823016881,-0.0207578688859939,-0.0234446171671152,0.0785690181713895,0.0913804657132067,-0.8729371124953242,23.50630760192871,17.470016479492188,-36.514251708984375,-0.01659757595465892,1007.6995182251817
0.601819580078125,-0.0297843128889799,-0.0359142670113593,-0.1173673192739486,0.0257090702652931,-0.0314958915114402,-0.0284219328314065,0.0787861914888313,0.0911224814274161,-0.8732320404894459,23.700420379638672,17.5972900390625,-36.516632080078125,-0.01665044662039666,1007.6995243285775
0.611888671875,-0.0566381252840161,0.0200992235682904,-0.1107090304285287,0.0349100269377231,-0.0355058126151561,-0.0272911544889211,0.0790514131809039,0.0908086811950899,-0.8735457959444259,23.783632278442383,17.656631469726562,-36.40011596679688,-0.016703317286134396,1007.6995304319732
0.621958740234375,-0.0147935914408415,0.0252178086910396,-0.083982936066389,0.0501467064023017,-0.0233811922371387,-0.0245397016406059,0.0794525555203605,0.0905250930310306,-0.873831857135593,23.76094436645508,17.619644165039062,-36.250274658203125,-0.016756193079594726,1007.6995365359609
0.63202734375,-0.0328249957591295,-0.0007101940959692,-0.0504664509117603,0.0620057620108127,-0.0003496436402201,-0.0236997418105602,0.0799841455500364,0.0903983053769989,-0.8740854144623587,23.811426162719727,17.598602294921875,-36.306976318359375,-0.016809061181471165,1007.6995426390607
0.6420966796875,-0.0342884193751961,0.0203079709481447,-0.0356090735197067,0.0641421601176261,0.0161953195929527,-0.0247097052633762,0.0805882097070149,0.0904915557421546,-0.8743475933856001,23.85401153564453,17.55670166015625,-36.580841064453125,-0.016861933129139552,1007.6995487426044
0.652166748046875,-0.0182055918414145,0.0187022162519395,0.0056926586836576,0.0545057728886604,0.0146458921954035,-0.0188598055392503,0.0811587551312259,0.0906574900006325,-0.8745929721205116,23.614036560058597,17.36389923095703,-36.510162353515625,-0.016914808922599882,1007.6995548465922
0.662235595703125,0.000813435274735,-0.0094259999930858,0.0469359386980533,0.0412825681269168,0.0235957205295562,-0.0280623044818639,0.0815877962159911,0.0908435970256633,-0.874881802587674,23.35235023498535,17.391799926757812,-36.14273071289063,-0.01696767830640697,1007.6995609498399
0.672304443359375,-0.0374061130043119,-0.0117035895362496,0.0974164181351661,0.0294187180697917,0.002416399307549,-0.0241690296679735,0.0819212315557907,0.0909908111777836,-0.8752095012388078,23.546831130981445,17.54199981689453,-36.519317626953125,-0.01702054769021406,1007.6995670530877
0.682374755859375,0.0233638513874262,0.0294836494419723,0.1102472581356763,0.0174991190433502,-0.0303613170981407,-0.0171839464455842,0.0821393462699274,0.090836950470834,-0.8753957238890482,23.5078125,17.22228240966797,-36.07565307617188,-0.017073424765605038,1007.6995731572234
0.692443603515625,0.0157567373845726,0.0303696384962648,0.1349883161604404,0.0087929796427488,-0.0246198084205389,-0.0173669047653675,0.0822300076376113,0.0905276556489163,-0.8755629599105271,23.569660186767575,17.462661743164062,-35.970611572265625,-0.017126294149412125,1007.6995792604712
0.7025126953125,-0.0079771163590252,-0.0373738181699067,0.1496668298542499,0.0003594458103179,-0.0101937148720026,-0.0229177512228488,0.0822190287259228,0.0903524515405865,-0.8757537469831944,23.61202049255371,17.408493041992188,-36.532318115234375,-0.017179164815149865,1007.6995853638668
0.712582763671875,-0.0389996658060699,-0.0414845414243638,0.1376513978898525,-0.0041380999609827,-0.0031374036334455,-0.0292392950505018,0.0821505805435,0.0902953334342403,-0.8760846897131731,23.4671688079834,17.632949829101562,-36.36007690429688,-0.017232040608610194,1007.6995914678546
0.722651611328125,-0.0058793403621762,-0.0089493223920464,0.0892705210804939,-0.0024789357557892,-0.0113040301948785,-0.0298393219709396,0.0820805633351796,0.0902435171241318,-0.8763826072484288,23.51595687866211,17.440673828125,-36.196624755859375,-0.01728490999241728,1007.6995975711023
0.732720703125,0.0308675050158053,0.0396474621903151,0.045733577170968,0.0038122506812214,-0.0216570682823658,-0.0346196964383125,0.0820463104732918,0.0900961109118749,-0.8766668089744996,23.432504653930664,17.251853942871094,-36.335845947265625,-0.017337780658155017,1007.6996036744981
0.742790771484375,-0.0003229483440518,0.0302088219113647,0.0260001181751489,-0.0015375111252069,-0.0169955864548683,-0.0340544953942298,0.0820145216055936,0.0899335393375434,-0.8769824880200198,23.477588653564453,17.41973114013672,-36.197662353515625,-0.01739065645161535,1007.6996097784859
0.752859619140625,0.0197463915426284,-0.0097208182211965,0.0009685527712106,0.0066181542351841,-0.0155548173934221,-0.0280293580144643,0.0820169381823691,0.0898087409379792,-0.877362174587107,23.409379959106445,17.660667419433594,-36.290618896484375,-0.017443525835422437,1007.6996158817336
0.7629287109375,0.032040202056989,-0.0199903563663363,-0.0074924015820026,0.0087421052157878,-0.0173921007663011,-0.0242208093404769,0.0820685379736332,0.0896837278950684,-0.8776272696189058,23.55029296875,17.456802368164062,-36.32760620117188,-0.017496396501160173,1007.6996219851294
0.77299853515625,0.0278434079542756,0.0383080302800983,-0.008774842607975,0.0163606107234954,-0.0153633058071136,-0.0215563159435987,0.0821542336261824,0.0895313556749834,-0.8778730724292159,23.36756706237793,17.400856018066406,-36.603057861328125,-0.017549271012689858,1007.6996280889691
0.783067626953125,0.0373907693047076,0.0754577573705464,-0.0207937817037105,0.0172789674252271,-0.0095512382686138,-0.0213280655443668,0.0823266984383189,0.0894280531019768,-0.8780976586759467,23.410181045532227,17.471206665039062,-36.30783081054688,-0.017602141678427594,1007.6996341923648
0.79313671875,0.0301714125104248,0.0345839682556688,-0.0407283162295818,0.0069893123582005,-0.0112151810899376,-0.0270338878035545,0.0824621681915384,0.0893405989542469,-0.8783960701624159,23.239315032958984,17.448165893554688,-36.48214721679688,-0.01765501234416533,1007.6996402957606
0.80320654296875,0.0074517773106694,-0.0197613699160516,-0.0483592494994401,-0.0078804502263665,-0.0248948503285646,-0.0311563666909933,0.0824287914940908,0.0891993909382929,-0.8787812121059245,23.23384666442871,17.543357849121094,-36.702056884765625,-0.017707886855695014,1007.6996463996003
0.813275634765625,0.0062782765518873,-0.0341950420033186,-0.030442484536767,-0.0245065651834011,-0.0395342484116554,-0.0348190106451511,0.0822227613491909,0.0889187692648108,-0.8791632156226556,23.122234344482425,17.40765380859375,-36.593170166015625,-0.01776075752143275,1007.6996525029961
0.8233447265625,0.0165042678162455,-0.0183097828682512,0.0089209730803966,-0.034786008298397,-0.0414291024208068,-0.0295645780861377,0.081888341670254,0.0885268525816227,-0.8794320553863212,23.265735626220703,17.29413604736328,-36.538116455078125,-0.017813628187170485,1007.6996586063918
0.83341357421875,-0.0023652678266167,-0.0084791475970298,0.0454079984784126,-0.0427789539098739,-0.0241233464330434,-0.0280092917382717,0.0814856423598284,0.088233469148794,-0.8796698397002543,23.22511100769043,17.287567138671875,-36.28414916992188,-0.017866497570977573,1007.6996647096396
0.843483642578125,-0.0534980736926197,-0.0223938373114913,0.0531534980386495,-0.0346036702394485,-0.0073557281866669,-0.0312195774167776,0.081072460568059,0.0881338337484787,-0.8798705256895236,23.485729217529297,17.45514678955078,-36.270538330078125,-0.017919373364437906,1007.6996708136273
0.853552734375,-0.0465335684422403,-0.0103075320679694,0.0256342074722051,-0.037370428442955,5.26532530784e-05,-0.0325024202466011,0.0806709208779171,0.0881379958956117,-0.8801382104430625,23.418027877807617,17.546119689941406,-36.68698120117188,-0.01797224403017564,1007.699676917023
0.86362158203125,-0.0234926653988659,-0.0032845015633851,-0.0230927062958478,-0.0357085280120372,-0.0146092791110277,-0.0332993008196353,0.0802565695647632,0.0881046416313452,-0.8804293879969023,23.443090438842773,17.580337524414062,-36.81100463867188,-0.01802511341398273,1007.6996830202709
0.873691650390625,-0.0105262163199484,-0.0116219026021659,-0.0750374130666255,-0.027308914810419,-0.0303371082991361,-0.0317757055163383,0.0799241288904523,0.0879078556464978,-0.8806711974908639,23.46755790710449,17.414634704589844,-36.785919189453125,-0.01807798920744306,1007.6996891242585
0.8837607421875,-0.017388211043924,-0.017529957602173,-0.1003238300144672,-0.0143364816904068,-0.0363969281315803,-0.0351436585187912,0.07968712782479,0.0875966662692652,-0.8809377480428922,23.420246124267575,17.415008544921875,-36.949127197265625,-0.018130859873180798,1007.6996952276543
0.89382958984375,-0.029200740847364,-0.007228124622628,-0.1310720194995403,0.0160126350820064,-0.0226227939128875,-0.0262708067893981,0.0797000724189717,0.0873192571024062,-0.8812372233956717,23.18543815612793,17.37342071533203,-36.88003540039063,-0.018183729256987885,1007.699701330902
0.903899658203125,0.0084233988218009,0.0001014145478606,-0.1096545529395341,0.0410469360649585,-0.0033087558113038,-0.0117061026394367,0.079990629517458,0.0872070399138634,-0.8813580671376654,23.332006454467773,17.260604858398438,-36.73159790039063,-0.018236605050448215,1007.6997074348898
0.91396875,-0.0054120151113718,-0.0004324000678956,-0.1182955400347709,0.0576115325093269,0.0038538160733878,-0.0055073294788599,0.0804871102434826,0.0872329611930352,-0.8814147791735255,23.329368591308597,17.37512969970703,-36.299835205078125,-0.018289475716185954,1007.6997135382856
0.92403759765625,-0.0027891192618757,-0.030074454941973,-0.0563759672164917,0.0570169724524021,-0.0006310069002211,-0.0048577790148556,0.0810827474318556,0.0872444270491474,-0.8814151837032446,23.614791870117188,17.496360778808594,-36.28317260742188,-0.01834234509999304,1007.6997196415333
0.934107666015625,0.01065846439749,-0.0268090964704751,0.0182008426010608,0.0409916639328002,0.0013746195472776,-0.0060282382182776,0.0815699152112127,0.0872499320063552,-0.8814594985118407,23.58887481689453,17.547500610351562,-36.818695068359375,-0.01839522089345337,1007.6997257455209
0.9441767578125,0.0082960461150854,-0.0065009063266217,0.0433013815879821,0.0179310720413923,-0.0143028795719146,-0.0052300230599939,0.0818564540042778,0.087202618696633,-0.8814627162933222,23.2416934967041,17.18335723876953,-36.67086791992188,-0.01844809155919111,1007.6997318489167
0.95424560546875,0.0004438713099807,0.0251863175742328,0.046888007903099,0.001549968495965,-0.0317457839846611,-0.0080729471519589,0.0819446348209767,0.0869492776000313,-0.881580023754659,22.98271369934082,17.43872833251953,-36.367462158203125,-0.018500960942998197,1007.6997379521645
0.964315673828125,0.004623275886476,0.0192144766230136,0.0745809014707803,-0.0014076372608542,-0.0338603444397449,-0.009474953636527,0.0819154133127804,0.0866120510404191,-0.881713496567103,23.054777145385746,17.48431396484375,-36.59494018554688,-0.018553836736458527,1007.6997440561522
0.974384521484375,-0.0070341364204883,-0.0081604370366781,0.0631833091437816,0.0099566038697958,-0.0325319580733776,-0.0050578350201249,0.0819469280185034,0.0862573471418249,-0.8818356010209271,22.950822830200195,17.430252075195312,-36.838165283203125,-0.018606706120265618,1007.6997501594
0.9844541015625,0.0026200463052839,-0.0205962863702327,0.0482107809394597,0.012498321942985,-0.0235427282750606,-0.0050545702688395,0.0820524758348201,0.0859889107697387,-0.8819002430349479,23.2219181060791,17.479164123535156,-36.902679443359375,-0.01865957934986465,1007.6997562630917
0.994524169921875,0.0108119744587689,-0.0096526483558118,0.0707324093490839,0.0120969833806157,-0.0159660354256629,-0.0096658337861299,0.0821463857067239,0.0858090831206716,-0.8820374696475031,23.131654739379883,17.586875915527344,-37.04782104492188,-0.01871245514332498,1007.6997623670794
1.004593017578125,-0.0079199062790721,0.0252804255984723,0.0538823968350887,0.0079772528260946,-0.021715672686696,-0.00861098151654,0.0822451666197915,0.0856435448198413,-0.8821574661987897,23.35371398925781,17.6815185546875,-36.507843017578125,-0.018765324527132067,1007.6997684703272
1.014662109375,-0.0037451778776943,0.0345623409457504,0.035108722782135,-0.0012972047552466,-0.0381628237664699,-0.0026814532466232,0.082276224129715,0.0853379773071461,-0.8822270168406842,23.3103084564209,17.71246337890625,-36.483795166015625,-0.018818195192869806,1007.699774573723
1.02473193359375,0.0094824063554406,0.0252836404688656,0.053363341397047,-0.0040193973109126,-0.0250754915177822,-0.0044572143815457,0.0822454892857625,0.0850089658459584,-0.8822524390535984,23.2030086517334,17.51561737060547,-36.76364135742188,-0.018871069704399487,1007.6997806775627
1.03480126953125,-0.0527962820988148,0.036225744113326,0.0365904857724905,0.0092340903356671,-0.0092264879494905,-0.0091222738847136,0.0822473809602321,0.0848429660443625,-0.8823242374144503,23.176977157592773,17.439064025878906,-36.836334228515625,-0.01892394165206787,1007.6997867811064
1.044869873046875,-0.0517462615892291,0.0445030124627053,-0.0166840082973241,0.0267574116587638,0.0058591770939528,-0.0042445324361324,0.0824206338871236,0.084859297854482,-0.8824347212756507,23.11999893188477,17.54723358154297,-36.532501220703125,-0.018976809753944314,1007.6997928842062
1.054940185546875,-0.0020549597684293,0.0585983925063163,-0.0071720835864543,0.0345660671591758,0.0157525539398193,-0.006195830181241,0.0827298584285086,0.0849985707466443,-0.8825381204692363,22.98101043701172,17.525894165039062,-36.454498291015625,-0.019029686829335292,1007.6997989883419
1.0650087890625,-0.0103211222019046,0.0526323967739939,0.0435708461791276,0.032928492873907,0.0204735025763511,-0.0115600544959306,0.0830687137882778,0.0851890910840415,-0.8826561845151627,23.211963653564453,17.565261840820312,-36.84390258789063,-0.01908255493121173,1007.6998050914417
1.075078125,-0.0165929690130054,0.036482203092426,0.0915378814905881,0.020708579570055,0.0062484932132065,-0.0115813603624701,0.0833301113054177,0.0853740353571493,-0.8828716701177413,23.105003356933597,17.608436584472656,-36.890167236328125,-0.01913542687888012,1007.6998111949854
1.08514794921875,-0.0051178544703871,-0.0042523236822336,0.1059767412096261,0.0041030496358871,-0.0138504719361662,-0.0124041670933365,0.0834492150738136,0.0853489789188473,-0.883029711648388,23.229589462280277,17.60296630859375,-36.85220336914063,-0.0191883013904098,1007.6998172988251
1.095217041015625,-0.0065898267190903,-0.0245320914492011,0.1057405943661928,-0.0078028794378042,-0.0269431043416261,-0.0160830579698085,0.0833952197399357,0.0851463005768604,-0.883142167275999,23.19102668762207,17.3677978515625,-36.777130126953125,-0.019241172056147535,1007.6998234022209
1.105285888671875,-0.0273817087266594,-0.0257158944062888,0.0822159263938665,-0.0209425576031208,-0.0359381362795829,-0.0239696204662323,0.0832128435731968,0.0848215004657793,-0.8834298237262835,22.92656135559082,17.590248107910156,-37.198577880859375,-0.019294041439954623,1007.6998295054686
1.115356201171875,-0.0277182472046464,-0.0191819625928998,0.0705763420045375,-0.0186655558645725,-0.0344861783087253,-0.0201628990471363,0.0829933530477872,0.0844549715305155,-0.8836859307073992,22.997249603271484,17.508834838867188,-36.775238037109375,-0.019346918515345604,1007.6998356096043
1.1254248046875,-0.0124225514605641,-0.0257295576054602,0.0407516971051692,-0.0129169356077909,-0.0225500669330358,-0.0176196917891502,0.0827980388703381,0.0841582973132763,-0.8838916535179556,22.98764419555664,17.518760681152344,-36.582611083984375,-0.019399786617222043,1007.6998417127041
1.135494140625,-0.0193182292584329,-0.0146109283503144,0.0003454524368047,-0.0023348648101091,0.0029699397273361,-0.0172332674264907,0.0826955100056203,0.0840820233644454,-0.8840615875387222,23.132080078125,17.5284423828125,-36.982330322265625,-0.019452658564890427,1007.6998478162478
1.14556396484375,-0.0320190131384879,-0.0048048429984599,-0.038816345128417,-0.0006013698875904,0.0242532640695571,-0.0143923852592706,0.0826577124066443,0.0842488784036896,-0.8842370716357717,23.10706901550293,17.56108856201172,-36.711944580078125,-0.01950553307642011,1007.6998539200875
1.155633056640625,-0.0413380456257611,0.0055598260842263,-0.045821255454421,-0.0032722540199756,0.0093360990285873,-0.0141114210709929,0.0826158482782875,0.0844372432000247,-0.884397942702272,23.15133285522461,17.61316680908203,-36.58151245117188,-0.019558403742157848,1007.6998600234833
1.165701904296875,-0.0308821180630475,0.0049232817463576,-0.0483142413139343,-0.0126523710787296,-0.0028508808463811,-0.0117152668535709,0.0825200962551407,0.0844692283007876,-0.8844612410527377,23.199953079223636,17.385833740234375,-36.72134399414063,-0.019611273125964935,1007.6998661267311
1.175772216796875,-0.0227444773800671,-0.0139357325024902,0.0106102413415908,-0.0148374941200017,0.0015545203350484,-0.011816999875009,0.0823818209261941,0.0844623808945614,-0.8846051007419692,23.11656188964844,17.74504852294922,-36.65158081054688,-0.019664150201355913,1007.6998722308668
1.1858408203125,-0.0454973572622984,-0.0143386872801929,0.0145709616661071,-0.00479341391474,-0.0023226498160511,-0.0147470952942967,0.0822946491285083,0.0844625816942588,-0.8847499308360948,23.283411026000977,17.877273559570312,-36.518341064453125,-0.019717018303232352,1007.6998783339666
1.19591015625,-0.0510405975379049,-0.024720965084806,-0.0378846172362566,0.0044685266911983,-0.0149809205904603,-0.0086806807667016,0.0823041077973651,0.0843711470820206,-0.884814047290065,23.42107391357422,17.716506958007812,-36.44284057617188,-0.01976989025090074,1007.6998844375104
1.205980224609375,-0.0213469586070626,-0.0212430598411709,-0.0538286208212375,0.0070859510451555,-0.0148257091641426,-0.0079212188720703,0.0823843666240325,0.084211341362662,-0.8847931511017155,23.459304809570312,17.575424194335938,-36.33102416992188,-0.01982276604436107,1007.699890541498
1.216049072265625,-0.0276683436483144,-0.012424597287178,-0.0267705180257558,0.0159617345780134,0.000886142719537,-0.009080758318305,0.0824905009940716,0.0841390109344059,-0.8847842564233992,23.53278923034668,17.62957000732422,-36.38864135742188,-0.019875635428168156,1007.6998966447458
1.226117919921875,0.0054008361302316,-0.0051052872497588,-0.0134638772070407,0.021233869716525,0.0052998885512351,-0.0066442820243537,0.082657598888383,0.0841709852983576,-0.884796539534065,23.36288070678711,17.61083984375,-36.20523071289063,-0.019928504811975247,1007.6999027479936
1.236188232421875,0.0131515233222395,-0.0113465927921235,-0.0159141929686069,0.0281120166182518,0.0017248610965907,0.0005137627013027,0.0828917167666758,0.0841911200844166,-0.884793894358921,23.22625541687012,17.62993621826172,-35.974151611328125,-0.019981381887366225,1007.6999088521293
1.246257080078125,-0.0079956018637865,-0.0056981385763734,-0.0001034603744745,0.0239799097180366,-0.001577497459948,-0.0045975223183631,0.0831481518275328,0.0841825037204725,-0.8848227401406549,23.19626808166504,17.68463897705078,-36.328033447265625,-0.020034251271173316,1007.699914955377
1.256326904296875,-0.0629336452316492,0.0295779766619205,0.0353489612787961,0.0166932344436645,0.0033895643427968,-0.0099539384245872,0.0833432715036918,0.0841860300564004,-0.8849043090664042,23.14154815673828,17.644371032714844,-36.163421630859375,-0.020087125782702997,1007.6999210592168
1.266396240234375,-0.0403331794321537,0.0421131947167217,0.0491302338719367,0.0106796156615018,0.0011226697824895,-0.0077427024953067,0.0834775692287358,0.0842171880955384,-0.8849925959962887,23.268798828125,17.67962646484375,-36.339691162109375,-0.02013999773037138,1007.6999271627604
1.276465087890625,-0.0143967741429805,0.0233331639882177,0.0205225635468959,0.0063948556780815,-0.0064582843333482,-0.0097139738500118,0.0835617261435364,0.0841666357735681,-0.8851397711961178,23.155651092529297,17.923736572265625,-36.05288696289063,-0.02019286711417847,1007.6999332660083
1.28653515625,-0.0434806836776435,-0.0215783562101423,0.0054062429577112,0.0028613731265068,0.0004110732115805,-0.0145803689956665,0.0836056066778013,0.0841264184978525,-0.8853576943063173,23.125009536743164,18.01422119140625,-36.24234008789063,-0.0202457429076388,1007.699939369996
1.29660400390625,-0.0334607363793998,-0.0228514448858797,0.0160977328419685,0.0073642460629343,0.0088122803717851,-0.0161018334329128,0.0836437627679572,0.0841887503589309,-0.8856321685480545,22.96839904785156,17.857460021972656,-36.782012939453125,-0.02029861229144589,1007.6999454732437
1.306673095703125,-0.0421126832600683,0.005895195518434,-0.0084691376596689,0.009901525452733,0.0190413165837526,-0.0112677225843071,0.0837066765419621,0.0843400870740558,-0.885734599607995,23.20993423461914,17.464035034179688,-36.705657958984375,-0.020351482957183625,1007.6999515766395
1.316742919921875,-0.0270814836710691,0.0088462273437529,-0.0206102418303489,0.0192428287118673,0.0259303841739892,-0.0059142364189028,0.0838402211695741,0.0845953523132166,-0.8859165508238703,23.10343170166016,17.756996154785156,-36.733306884765625,-0.02040435746871331,1007.6999576804792
1.326812255859375,-0.0067479398902505,0.0149588650051504,-0.0235842892050743,0.0345873981714248,0.0228319466114044,-0.0074790376238524,0.0840982266344856,0.0848602176262095,-0.8861099752049607,23.050830841064453,17.866989135742188,-36.644866943359375,-0.020457229416381693,1007.699963784023
1.336881103515625,-0.0268504513941705,0.0240095288798212,-0.0390033921331167,0.0422210842370986,0.0195631831884384,-0.0097288759425282,0.084457837617218,0.0850524681256097,-0.8862920919495434,23.101093292236328,17.919097900390625,-36.456329345703125,-0.02051009880018878,1007.6999698872708
1.346951171875,-0.0491533955518156,0.0231276314787566,0.006260813960433,0.0447970107197761,0.0244194045662879,-0.0125524923205375,0.08487293915527,0.0852713631232178,-0.8864327213345798,23.192312240600582,17.52104949951172,-36.881927490234375,-0.020562974593649114,1007.6999759912584
1.35702001953125,-0.0322233035389333,0.0393687183141708,0.0712719230532646,0.0319581776857376,0.0223472006618976,-0.0199579447507858,0.0852333818310384,0.0855484889493227,-0.8866283841749725,23.26732063293457,17.6517333984375,-36.672637939453125,-0.0206158439774562,1007.6999820945063
1.367089111328125,-0.0173320969425141,0.0036611528560519,0.1372679515302181,0.0053232787176966,0.0138274170458316,-0.0247048828750848,0.0854075397724355,0.0857262928121384,-0.886844918519634,23.250364303588867,17.556541442871094,-36.80776977539063,-0.020668714643193937,1007.6999881979019
1.377158935546875,-0.0014447189155966,0.0096481183111667,0.1122802252680063,-0.0154488449916243,0.0024879449047148,-0.0264431275427341,0.085331129187995,0.0857999439335182,-0.8870635174774981,23.406494140625,17.731040954589844,-36.34927368164063,-0.020721589154723618,1007.6999943017416
1.387228271484375,0.0214646667025983,0.0197235951889306,0.0635638328939676,-0.0323369465768337,0.0054831141605973,-0.0268036127090454,0.0850452493486888,0.0858270716418984,-0.8872574339346565,23.33568000793457,17.585281372070312,-36.558013916015625,-0.020774461102392006,1007.7000004052854
1.397296875,0.0193841341014951,0.0278770910281687,0.0273661458313465,-0.0393389277160167,0.0033414000645279,-0.0220946110785007,0.08463925221211,0.085853354725487,-0.8873898218219939,23.32889747619629,17.4844970703125,-36.38687133789063,-0.020827329204268445,1007.7000065083852
1.4073671875,-0.0060097618088126,0.0481604389917105,0.0104465752124786,-0.0269221290946006,0.0013726647011935,-0.0212687402963638,0.0842648318754879,0.0858767974615858,-0.8875558005498254,23.115577697753903,17.54461669921875,-36.37466430664063,-0.020880206279659422,1007.7000126125209
1.417435791015625,-0.0429094596609473,0.0384616134066134,-0.0016086042404174,-0.0008055763319134,0.014153441414237,-0.0173467025160789,0.0840992112199343,0.0859615619180347,-0.8877616323358155,22.99708747863769,17.66253662109375,-36.082305908203125,-0.02093307438153586,1007.7000187156207
1.427505126953125,-0.0412729445002973,0.0275556770540773,-0.0255097043097019,0.0286820270121097,0.0262915212661027,-0.0081978486850857,0.0842235125239326,0.086147876462825,-0.8879781391212761,23.03701400756836,17.899612426757812,-36.329010009765625,-0.02098594632920425,1007.7000248191645
1.437574951171875,0.0153267484694719,0.0434445163857191,0.009852700972557,0.0435621738433837,0.0346493162214756,-0.0042041721753776,0.0845785167089139,0.0864541293866833,-0.8880756812847127,23.11111259460449,17.67450714111328,-36.282012939453125,-0.02103882084073393,1007.7000309230042
1.44764404296875,0.0164572138041257,0.0478321568854153,0.0021925416082143,0.0403009578585624,0.0236719753593206,-0.0044500469230115,0.0850275481805904,0.0867563413219297,-0.8882522865682316,22.9179744720459,17.774375915527344,-36.351348876953125,-0.021091691506471666,1007.7000370263999
1.4577138671875,0.0173161687210202,0.0457196217108517,0.0244973123967647,0.0254623591899871,0.0083830328658223,-0.0119710806757211,0.0853626524942951,0.0869472949735935,-0.8883479323204381,23.236528396606445,17.46843719482422,-36.983489990234375,-0.021148077379062255,1007.7000435865889
1.467783203125,-0.004373392778635,0.0222842394571751,0.0504395629048347,-0.0017164619639515,-0.0065423515625298,-0.0160526130348444,0.0854604555198845,0.0869625922312787,-0.8884995794475238,23.1851863861084,17.59876251220703,-36.708770751953125,-0.02125378499823593,1007.700056556849
1.477851806640625,-0.0476000286299735,-0.0024448358688503,0.0756534991383552,-0.0222728699445724,-0.0144407544285058,-0.0262903347611427,0.0853033350302997,0.0868518988721337,-0.8887586910719045,23.23782730102539,17.77989959716797,-37.037628173828125,-0.021359484928464366,1007.7000695261655
1.487922119140625,-0.092542528488487,0.0071193304859101,0.1122615205675363,-0.0405738055706024,-0.006002006586641,-0.0298650879412889,0.0849344886745236,0.0867468146769962,-0.8890573931262992,23.24295234680176,17.76031494140625,-37.18374633789063,-0.02146520279956503,1007.7000824976834
1.497990966796875,-0.1130783899083733,-0.0052412616543471,0.1260123980224132,-0.0343119129538536,0.0265087988227605,-0.0269545186311006,0.0845117850332933,0.0868241940016977,-0.8892560737260591,23.373950958251957,17.652687072753906,-36.46432495117188,-0.02157090529277521,1007.7000954673144
1.50806005859375,-0.0975730700016021,0.0050252808161079,0.1055383497923612,-0.0140030505135655,0.0583931729197502,-0.0255732685327529,0.0842301595812199,0.0872429963148132,-0.8895297757863572,23.21666717529297,17.79932403564453,-36.89230346679688,-0.021676610348967142,1007.70010843726
1.518130126953125,-0.0482938561130315,-0.0067906830534338,0.0717804570972919,0.0004738923162221,0.0807019397616386,-0.0172176007181406,0.0841235204430087,0.087975077931712,-0.8897849841369804,23.134450912475582,17.776840209960938,-36.583404541015625,-0.02178232565708606,1007.7001214084635
1.52819921875,-0.012895941125974,0.0234063753549009,0.0132756611585617,0.011237546801567,0.0789734423160553,-0.0170260481536388,0.084151104278907,0.0888122330336616,-0.889927141697784,23.093706130981445,17.45758819580078,-36.52536010742188,-0.021888030713277988,1007.7001343784091
1.538267822265625,0.0198722829446196,0.0419296548433601,-0.0423170467257499,0.0110585819929838,0.0536781996488571,-0.0195419378578662,0.0842397345618871,0.0895049904418728,-0.8901515527936786,23.15776824951172,17.6944580078125,-36.60031127929688,-0.021993730643506425,1007.7001473477256
1.548338134765625,0.0041729017704725,0.0564667873051017,-0.0681289488524198,0.0082800313830375,0.0138060133904218,-0.0211395900696516,0.0843185717374675,0.0898579095576152,-0.8904214616508745,23.161001205444336,17.78577423095703,-36.26510620117188,-0.02209944851460709,1007.7001603192435
1.5584072265625,-0.0038370939448475,0.0503828642815351,-0.0486333902657032,-0.0018442403525114,-0.0222300179302692,-0.0195835065096616,0.0843391391718211,0.0897893349774477,-0.8906408461489609,23.19400405883789,17.68895721435547,-36.25436401367188,-0.022205153570799017,1007.7001732891891
1.56847607421875,-0.0022610037345439,0.0147758365884423,0.0051133974909782,-0.0064409412443637,-0.0330231115221977,-0.0254493243992328,0.084278567717028,0.0894731901766732,-0.8908725883580938,23.2204704284668,17.768165588378906,-36.249603271484375,-0.022310856064009198,1007.7001862588202
1.578546142578125,-0.0084366236295551,-0.0181922939684242,0.0524444729864597,-0.0080367065966129,-0.0164310857653617,-0.020414350554347,0.0841817908129732,0.089169127444395,-0.8910731307717628,23.05488586425781,17.464447021484375,-36.51925659179688,-0.022416571372128116,1007.7001992300236
1.588615234375,-0.0006819909147918,-0.0316722455274313,0.0557686489731073,-0.0068502081558108,-0.0054118121042847,-0.01329614687711,0.0840886299224584,0.0890481656157371,-0.8912758783111001,23.168561935424805,17.822708129882812,-36.212982177734375,-0.022522276428320047,1007.7002121999691
1.598683837890625,0.030208894976601,-0.0096365009386092,0.055125674894452,-0.0065460754558444,0.0030937916599214,-0.0095584001392126,0.0840007421408473,0.0890100181746128,-0.8914574697078194,23.074148178100582,17.892967224121094,-36.46847534179688,-0.02262797635854848,1007.7002251692858
1.60875390625,0.0285040638200938,-0.008837240319699,0.0467196655988693,-0.0034112678840756,0.018347579985857,-0.0085727646946907,0.0839294021958704,0.0891077550784483,-0.8916390776380857,23.04320526123047,17.91039276123047,-36.577484130859375,-0.0227336916666674,1007.7002381404892
1.6188232421875,-0.0253913386270403,-0.0149904291871935,0.0299590849339962,-0.0033460212871432,0.0186184234917163,-0.0130109228193759,0.0838816273031219,0.089325293456278,-0.8917556321468385,23.196741104125977,17.709449768066406,-36.74069213867188,-0.022839399285841073,1007.7002511107492
1.628892822265625,-0.0600994447190314,0.0107698158174753,0.0057557870477437,-0.0034524640068411,0.0130407996475696,-0.0146288545802235,0.0838226906773549,0.0895085423872804,-0.8919196610749448,23.298707962036133,17.924484252929688,-36.625885009765625,-0.022945109467996497,1007.7002640813237
1.638962158203125,-0.0306152107551693,0.0307378142215311,-0.0274853882968425,-0.0027331439778208,-0.001494466792792,-0.0103616714477539,0.0837682061536948,0.0895844203951519,-0.8920805075251212,23.269426345825195,18.01209259033203,-36.583038330078125,-0.023050817087170175,1007.7002770515837
1.649031005859375,-0.0166041479941457,0.0372477075722068,-0.0806494077295064,-0.0023966319859027,-0.0184990409761667,-0.0161783173680305,0.083729991229203,0.0894975236747192,-0.8922805245404198,23.177814483642575,17.998382568359375,-36.397979736328125,-0.023156519580380355,1007.7002900212148
1.65910107421875,-0.0382686481177806,0.0324592311866581,-0.0962947206288576,-0.0048488695174455,-0.0245476104319095,-0.0176449213176965,0.0836993663070469,0.0892786771196887,-0.8924769272178151,23.167165756225582,17.812698364257812,-36.580108642578125,-0.023262234888499274,1007.7003029924182
1.669169921875,-0.0362197527639567,0.0620198183223605,-0.0805716663181781,-0.0023344829678535,-0.0084231738001108,-0.0183231066912412,0.0836618041103284,0.0891293821106999,-0.8926173153506122,23.24586296081543,17.70782470703125,-36.49166870117188,-0.023367937381709454,1007.7003159620493
1.6792392578125,-0.0125042383946478,0.0568367896612733,-0.118785953900218,0.0016211103647947,-0.0086146555840969,-0.0161736700683832,0.0836214347385634,0.0890601166088898,-0.8927912723836626,23.25745391845703,17.78955078125,-36.848236083984375,-0.02347364500088313,1007.7003289323093
1.689308837890625,-0.0008787555959075,0.0279681303124874,-0.1427057586699724,0.0062866192311048,-0.0037044209893792,-0.0180407501757144,0.08363790938515,0.0890188732511089,-0.8929472295413254,23.439382553100582,17.920982360839844,-36.821868896484375,-0.023579355183038553,1007.7003419028838
1.699378173828125,-0.0167285050261765,0.0213090377494692,-0.0794762722969055,0.014016443863511,-0.0003610886633396,-0.0200770050287246,0.0837374220680766,0.0890030305014813,-0.893114911989985,23.608518600463867,18.02568817138672,-36.74874877929688,-0.02368506280221223,1007.7003548731439
1.709447998046875,-0.0366688117057085,0.0090099665381014,0.0019599018961191,0.0142988618463277,0.0083278249949216,-0.0155472811311483,0.0838416558031404,0.0890385117590412,-0.8933297951478709,23.138965606689453,17.788978576660156,-36.77066040039063,-0.023790775547349402,1007.7003678440328
1.71951708984375,-0.0218290430355817,-0.0020167466498911,0.058273909792304,0.0190278366208076,0.0179769899696111,-0.013086786493659,0.0839842319248288,0.0891906891737777,-0.8934602014582032,23.06455612182617,17.564117431640625,-36.419830322265625,-0.02389648060354133,1007.7003808139783
1.7295859375,-0.0252337369125336,-0.0113642015140503,0.0832838478863239,0.013034745119512,0.0247726496309041,-0.0130230206996202,0.0841148830508205,0.0893877360621153,-0.8936462083574132,23.031185150146484,17.818092346191406,-36.41549682617188,-0.024002183096751513,1007.7003937836095
1.73965625,-0.0177476189408451,-0.0018333529070019,0.1128407817602157,0.0030710604041814,0.0126094594597816,-0.009635480120778,0.0841714395415822,0.0895875972038353,-0.8937731167025746,23.2735538482666,17.86945343017578,-36.38937377929688,-0.024107900967852175,1007.7004067551273
1.749724853515625,-0.0014445727851241,-0.036671442054212,0.101911391466856,-0.0062410598620772,0.0040555610321462,-0.0107289217412471,0.0841129927808659,0.08964942003893,-0.8938812099852301,23.113187789916992,17.668861389160156,-36.74038696289063,-0.02421360089808061,1007.7004197244439
1.759794189453125,0.0007428542565554,-0.0418733215462416,0.0863069950997829,-0.0041081337258219,-0.0093324165791273,-0.0152136841788887,0.0840094293680306,0.0896237480780764,-0.8939630614862804,23.181171417236328,17.515625,-36.742950439453125,-0.02431930851725429,1007.700432694704
1.769864013671875,0.0015912877794355,-0.0415973541490733,0.0956014776676893,-0.0132940961048007,-0.0103359911590814,-0.0166410245001316,0.0838998525237508,0.0895357461634726,-0.894094176220024,23.208576202392575,17.668922424316406,-36.81948852539063,-0.02442502126239146,1007.700445665593
1.77993310546875,-0.0357042775224894,-0.0731499918848276,0.1240969197899103,-0.0125193828716874,-0.0077066523954272,-0.0141198094934225,0.0837335602118058,0.0894459344816575,-0.8941762021408668,23.344846725463867,17.647010803222656,-36.74655151367188,-0.024530726318583388,1007.7004586355384
1.790003173828125,-0.0426018550164997,-0.0816023976054042,0.1003273371458053,-0.0117267435416579,-0.0061872173100709,-0.0136980265378952,0.083588303824442,0.0893848025572797,-0.894224466344261,23.218339920043945,17.402626037597656,-36.837432861328125,-0.024636441626702307,1007.7004716067419
1.800072265625,-0.0089919194247573,-0.0639704409334808,0.0655851095885038,-0.0160447917878627,0.0045999167487025,-0.0075088394805788,0.0834479105883837,0.0893743979733313,-0.8942500481343101,23.2231388092041,17.42388916015625,-37.040802001953125,-0.024742146682894234,1007.7004845766875
1.810140869140625,-0.0079968439728021,-0.0241252642139792,0.0575537788242101,-0.0182787030935287,0.014642784371972,-0.0020942068658769,0.083283731414788,0.0894707869325621,-0.8942976101773743,23.03764533996582,17.615097045898438,-36.849517822265625,-0.02484784661312267,1007.700497546004
1.8202109375,-0.0213875828783959,-0.0160843619037419,-0.0064782561033964,-0.0162357911467552,0.0152254831045866,-0.0001173424534499,0.0830959546949893,0.0896306193012053,-0.8943694537793355,23.038612365722656,17.94733428955078,-36.764739990234375,-0.024953561921241586,1007.7005105172075
1.8302802734375,0.0003345657166093,0.0062139791440218,-0.0921539675623178,-0.0041187582537531,0.0135888690128922,0.0028715841472148,0.0830196218927286,0.0897966094806933,-0.8943443850029612,23.166343688964844,17.722267150878906,-36.948150634765625,-0.025059269540415263,1007.7005234874675
1.84034912109375,0.0243076350435614,0.01659384579584,-0.1618570338636636,0.0067109856754541,0.0091616306453943,0.003244693391025,0.0830558720122709,0.0899013160134829,-0.894301906589411,23.16080093383789,17.696090698242188,-36.831451416015625,-0.025164972033625443,1007.7005364570986
1.850419189453125,0.0096055212784558,0.0126883627898991,-0.1549807183533907,0.015755197033286,0.005360553972423,0.0039329826831817,0.0831768357765317,0.0899675807930662,-0.8942291437708099,23.30983161926269,17.706016540527344,-36.823516845703125,-0.025270687341744362,1007.700549428302
1.860488037109375,0.0172132928684353,0.0107833328861743,-0.1084878472477197,0.0210378430783748,0.0003002816811203,0.0091953882947564,0.0833953191574768,0.0899870372177759,-0.8941084607993746,23.14608764648437,17.440536499023438,-36.667572021484375,-0.025376389834954546,1007.7005623979331
1.87055810546875,0.0422666317127645,0.0034205490332096,-0.0905330883622169,0.0196961425244808,-0.0050156540237367,0.011605548672378,0.0836524991284857,0.0899209153713892,-0.8939025803868453,23.044403076171875,17.425331115722656,-36.626007080078125,-0.02548210514307346,1007.7005753691366
1.880626953125,0.0390815719358623,0.0136145377241075,-0.0510351907104253,0.0096147460862994,0.0039477469399571,0.0077295852825045,0.0838534791935984,0.0899114552328865,-0.8938226677989445,23.019216537475582,17.50426483154297,-36.962738037109375,-0.025587807636283644,1007.7005883387676
1.8906962890625,0.0070046180650591,0.0102435269210487,0.0273106162518262,-0.006339875049889,0.0076424055732786,0.0050881220959126,0.0838760092404667,0.08996334949544,-0.8937037859637891,23.232257843017575,17.586158752441406,-36.581878662109375,-0.025693515255457322,1007.7006013090277
1.900765869140625,-0.0133087597105652,-0.0201576026920229,0.0496340917408466,-0.0126805948093533,0.0061241374351084,0.0052638906054198,0.0837816167557332,0.0900202974421486,-0.8936059867046426,23.204832077026367,17.592308044433594,-36.878448486328125,-0.025799225437612743,1007.7006142796022
1.910835205078125,0.0217857884157449,0.0024677783530205,0.0086018241286277,-0.0135322008281946,-0.0067683816887438,0.0025908099487423,0.08364688486508,0.0900111242770549,-0.8935053300580809,23.119457244873047,17.523941040039062,-36.615081787109375,-0.02590493305678642,1007.7006272498621
1.920904052734375,0.0327716581366956,-0.0087634444311261,-0.0240782102018594,-0.0133487079292535,-0.0203923135995864,0.0021063806489109,0.0834928927911603,0.0898805568926129,-0.8933814759051657,23.0760440826416,17.263275146484375,-36.775299072265625,-0.0260106355499966,1007.7006402194933
1.93097412109375,0.017175737337023,-0.0153359546892344,-0.0298871887415647,-0.0032841833308339,-0.0308346413075923,0.0008391314186155,0.0833869019394438,0.0896064909415531,-0.893308250282264,23.22759246826172,17.57598876953125,-36.687103271484375,-0.02611635085811552,1007.7006531906967
1.94104296875,0.0298059401988983,-0.0128127198219299,-0.0239525379955768,0.0047164857387542,-0.0268787816166877,-0.0019750311039388,0.0833847906604916,0.0893235188736929,-0.8932831724990234,23.326810836791992,17.65924072265625,-36.925140380859375,-0.0262220533513257,1007.7006661603277
1.95111328125,0.025915581696853,-0.0155642835523933,-0.0072001406371593,0.0056046079844236,-0.017557106912136,0.0007367650978267,0.083440091088608,0.0891086739389767,-0.893236601831762,23.21356773376465,17.61286163330078,-36.53536987304688,-0.026327771222426365,1007.7006791318457
1.961181884765625,-0.0341973800908774,-0.0332652138072997,0.038299627777934,0.0090733747929334,0.0001060436479747,-0.004930973984301,0.0834968675218827,0.0890433748071638,-0.8932477009892031,23.17991828918457,17.7286376953125,-36.425872802734375,-0.026433471152654802,1007.7006921011623
1.971251220703125,-0.0622353607691824,-0.0265340058561414,0.0504758032619953,0.0095816049724817,0.0027716718614101,-0.0071814930997788,0.0835731789455954,0.089080413576138,-0.8933514493292373,23.04710960388184,17.679946899414062,-37.141937255859375,-0.026539178771828476,1007.7007050714222
1.9813212890625,-0.0392930957946926,0.0046830432496964,0.0704214437037706,0.0071136532351374,0.0009569940157234,-0.0023838083725422,0.0836745091471873,0.0891070195723842,-0.8934844723679892,22.83874893188477,17.69524383544922,-36.987823486328125,-0.026644894079947395,1007.7007180426258
1.99139013671875,-0.0251874866180121,0.0359596405230462,0.0610316840678453,0.010519303381443,0.0027799280360341,0.0015579364262521,0.0837666222929812,0.089149755592945,-0.8935931893924405,22.734495162963867,17.5643310546875,-36.963775634765625,-0.02675059657315758,1007.7007310122568
2.001460205078125,-0.0440529306076467,0.0085343849156051,0.0215641815543174,0.0097347367554903,-0.0027357451617717,-0.0001424918882548,0.0838695563908254,0.0891824136293245,-0.8935921869110338,22.92160415649414,17.34722900390625,-37.07028198242188,-0.026856311881276494,1007.7007439834603
2.011529052734375,-0.049758302642405,-0.0194121180869638,0.012708090403676,0.0043071368709206,-0.0096614062786102,-0.0013797315768897,0.0839497694149902,0.0891388517688606,-0.8935924744687647,22.886558532714844,17.357376098632812,-36.891876220703125,-0.026962014374486677,1007.7007569530913
2.02159814453125,-0.0663472530674189,-0.0179311588142067,0.0195382286846637,-0.0084022665396332,-0.0144186103716492,0.0009033964015543,0.0839481951340823,0.0890290915252163,-0.8935350783464714,22.96152114868164,17.30731201171875,-36.727325439453125,-0.027067719430678608,1007.7007699230369
2.031668212890625,-0.0894707198277115,-0.0024240122765302,0.0636386516958475,-0.0242673382163047,-0.0130407996475696,-0.0012758048251271,0.083774112099262,0.088897573502467,-0.8935571672316623,22.65736389160156,17.275527954101562,-36.892120361328125,-0.027173434738797523,1007.7007828942403
2.0417373046875,-0.0905140914008021,0.0180184717714786,0.0789163003265857,-0.0251594968140125,-0.0098559251055121,0.0019591371528804,0.0835231862048155,0.0887722835924623,-0.8935868970686885,22.67645263671875,17.438026428222656,-36.65347290039063,-0.027279139794989454,1007.7007958641858
2.05180615234375,-0.0662528527822345,0.0045677463069558,0.0496942974954843,-0.01456896122545,-0.0062488145194947,0.0048390580341219,0.0833258455968425,0.0886611704070949,-0.8934836084098007,22.851303100585938,17.26573944091797,-36.41305541992188,-0.027384842288199634,1007.700808833817
2.061876220703125,-0.0539576540283858,-0.0001779138501733,-0.0206961665481328,0.0051149949431419,-0.0004372643306851,0.0076002236455678,0.0832689635991077,0.0886120658153253,-0.8934402727943943,22.82694625854492,17.459693908691406,-36.931549072265625,-0.02749055759631855,1007.7008218050204
2.0719453125,-0.0627615766003727,0.02886317945607,-0.0621200638264417,0.0262733586132526,0.000225172843784,0.0106910243630409,0.0834385715488602,0.0885954193804332,-0.8933010030222316,22.8865909576416,17.280662536621094,-36.424407958984375,-0.02759626265251048,1007.7008347749659
2.08201513671875,-0.0643921004116535,0.0358695510867983,-0.0409171167999505,0.0311887562274932,-0.0081464741379022,0.0085778050124645,0.0837420892390286,0.0885345962895693,-0.8932215754747872,22.90259552001953,17.415618896484375,-36.93185424804688,-0.027701975397647648,1007.7008477458548
2.092084228515625,-0.0830408329106867,0.020715967227146,-0.0013175123393535,0.0254040211439132,0.0008237492293119,0.0066313631832599,0.0840442289931803,0.0884849869219629,-0.8930881967589461,23.161460876464844,17.384689331054688,-36.697845458984375,-0.02780768045383958,1007.7008607158004
2.1021533203125,-0.0523348751321434,0.0299456409305334,0.0589648146659135,0.0087462160736322,0.0022687800228595,0.0001305872574448,0.0842384046516352,0.0884987027872096,-0.8930120479252482,23.06764030456543,17.365577697753906,-36.832305908203125,-0.02791338551003151,1007.7008736857459
2.11222314453125,-0.0109511637337505,0.0098375764686614,0.0622954203933477,-0.0074717188253998,-0.0036771018058061,-0.0096817659214138,0.0842326105024588,0.0884593166971171,-0.8930974084902037,23.08091354370117,17.69403839111328,-37.419525146484375,-0.028019098255168677,1007.7008866566349
2.122292236328125,-0.0183851861920207,-0.0133232266273349,0.0517027147084474,-0.021844532340765,-0.0007537500932812,-0.0166062507778406,0.0840675390400023,0.0884070380444147,-0.893251983901479,23.030405044555664,17.674179077148438,-37.438018798828125,-0.028124803311360608,1007.7008996265805
2.1323623046875,-0.0183388628322631,-0.0145182085655629,0.0355132119297981,-0.0300663579255342,-0.0099574364721775,-0.0184924229979515,0.0837921300869907,0.0883541126413442,-0.8933993459430053,23.26878929138184,17.726287841796875,-37.12466430664063,-0.028230518619479526,1007.7009125977839
2.14243115234375,-0.0194124103479087,-0.033280557506904,0.0174812961548566,-0.0271448697894811,-0.0135231427848339,-0.0164865292608737,0.0834799885192625,0.0882161299364642,-0.8935369844892742,23.303178787231445,17.75653839111328,-37.38693237304688,-0.028336221112689707,1007.700925567415
2.152500244140625,-0.0287673909313976,-0.0154267017126083,0.0408843835741281,-0.0281167663633823,-0.0021842122077941,-0.01206492818892,0.0831632308755233,0.0880987656219465,-0.8936804252306494,22.97636032104492,17.559165954589844,-37.331451416015625,-0.028441926168881637,1007.7009385373606
2.1625703125,-0.028481267466396,-0.0074273004565387,0.0560515575677156,-0.0255534723401069,0.0148016959428787,-0.0066896034404635,0.0828640214516336,0.0881440291094748,-0.8938372110356098,22.87296485900879,17.743026733398438,-37.442291259765625,-0.028547641477000556,1007.700951508564
2.17263916015625,-0.0221221076980233,-0.0084971216451376,0.0233048877418041,-0.013878496363759,0.0257055461406707,-5.63007779419e-05,0.082647393317376,0.0883192531133048,-0.8938775427894934,22.994918823242188,17.734901428222656,-36.95382690429688,-0.028653343970210736,1007.700964478195
2.182708984375,-0.0304485489513725,-0.0046620735269039,0.0030985505372285,-0.0041651483625173,0.0295844413340091,0.0047179479151964,0.0825498465297084,0.0885897511791003,-0.8938647968457872,23.020252227783203,17.736083984375,-36.617706298828125,-0.028759056715347908,1007.700977449084
2.1927783203125,-0.0265877088047564,0.0048155105229467,-0.0245686240673065,0.0107925878837704,0.0289824102073907,0.002248867880553,0.082600927800583,0.0888698580312164,-0.8939157615130816,23.02702522277832,17.896987915039062,-37.087982177734375,-0.028864764334521585,1007.7009904193441
2.20284716796875,-0.0036192134104669,-0.0087301266834139,-0.0365256038427352,0.0150456558912992,0.0111882332712411,0.008618083782494,0.0827460417697713,0.089063178148539,-0.8938504289841797,23.157337188720703,17.745643615722656,-36.58224487304688,-0.028970466827731765,1007.7010033889751
2.212917236328125,0.0156992350436747,-0.0239658358685672,-0.0632487755954265,0.0039674257859587,-0.0100909639149904,0.0059661106206476,0.0828713207731633,0.089047173388646,-0.893728145951142,23.156404495239254,17.54120635986328,-36.584503173828125,-0.029076182135850684,1007.7010163601786
2.222986083984375,-0.0035186756454408,-0.0179414610125124,-0.0504021535038948,-0.0007229335606098,-0.0253130588680505,0.0009335349313914,0.0829212388761376,0.0888543081903185,-0.8936478528431571,23.056781768798828,17.437088012695312,-36.816009521484375,-0.029181884629060864,1007.7010293298097
2.23305615234375,0.027338965563476,0.0026907003886997,-0.0323263985872268,-0.0077414829283952,-0.0311766825616359,0.0022933236323297,0.0828887867580745,0.0885740561965871,-0.8935962787079245,23.07588005065918,17.596336364746094,-36.38766479492188,-0.029287599937179783,1007.7010423010131
2.243125,0.0544846735771745,-0.0225214092139154,-8.82628053426e-05,-0.0109343472868204,-0.0332353077828884,0.0039601963944733,0.0828047672952537,0.0882289706371039,-0.8935576180946827,22.9853515625,17.68768310546875,-36.733245849609375,-0.029393302430389963,1007.7010552706441
2.2531943359375,0.0490536615043878,-0.0463931370582431,0.0235322667568922,-0.0064972545951604,-0.0123787596821784,0.0018608262762427,0.082720079829514,0.0879869396127073,-0.893512913747802,23.02079391479492,17.593658447265625,-36.564849853515625,-0.029499010049563644,1007.7010682409042
2.26326416015625,0.0205791160397231,-0.0500121312730014,0.0944119756221771,-0.0073923431336879,0.0015349248424172,0.0012917085550725,0.0826560034779735,0.0879294487677645,-0.8934348358224502,23.05372810363769,17.48285675048828,-36.46505737304688,-0.029604722794700812,1007.7010812117932
2.273333251953125,0.0121630968067795,-0.0533010167505592,0.0939817675113677,-0.0085753127932548,0.0085118282586336,0.0045782350935041,0.082579778931108,0.0879787365719623,-0.8934052128701905,23.06728172302246,17.813339233398438,-36.529876708984375,-0.029710427850892743,1007.7010941817387
2.283402099609375,0.0205116037614643,-0.0427999348718673,0.0561006574064493,-0.0079313591122627,0.0129087064415216,0.0020005609840154,0.082490614287533,0.088088890152837,-0.8933637058405766,23.095273971557617,17.758445739746094,-36.54928588867188,-0.029816130344102923,1007.7011071513698
2.29347216796875,-0.0033508447978645,-0.0138506845675408,-0.0033744448691606,-0.0047229081392288,0.0135662723332643,0.0029449565336108,0.0824211433806635,0.0882339083986785,-0.8933638508229349,23.044687271118164,17.85742950439453,-36.476470947265625,-0.02992184565222184,1007.7011201225732
2.303541259765625,0.0032126784361898,0.0029284546673297,-0.0671791007816791,-0.0019092783331871,0.0065397867001593,0.005560447461903,0.0823772284551083,0.08834329152896,-0.8933052988557062,23.124605178833008,17.691574096679688,-36.747589111328125,-0.030027550708413772,1007.7011330925187
2.313611328125,0.0110630996756255,0.0212932556584477,-0.1155021099239587,-0.0018184762448072,-0.003766919253394,0.0070355739444494,0.0823730698306215,0.0883361450976432,-0.8932516213747953,23.10982131958008,17.84461212158203,-36.31759643554688,-0.030133266016532684,1007.7011460637223
2.32368017578125,0.014352935001254,0.0372215502176433,-0.1519809520155191,-0.0062763411551713,-0.0060202199965715,0.0036024926230311,0.0823645948901175,0.0883055690579938,-0.8931782262089716,23.149768829345703,17.808303833007812,-36.06588745117188,-0.030238968509742867,1007.7011590333533
2.333749267578125,0.0418304322525858,0.0622046003047376,-0.127542091807723,-0.0008089039474725,-0.0046312962658703,0.0013243220746517,0.0823486216856167,0.0882650762563504,-0.8931030952291649,23.12891387939453,17.652297973632812,-36.256195068359375,-0.030344673565934798,1007.7011720032988
2.3438193359375,0.0432194754581898,0.0393394191544502,-0.0935714331448078,0.0041158124804496,-0.0032557738013565,0.0011088727042078,0.0823822432372438,0.0882302362721969,-0.8930849924378961,23.00410270690918,17.631271362304688,-36.412628173828125,-0.030450388874053713,1007.7011849745023
2.35388818359375,0.0312356076758354,-0.0061712359808385,-0.0386041636824607,0.0109406784176826,0.0072693000547587,0.0024021044373512,0.0824872929367674,0.0882476927419642,-0.8930882251430288,23.143388748168945,17.937042236328125,-36.428131103515625,-0.030556091367263897,1007.7011979441334
2.363958251953125,0.0138897744689136,-0.0083610741753131,0.0141717332154512,0.0111436117440462,0.0127503518015146,0.0005054008215665,0.0826153791336539,0.0883549772007788,-0.8931053473766488,23.04635238647461,17.778396606445312,-36.389984130859375,-0.030661806675382812,1007.7012109153368
2.374027099609375,0.0041967941027134,0.0170778299205005,0.0733867232501506,0.004643858410418,0.0161026045680046,-0.0004227324388921,0.0827072948898378,0.0884905608285818,-0.8931078809634794,23.18331527709961,17.78215789794922,-36.65005493164063,-0.030767509168592996,1007.7012238849678
2.38409619140625,0.0078628423295915,0.0126406511906534,0.090299864128232,-0.0079726018011569,0.0242031402885913,-0.0026270307134836,0.082681990597663,0.0886825187204512,-0.8931144016002573,23.149192810058597,17.697120666503906,-36.810150146484375,-0.030873214224784923,1007.7012368549134
2.394166015625,0.0125199474204331,-0.0092399028364568,0.1034673887372016,-0.0175959169864654,0.0367779619991779,-0.0004274221137166,0.0825407698892175,0.0889870321440628,-0.8930909978946068,23.322269439697266,17.900169372558594,-36.590179443359375,-0.030978926969922098,1007.7012498258024
2.4042353515625,0.0082115096367895,-0.0220040342763066,0.0705827717453241,-0.0205046236515045,0.0322713628411293,0.002702591009438,0.0823218226861252,0.089320401970249,-0.8930733102809629,23.06866455078125,17.7864990234375,-36.38198852539063,-0.031084634589095772,1007.7012627960625
2.414304931640625,0.0079950173418968,-0.0329999139346182,0.0518108512580394,-0.0153916347771883,0.0181777402758598,0.0015200437046587,0.082115383427306,0.0895870650335095,-0.8930941266969502,23.15925407409668,17.996482849121094,-36.485931396484375,-0.031190344771251197,1007.7012757666369
2.424374267578125,0.043488501657918,-0.0332516236733645,0.0727355658650398,-0.0084048323333263,0.0121520711109042,0.0024771839380264,0.0819824599039923,0.0897367883097728,-0.8929979721866687,23.35611343383789,17.65589141845703,-35.996124267578125,-0.03129605239042487,1007.7012887368969
2.434443115234375,0.0496283926524221,-0.061343161169812,0.0933387934327125,0.0005548857152462,0.0016009821556508,0.0030449093319475,0.0819406442807579,0.0898282271201283,-0.8929485774834653,23.187335968017575,17.786468505859375,-36.23971557617188,-0.03140175488363505,1007.7013017065279
2.44451318359375,0.0299478328876197,-0.0681823595400899,0.0791419257760047,0.0059416610747575,-0.0134381540119647,0.0028590210713446,0.0819757840381057,0.089775011425358,-0.8928799579169828,23.2642879486084,17.75525665283203,-36.13937377929688,-0.03150747019175397,1007.7013146777314
2.45458203125,0.03180763541013,-0.058604529986158,0.0408680169612169,0.0004716021940112,-0.0305118896067142,0.000573884230107,0.0820065005742595,0.0895380582022397,-0.8927919723286132,23.193883895874023,17.638893127441406,-36.015777587890625,-0.03161317268496416,1007.7013276473625
2.46465234375,0.0111750356175005,-0.0376492010451853,0.008278583523631,-0.0152112208306789,-0.0302397143095731,-0.0014386666007339,0.0819305815033041,0.0892282969926659,-0.8926745526203842,23.22699546813965,17.48279571533203,-36.162139892578125,-0.031720715779570294,1007.7013408826558
2.47472119140625,0.0131971890948712,-0.0235344587139785,0.0322714535295963,-0.0236424654722213,-0.0187819860875606,-0.0013976527843624,0.0817365487770612,0.0890037842202625,-0.892547079964244,23.312145233154297,17.457298278808594,-36.236419677734375,-0.031852803084491926,1007.7013576653338
2.484790283203125,-0.0006133826579898,-0.0209366973057389,0.0183241767197847,-0.0247426182031631,-0.00128821330145,0.0039582303725183,0.0814971026760739,0.0889143206842133,-0.8924593350929156,23.407867431640625,17.93871307373047,-36.013092041015625,-0.031984893592151176,1007.7013744484188
2.4948603515625,-0.0072004328981041,-0.0155802848391234,-0.02293956156075,-0.026318646967411,0.0010587000288069,0.0080003961920738,0.0812643385219793,0.0889129388736446,-0.892324535786135,23.343090057373047,17.770179748535156,-36.47677612304688,-0.03211699691076091,1007.7013912331316
2.50492919921875,-0.0029542466957122,-0.0061854106366634,-0.0603998159050941,-0.0219111144542694,0.0133915329352021,0.0061889146454632,0.081046702185498,0.0889977905408259,-0.8922069429814529,23.162866592407227,17.839263916015625,-35.974212646484375,-0.032249084215682546,1007.7014080158096
2.514999267578125,0.0012412322327494,-0.0107126788027584,-0.1038011507362127,-0.0107657453045248,0.0110098803415894,0.0079487301409244,0.0809050220372945,0.0891345079710962,-0.8920932196070579,23.30099868774414,17.924270629882812,-36.021881103515625,-0.032381187534292276,1007.7014248005224
2.525068115234375,-0.0117878337536007,-0.0198306357599794,-0.1350081899046897,0.0043053487315773,0.0046883346512913,0.0060392436571419,0.0809060388143234,0.0892278326362375,-0.8920535666249658,23.24545288085937,18.0469970703125,-36.371490478515625,-0.03251327483921391,1007.7014415832004
2.53513818359375,0.0008141659270972,-0.0214960847541689,-0.1393155317097902,0.0172776952385902,-0.0059185372665524,0.0024553872644901,0.0810571370919328,0.0892255971813143,-0.8920060565914645,23.152523040771484,17.652992248535156,-36.77798461914063,-0.03264537815782364,1007.7014583679132
2.54520703125,0.0249954711772501,-0.0162293233323842,-0.1042775360763072,0.0183480195701122,-0.0024300627410411,-0.0037732138298451,0.0812591749052562,0.0891871157220175,-0.8920219867380617,23.087299346923828,17.679595947265625,-36.603363037109375,-0.03277746546274527,1007.7014751505912
2.5552763671875,0.0321970731191337,-0.0340185163926333,-0.0481324550062417,0.0198215246200561,-0.005303262732923,-0.0034683835692703,0.0814600007372279,0.0891405178782493,-0.8920926955677932,23.11567497253418,17.779342651367188,-36.74380493164063,-0.032909559173142144,1007.7014919340833
2.565345947265625,0.0249576964501291,-0.0512923803418874,0.0013823942691087,0.0112687824293971,-0.0161593724042177,-0.0031469401437789,0.0816063964466518,0.089024453636857,-0.8920541331622227,23.38778686523437,17.754974365234375,-36.161895751953125,-0.033041656086276634,1007.701508717982
2.575415283203125,0.0299376768197864,-0.0462728716794401,0.0483013818323612,0.0065952455624938,-0.0135605633258819,-0.0032378169707953,0.0816912768943289,0.0888516811175308,-0.892104233140656,23.086109161376957,17.767662048339844,-36.71701049804688,-0.03317374979667351,1007.7015255014741
2.585485107421875,-0.002819733595848,-0.0426800348192453,0.0962538040965795,-0.0024840040132403,-0.0062163639813661,-0.0011978354305028,0.0817067418615694,0.088758222753112,-0.8921617821575298,23.03706932067871,17.758941650390625,-36.692779541015625,-0.03330584991254562,1007.7015422857799
2.59555419921875,-0.0095890816003084,-0.0510982460092753,0.1345282974332571,-0.0090293446555733,-0.0118315191939473,0.0033614737913012,0.0816568791492127,0.0886693024436939,-0.8921722245701559,23.100778579711918,17.86408233642578,-36.739288330078125,-0.03343794042020487,1007.7015590688649
2.605623046875,-0.0066012979611754,-0.0623311492938548,0.1201595803409814,-0.021238874644041,-0.0245068334043025,0.0013316124677658,0.0815027507356992,0.0884688773284172,-0.8921344018720515,23.04780387878418,17.7586669921875,-36.633636474609375,-0.0335700277251265,1007.7015758515429
2.615693359375,-0.0139373399376869,-0.0362272054180502,0.0638911651521921,-0.0188788697123527,-0.0402678847312927,0.0014854036271572,0.0812952772824876,0.0881450167735687,-0.8920581930394533,23.105831146240234,17.44806671142578,-36.901641845703125,-0.03370213424647386,1007.7015926366626
2.625761962890625,-0.0112541652683168,-0.0183654585782438,-0.0068371525436639,-0.0111583629623055,-0.0501572638750076,0.0053254161030054,0.0811477902384225,0.0876993255659152,-0.8920048737854598,23.082252502441406,17.618270874023438,-36.964630126953125,-0.033834218348657866,1007.7016094189337
2.63583203125,-0.0330814547382295,-0.0102590167511254,-0.0664098699748516,0.0046649575233459,-0.050784058868885,0.002365022432059,0.0811351438488976,0.0872054216679427,-0.8918920062641731,23.013452529907227,17.341590881347656,-37.052032470703125,-0.0339663216672676,1007.7016262036465
2.645901123046875,-0.0505709341995418,0.0189632783409208,-0.073613517743349,0.015391637571156,-0.0393828004598617,0.0032372074201703,0.0812620180020449,0.0867588102675538,-0.8918629228566587,23.021072387695312,17.593345642089844,-36.892608642578125,-0.03409841217492686,1007.7016429867315
2.65597021484375,-0.0318434373758733,0.0258970231268554,-0.0455441920787096,0.024127259850502,-0.0271091908216476,0.0096573513001203,0.0814968181582586,0.0864354311542479,-0.8918033515350843,23.24716186523437,17.827438354492188,-36.612213134765625,-0.03423050268258611,1007.7016597698165
2.666040283203125,0.0247449304822832,0.0063787412516772,0.0072831427454948,0.0189825650304555,-0.017505032941699,0.0105484463274478,0.0817350785268483,0.0862040078248671,-0.8916138987342781,23.16385841369629,17.421714782714844,-36.736846923828125,-0.03436260600119584,1007.7016765545292
2.676109375,0.0068874944914132,-0.0077066288545727,0.0717424631744623,0.0092418445274233,-0.0079757897183299,0.0034131417050957,0.0819014940756846,0.0860874367880704,-0.8914852038730621,23.13970184326172,17.490089416503906,-36.87124633789063,-0.03449469650885509,1007.7016933376142
2.686179443359375,-0.0291988411512225,-0.0139745301429182,0.1087023667812347,0.001354094594717,-0.009693793952465,-0.001689740922302,0.0819797742573184,0.0860135823249237,-0.8914134423653545,23.16394805908203,17.483253479003906,-37.07583618164063,-0.034626799827464826,1007.701710122327
2.696248046875,-0.0047662645537406,-0.0285731835335493,0.1113730472952127,-0.0016225129365921,-0.0243061557412147,-0.0029696398414671,0.0819865105127849,0.0858556948363634,-0.8913988712212675,23.229469299316406,17.72570037841797,-36.95626831054688,-0.03475888392964884,1007.7017269045981
2.7063173828125,0.0202001997247338,-0.0317747560538351,0.0776519794791936,-0.00381376221776,-0.0333103016018867,-0.0023826791439205,0.0819651482239128,0.0855813062386193,-0.8913804620184317,23.17562294006348,17.58435821533203,-37.066192626953125,-0.03489097764004571,1007.70174368809
2.716386962890625,0.0187732356615364,-0.0192769473999738,0.0574339518368244,-0.0133119551464915,-0.0554055385291576,-0.0060323933139443,0.0818812575933835,0.0851433439523998,-0.8913149331376837,23.20719337463379,17.528831481933594,-36.456085205078125,-0.035023074553180204,1007.7017604719889
2.726456298828125,0.0203306942366063,-0.0288813726998865,0.0488701216310262,-0.0274349637329578,-0.0684430450201034,-0.0104223480448126,0.0816487849593791,0.0845054781682209,-0.8912471114583368,23.206954956054688,17.345497131347656,-36.87716674804688,-0.03515516826357708,1007.7017772554808
2.736526123046875,0.0399944489970803,-0.0035264205604791,0.0027092589586973,-0.0314207822084426,-0.0688799545168876,-0.0111781768500804,0.081334048434418,0.0838056404022894,-0.8912513517055928,23.241424560546875,17.538360595703125,-37.219024658203125,-0.035287268379449184,1007.7017940397866
2.74659521484375,0.0482842115018516,0.0222035754363983,-0.0576917259901762,-0.028964813798666,-0.0685521215200424,-0.0108796376734972,0.081027087390035,0.0831214661601817,-0.8913204738769516,22.826515197753903,17.47662353515625,-36.961822509765625,-0.03541935888710844,1007.7018108228716
2.7566650390625,0.0284467076096683,0.0126252344258129,-0.0743646283715963,-0.0165390446782112,-0.0547400377690792,-0.0123699586838483,0.0807819774493115,0.0825141076031174,-0.8914225680191982,22.819019317626957,17.618873596191406,-36.70822143554688,-0.03555145900298055,1007.7018276071774
2.766734375,0.0021110738698393,0.0250344880133867,-0.0697311233520507,-0.001416016370058,-0.0393903777003288,-0.010965940542519,0.0807043454482683,0.0820373611858314,-0.8914590887018655,23.11693382263184,17.587432861328125,-36.704132080078125,-0.03568355271337742,1007.7018443906693
2.776802978515625,0.02360847379826,0.0151971307404339,-0.0307972893238067,0.0104087339714169,-0.0198964271694421,-0.0155436284840106,0.0807542277028638,0.081766375119244,-0.891634677681751,22.92047119140625,17.95789337158203,-36.64254760742188,-0.035815636815561436,1007.7018611729405
2.786873046875,0.0061667790014296,-0.0116273824948817,0.0026695114701986,0.0216938778758049,-0.0083108777180314,-0.0206076297909021,0.0809186038446676,0.0816685482860325,-0.8918257942247917,22.898242950439453,17.729652404785156,-36.944244384765625,-0.035947740134171166,1007.7018779576532
2.796942138671875,0.0330212489835917,-0.0384925930667668,0.0488987632036209,0.0213420260697603,-0.0065296310931444,-0.021280363202095,0.0811400504272322,0.0816475378359331,-0.8921117999875429,22.678607940673828,17.79120635986328,-36.900726318359375,-0.03607983064183042,1007.7018947407382
2.80701220703125,0.052798766316846,-0.0603039543151855,0.0750479344606399,0.0107588898390531,-0.0202656835317611,-0.0241397991776466,0.0812967973950411,0.0815384616146415,-0.8923217319799533,22.91080665588379,17.69586944580078,-36.558868408203125,-0.03621193396044015,1007.701911525451
2.8170810546875,0.0446055229891091,-0.0874431595228612,0.083893504217267,-0.0046114446595311,-0.0398329719901084,-0.034155111759901,0.0813217989653272,0.0813044336805708,-0.892633760910622,22.63453483581543,17.58074951171875,-36.74288940429688,-0.036344021265361785,1007.701928308129
2.827150390625,0.0441099945571273,-0.094565485683456,0.0925046806961298,-0.020713448524475,-0.0357490181922912,-0.0361708551645278,0.0811595785827987,0.0809855949273262,-0.893046212529345,22.565608978271484,17.701278686523438,-36.997100830078125,-0.03647611497575866,1007.7019450916209
2.837220458984375,0.0265711229961365,-0.0722155605789273,0.1273766721129417,-0.0383766666054725,-0.0172779224812984,-0.0389521196484565,0.0808129766363193,0.0807561322596881,-0.8934022446975721,22.65932273864746,17.55291748046875,-36.798614501953125,-0.03660821829436839,1007.7019618763337
2.8472890625,0.0337079160735011,-0.0543591475013643,0.1330424427896738,-0.036948949098587,-0.011504721827805,-0.0390684977173805,0.080374102864689,0.0806504638294906,-0.8937591841438294,22.74193954467773,17.64704132080078,-36.98452758789063,-0.0367403023965524,1007.7019786586048
2.857359375,0.0641731969639659,-0.0319132146764546,0.0860895529568195,-0.0241608768701553,-0.0123184286057949,-0.0336816646158695,0.0800220583489091,0.0805776262592007,-0.8941044870757003,22.65045166015625,17.679473876953125,-36.970001220703125,-0.03687240891789976,1007.7019954437245
2.867427978515625,0.0864356629807502,-0.0583370381563901,0.0193336460232734,-0.0054212780669331,-0.031711034476757,-0.02671430259943,0.0798600150296831,0.0803803743467017,-0.894389113858581,22.81753921508789,17.840133666992188,-37.080474853515625,-0.03700449302008377,1007.7020122259956
2.877498291015625,0.0591074380069971,-0.0819720346353948,-0.0152636201053857,0.007353136781603,-0.0471343323588371,-0.0220668353140354,0.0798761070587699,0.0800215817949596,-0.8946311646458256,22.70174789428711,17.767501831054688,-36.74118041992188,-0.03713659954143112,1007.7020290111153
2.887567138671875,0.0552324962697923,-0.0743915894437581,-0.0105418522804975,0.0211762748658657,-0.0566940158605575,-0.0193623956292867,0.080039268586155,0.0795603160280317,-0.8947720726982152,22.73016166687012,17.452232360839844,-36.887054443359375,-0.037268686846352754,1007.7020457937933
2.89763623046875,0.0509154367882758,-0.0408529655225574,0.0123000941246747,0.0260562654584646,-0.0670931190252304,-0.0190297327935695,0.0803015300773545,0.0789761553994244,-0.8949089846701432,22.921049118041992,17.824966430664062,-36.662200927734375,-0.03740077735401201,1007.7020625768783
2.9077060546875,0.0418961178999394,-0.0324468831617385,0.060642392489314,0.0147652616724371,-0.0673573017120361,-0.017680574208498,0.0805338515741454,0.0783369071664537,-0.8950339535772996,22.93331718444824,17.783523559570312,-36.795928955078125,-0.03753287746988412,1007.7020793611842
2.917775390625,0.0418838429402559,-0.0572563302475959,0.1226145722776651,0.0004110764712095,-0.0459009297192096,-0.0216016471385955,0.0806288187441539,0.0778166924095507,-0.8952133180691563,22.744304656982425,17.812850952148438,-36.938323974609375,-0.03766497118028099,1007.7020961446761
2.92784521484375,0.056889031305164,-0.0887709009952843,0.1627221262603998,-0.01614979095757,-0.0270944833755493,-0.0218695625662803,0.0805582970249971,0.0774895429121978,-0.8953669737665413,22.601524353027344,17.477951049804688,-37.148040771484375,-0.037797071296153104,1007.7021129289819
2.937914306640625,0.0625014643594622,-0.089542616020143,0.1679302162975073,-0.0226801931858062,-0.018877487629652,-0.0255909003317356,0.0803415732737334,0.07735756538446,-0.8955187118684002,22.44575500488281,17.322296142578125,-36.88833618164063,-0.03792916180381235,1007.702129712067
2.947983154296875,0.0580724689360708,-0.0768113639365881,0.1044856258690357,-0.0232756771147251,-0.0199339650571346,-0.0273533817380666,0.0800978808064886,0.0772116994114587,-0.8958791609646649,22.252365112304688,17.84697723388672,-36.976165771484375,-0.038061249108733985,1007.702146494745
2.95805322265625,0.0535784454524517,-0.0588881692331284,0.0609282236933708,-0.0198048874735832,-0.020997829735279,-0.0260959733277559,0.0798801701636571,0.0770573158483545,-0.8960665442230006,22.609336853027344,17.58612060546875,-37.08029174804688,-0.038193352427343716,1007.7021632794577
2.9681220703125,0.0345704511869698,-0.0320022081341594,0.0168985278308391,-0.0151752475649118,-0.0199528057128191,-0.026631535962224,0.0796914835951148,0.0769030369556519,-0.8962244090215111,22.64640998840332,17.49073028564453,-36.97360229492188,-0.03832543973226535,1007.7021800621358
2.978192138671875,0.0676030983474105,-0.0084843352288007,-0.0296282455444335,-0.0098038697615265,-0.0523987561464309,-0.027718087658286,0.0795562623075158,0.0766296908488165,-0.8963999239746938,22.611528396606445,17.551475524902344,-36.660247802734375,-0.03845754305087508,1007.7021968468486
2.98826123046875,0.0913894129306077,-0.0228789904799312,-0.0575853430062532,-0.0060932869091629,-0.0596079304814338,-0.0323277525603771,0.0794767088627384,0.0760771540410678,-0.8966477409063507,22.34799194335937,17.543724060058594,-36.498870849609375,-0.038589633558534335,1007.7022136299336
2.9983310546875,0.063784051515907,-0.0208734958764165,-0.0220090027123689,-0.0031766323372721,-0.0509106665849685,-0.036531988531351,0.079436948140477,0.0755623755514544,-0.8968948186830561,22.414281845092773,17.435577392578125,-36.762786865234375,-0.03872173367440645,1007.7022304142394
3.008400146484375,0.0732492144756019,-0.0188296420238912,0.0274076468855142,-0.0061023822054266,-0.0499191731214523,-0.0347239673137664,0.0794164218037615,0.0751285282060948,-0.8972504368992423,22.414281845092773,17.435577392578125,-36.762786865234375,-0.0388538241820657,1007.7022471973244
3.01846875,0.0960242331244051,-0.0571830458156764,0.0506815549671649,-0.0099700689315795,-0.0563578531146049,-0.0350543819367885,0.0793504668483678,0.0746798998500231,-0.8975677920415509,22.251445770263672,17.598602294921875,-36.866119384765625,-0.03898590828424971,1007.7022639795955
3.0285390625,0.1419120510090142,-0.0761416479814797,0.0544417842835187,-0.0144971758127212,-0.0518491230905056,-0.0392238274216651,0.0792173477582788,0.0741778059333243,-0.8979213854201089,22.241840362548828,17.592254638671875,-37.066497802734375,-0.03911801480559707,1007.7022807647152
3.03860791015625,0.0882624400164932,-0.0995745460171252,0.0709983668088913,-0.013837432488799,-0.0426786914467811,-0.0429166257381439,0.0790857449778547,0.0737707531803781,-0.8983335312895104,22.092308044433597,17.585861206054688,-36.849395751953125,-0.0392501021105187,1007.7022975473932
3.04867822265625,0.0945769569255411,-0.104487817826122,0.0933604207426309,-0.028928767889738,-0.0212753973901271,-0.0474115088582038,0.0788739821323544,0.0734902023534607,-0.8988354345152282,22.1970272064209,17.88946533203125,-37.143829345703125,-0.03938220863186605,1007.7023143325129
3.0587470703125,0.0706926618605852,-0.1089697124805301,0.1372264504760503,-0.0391806066036224,-0.003133944934234,-0.0520981401205062,0.0784920633246751,0.0734513658448808,-0.899256602020836,22.383399963378903,17.763084411621094,-36.929046630859375,-0.03951429593678769,1007.702331115191
3.06881689453125,0.0791192024875432,-0.1062315927535295,0.0999193408668041,-0.0368198752403259,0.0045558563433587,-0.051969401538372,0.078068078718639,0.0735515510258836,-0.8996768597302425,22.57943153381348,17.818328857421875,-37.09780883789063,-0.039646396052659794,1007.7023478994968
3.07888623046875,0.1052403897590935,-0.1153555410601198,0.0414706590294837,-0.0278742089867591,-0.0070067169144749,-0.052033431828022,0.0777164675456282,0.0736329674187953,-0.9000568168524518,22.691410064697266,17.880416870117188,-36.667083740234375,-0.03977848976305667,1007.7023646829887
3.088955078125,0.1426043441221118,-0.1392827254187315,0.0100455931961536,-0.0111205307766795,-0.0006398977711796,-0.0531492941081523,0.0774884087972924,0.0736670095781675,-0.900564976345478,22.419771194458008,18.061607360839844,-36.860748291015625,-0.0399105770679783,1007.7023814656668
3.099025146484375,0.1730138762373477,-0.1807376023571938,0.0254302093327045,0.0014342879876494,0.0014879894442856,-0.0555423684418201,0.0774266534539691,0.0737706874171622,-0.901052905145512,22.430639266967773,17.91931915283203,-36.540618896484375,-0.04004268038658803,1007.7023982503795
3.10909423828125,0.1376446758881211,-0.1630894982680678,0.0317938991457223,0.0064530149102211,-0.0034098299220204,-0.0735088512301445,0.0774563251435281,0.0738378557421973,-0.9014823870967056,22.786766052246094,17.83594512939453,-36.107818603515625,-0.040174770894247286,1007.7024150334645
3.1191640625,0.0653050505381077,-0.2073167625293135,-3.39022696018e-05,-0.0028606494888663,-0.0351731702685356,-0.078436940908432,0.077478318789054,0.0737525336487709,-0.9022259394916576,22.516380310058597,18.102218627929688,-36.42056274414063,-0.04030687101011939,1007.7024318177703
3.12923291015625,0.219189059695974,-0.1546165612161159,0.011857611054182,-0.0124517576768994,-0.0681969001889228,-0.0694330558180809,0.0773893380896438,0.0733318860346036,-0.9029599901428624,22.32404327392578,18.18131256103516,-36.268890380859375,-0.04043895831504103,1007.7024486004484
3.13930322265625,0.2771528806257993,-0.110769090052694,-0.0086836571931838,-0.0169281400740146,-0.0732623636722564,-0.0729921087622642,0.077236664433619,0.072711659869791,-0.9036931184570012,22.24308204650879,18.142822265625,-37.032073974609375,-0.04057106483638838,1007.7024653855681
3.149371826171875,0.1946586487472057,-0.217941763048619,-0.0390969156354665,-0.0190948881208896,-0.0619220957159996,-0.0839558094739914,0.0770497238554475,0.0721166735423033,-0.90445036793816,22.31666755676269,18.155052185058597,-36.982696533203125,-0.040703148938572395,1007.7024821678392
3.159441162109375,0.1416446322444826,-0.2556522658269852,-0.0353320101439952,-0.0226339865475893,-0.043349377810955,-0.0856650993227958,0.0768199643974489,0.0716901086867554,-0.9053043572832896,22.211891174316406,18.158111572265625,-36.959259033203125,-0.04083524264896927,1007.7024989513311
3.169510986328125,0.166523052913323,-0.1916403238393366,-0.0333931510359048,-0.0104726608842611,-0.0246076509356498,-0.0832091271877288,0.0766482682264563,0.0714550628264729,-0.9060725031392568,22.152271270751957,17.809974670410156,-36.98483276367188,-0.040967342764841375,1007.7025157356369
3.179580078125,0.152834865431115,-0.1674533195007592,-0.0848386761128902,0.0144575564190745,-0.0152677986770868,-0.0822876542806625,0.0766733175141698,0.0713857772837877,-0.9068656583639828,22.25919914245605,17.988525390625,-37.24093627929688,-0.04109943327250063,1007.7025325187219
3.189650146484375,0.1495155117500573,-0.1945846336629241,-0.098477909886837,0.028438352048397,-0.0067475475370883,-0.0791408643126487,0.0768980803685761,0.0713898247995906,-0.907624629432182,22.365989685058597,18.17597961425781,-36.891937255859375,-0.04123153659111037,1007.7025493034347
3.19971923828125,0.1687470856383442,-0.1878773180440068,-0.0837736772298812,0.0391605943441391,-0.0167002938687801,-0.0796782523393631,0.0772626789705246,0.0713684902939134,-0.9083917951040236,22.33050537109375,18.112716674804688,-37.15573120117188,-0.04136362709876961,1007.7025660865197
3.2097890625,0.1777582942854613,-0.1905683837588876,-0.042594694623351,0.0421502590179443,-0.0292573664337396,-0.0780984610319137,0.0776914621811898,0.0712907802066812,-0.9092422040435012,21.91811752319336,18.037841796875,-37.245513916015625,-0.04149572721464173,1007.7025828708255
3.21985791015625,0.2068194805316626,-0.2125627003587782,0.0246001882493495,0.0389360450208187,-0.0461632534861564,-0.0685931295156478,0.0780896403596903,0.0710595948423219,-0.9100213817975816,22.00863265991211,18.11688232421875,-37.15255737304688,-0.041627814519563364,1007.7025996535035
3.22992724609375,0.2055330209176987,-0.2335500318732112,0.1058773724883794,0.0218979399651289,-0.0541673861443996,-0.066143549978733,0.0784224793931038,0.0706563320869422,-0.9107530357197724,22.08231544494629,18.29794311523437,-36.963287353515625,-0.04175990822996023,1007.7026164369955
3.239996826171875,0.177974128993228,-0.1905392307296395,0.1230611470013856,0.0145510863512754,-0.0493593961000442,-0.0691344514489173,0.0786280825477825,0.0702458077275002,-0.9114598587996268,22.008459091186523,18.20272827148437,-36.65011596679688,-0.04189200514309473,1007.7026332208944
3.250066162109375,0.1820615444373339,-0.1420269095603376,0.1123287405848503,0.0052422732114791,-0.0536406934261322,-0.0606099367141723,0.078738270897279,0.0698426396706976,-0.912121449586316,21.865550994873047,18.091041564941406,-36.87319946289063,-0.0420240988534916,1007.7026500043863
3.260135986328125,0.2063204449683427,-0.1377189832333475,0.1132943707466125,0.0050316080451011,-0.0433019548654556,-0.0587375685572624,0.0787962639115332,0.0694575622520636,-0.9126398920914932,22.13964080810547,18.13002014160156,-36.77682495117188,-0.042156198969363706,1007.7026667886921
3.270205078125,0.2189089275803417,-0.1220262509956955,0.102293668782711,0.0182526037096977,-0.0254952609539031,-0.0550893023610115,0.0789320595396952,0.0691955326622353,-0.913113851916346,22.15935707092285,17.992027282714844,-36.933929443359375,-0.04228828947702296,1007.7026835717771
3.28027490234375,0.2169872388027608,-0.1179735415387898,0.0841606307208538,0.0388350673019886,-0.018838033080101,-0.0473909229040145,0.0792547765161503,0.0690874809801418,-0.9136129191846918,21.94424819946289,18.01606750488281,-37.058135986328125,-0.04242038959289507,1007.7027003560829
3.29034423828125,0.2140926864050328,-0.1031225208222866,0.0687274992674589,0.0558811649680137,-0.0317490361630916,-0.0459818430244922,0.0797789885778984,0.0689575543621082,-0.914103671172572,21.877206802368164,18.063766479492188,-37.25338745117188,-0.04255248330329195,1007.7027171395748
3.300412841796875,0.1953504304036498,-0.0608727671790868,0.0825046802073717,0.0530775487422943,-0.0420031547546386,-0.0457198172807693,0.0803660001607688,0.068703797851916,-0.9145258492596392,22.11459732055664,18.12589263916016,-36.911651611328125,-0.04268456740547596,1007.702733921846
3.310483154296875,0.1847648851118981,-0.0388670524023473,0.1399158356904983,0.0648069158196449,-0.0790216252207756,-0.0274156406521797,0.0810098902775832,0.0682430603866382,-0.9149368654254776,21.78529930114746,18.06963348388672,-36.740325927734375,-0.04281667392682331,1007.7027507069656
3.320552001953125,0.1898889501273632,-0.0298882847201079,0.1802320639878511,0.0541877560317516,-0.0643190294504165,-0.0303524136543273,0.0816682413051431,0.0675831529554355,-0.91524881974835,21.682453155517575,18.082130432128903,-36.712005615234375,-0.042948761231744945,1007.7027674896437
3.3306220703125,0.1534574543088674,-0.0433474857520312,0.253390823701024,0.0481058955192565,-0.0424691252410411,-0.0397818684577941,0.0822049331981599,0.0671789482992377,-0.915673975901956,21.87223243713379,18.242332458496094,-36.904327392578125,-0.043080864550354675,1007.7027842743564
3.34069091796875,0.1715383968573063,-0.0217778973702341,0.2788970208793878,0.0488179363310337,-0.027511766180396,-0.0298634953796863,0.0827124093105827,0.0669081245595368,-0.9160574480092858,21.75805282592773,18.059425354003903,-37.131622314453125,-0.04321295185527631,1007.7028010570345
3.350760986328125,0.1821981033638119,-0.0239156400512903,0.271515093934536,0.0512123852968215,0.0321989692747592,-0.0381970591843128,0.0832286322940891,0.0670301474438418,-0.9164142036988032,21.71361351013184,18.04647827148437,-36.84567260742188,-0.043345055173886045,1007.7028178417472
3.360830322265625,0.0917469941966235,0.0650620355624705,0.2720511005073786,0.0420212149620056,0.0699070170521736,-0.0528927519917488,0.0836821903555327,0.0676997991846376,-0.9169031348829156,21.64581871032715,17.959548950195312,-36.93087768554688,-0.04347714888428291,1007.7028346252392
3.370899169921875,0.0717920744698494,0.0043532267734408,0.2570867556095123,0.0247450210154056,0.0511003024876117,-0.0582758001983165,0.0839929490413683,0.0684437441337413,-0.9175309487960264,21.59804344177246,18.10242462158203,-37.05856323242188,-0.043609236189204544,1007.7028514079173
3.38096923828125,0.0826404354162514,-0.0239589677363634,0.2383393850415945,0.0137830656021833,0.0339162796735763,-0.0707385540008544,0.0841582360907467,0.0689742763777012,-0.918161024778058,21.77750587463379,17.93085479736328,-36.861724853515625,-0.04374133950781428,1007.70286819263
3.391037841796875,0.0792610951762646,-0.0369748089149594,0.3278203340023756,0.0032103164121508,0.0277835484594106,-0.0782792940735817,0.0841891507741614,0.0693825072520932,-0.9189562233503832,21.662015914916992,18.101470947265625,-37.103851318359375,-0.0438734236099983,1007.7028849749012
3.401108154296875,0.029155002009496,-0.0855409791633486,0.3594920680731535,-0.0055887950584292,0.0267443396151065,-0.0825569480657577,0.0841193397153719,0.0697635421677499,-0.9197715006110396,21.854692459106445,18.18012237548828,-37.025970458984375,-0.044005530131345644,1007.7029017600208
3.411177001953125,-0.0240102595321834,-0.0853673761621117,0.3446656703412533,-0.0149258384481072,0.0358179956674575,-0.0837308689951896,0.0839686596114054,0.07018161962721,-0.9206857054691876,21.841108322143555,18.453407287597656,-37.274810791015625,-0.044137617436267276,1007.7029185426989
3.421247314453125,-0.0467244879044592,-0.050513139597699,0.3134901953548192,-0.0132065955549478,0.0548279732465744,-0.0749697387218475,0.0837531245751322,0.0707298199464339,-0.92153577651422,21.736804962158203,18.330734252929688,-37.340240478515625,-0.04426972395761462,1007.7029353278185
3.43131591796875,-0.0554352523002773,-0.0562334900058805,0.2685556596070528,-0.0075660198926925,0.0655559822916984,-0.0682601705193519,0.083596506645636,0.0714075915024304,-0.9222269182340016,21.805438995361328,18.08867645263672,-37.43911743164063,-0.04440180805979864,1007.7029521100897
3.44138525390625,-0.1012993970483541,-0.079157269475609,0.2169984908491373,-0.0175847802311182,0.0638921037316322,-0.070778340101242,0.0834250874015522,0.0721511393737157,-0.9228698060217638,21.94161033630371,18.11827850341797,-36.941680908203125,-0.04453390177019551,1007.7029688935817
3.451455078125,-0.1339919985994696,-0.1073966179449111,0.1819856296569109,-0.0367627367377281,0.0353203751146793,-0.0642663761973381,0.0831078496617908,0.0727245800745667,-0.9235352411530942,21.738500595092773,18.242477416992188,-36.46139526367188,-0.044666001886067626,1007.7029856778875
3.461524169921875,-0.1427095580622553,-0.1109301258333027,0.0917453867614269,-0.0720345452427864,0.0022319699637591,-0.0612172521650791,0.0825319392178484,0.0729706953832473,-0.9241393053537288,21.84398651123047,18.4306640625,-36.533599853515625,-0.044798092393726875,1007.7030024609725
3.471593994140625,-0.1642861607067287,-0.0731667968891561,-0.0341395854890346,-0.1119923517107963,-0.0390012189745903,-0.0628859847784042,0.0815729785390276,0.0728450810061984,-0.9246888268546064,21.950889587402344,18.406776428222656,-36.95968627929688,-0.044926866557322025,1007.7030188130218
3.4816630859375,-0.1981982210502028,-0.0181900289461016,-0.1929156044721603,-0.136888712644577,-0.0649363473057746,-0.0557477846741676,0.0803084566126862,0.0723714237661065,-0.9251301572579488,21.933012008666992,18.127281188964844,-37.21554565429688,-0.04500613756180113,1007.7030287314343
3.49173291015625,-0.1708904543425887,-0.0408994350127875,-0.3279530204713344,-0.1482252776622772,-0.0672927126288414,-0.0486653745174407,0.0788579049333864,0.0717262874692873,-0.925533189812351,21.79425811767578,18.33063507080078,-37.07492065429688,-0.045085414332422684,1007.7030386505683
3.501802001953125,-0.1772010257288813,-0.0827186882842332,-0.3906365633994341,-0.1242605000734329,-0.0637491345405578,-0.0568384006619453,0.077473205632331,0.0710766903682939,-0.9259264172341254,21.72383117675781,18.31558990478516,-36.901458740234375,-0.04516468533690179,1007.7030485689806
3.511872314453125,-0.2985225625213235,-0.0446205744277685,-0.4266863664239644,-0.0906024128198623,-0.053337775170803,-0.0738639906048774,0.0763805376480204,0.0705148582336328,-0.9265609413731845,21.44503402709961,18.418014526367188,-36.964691162109375,-0.045243965951618316,1007.7030584885956
3.52194091796875,-0.4016132999658584,-0.0916482830625027,-0.3385235143244266,-0.0654266476631164,-0.0515203922986984,-0.0867027342319488,0.0755805334315463,0.0700340175709507,-0.9272751936593993,21.823076248168945,18.566688537597656,-36.601409912109375,-0.045323233112002446,1007.7030684065271
3.532010009765625,-0.4807487229358405,-0.233614767672494,-0.1767249326497316,-0.0622244626283645,-0.0455490499734878,-0.0987519398331642,0.074926592427507,0.0695833754540665,-0.9281010576125532,21.63455390930176,18.313865661621094,-36.71743774414063,-0.04540250411648154,1007.7030783249396
3.542080078125,-0.5250284480366856,-0.3640769116453826,-0.0001361936002969,-0.0719978436827659,-0.0403098762035369,-0.1069332882761955,0.0742249700989444,0.0692102816632408,-0.9289440193257033,21.753528594970703,18.53402709960937,-36.90200805664063,-0.04548178280915059,1007.7030882443141
3.552149169921875,-0.5910647354587912,-0.4519526904318481,0.1484159530103206,-0.0956504419445991,-0.0351473353803157,-0.1196834370493888,0.0733336030178504,0.0688883777787623,-0.9300025352587588,21.51935386657715,18.57755279541016,-36.983978271484375,-0.04556105381362969,1007.7030981627266
3.562218994140625,-0.6650117229402065,-0.5361748420815915,0.2147089186072349,-0.1064579263329505,-0.0567915253341198,-0.1297821700572967,0.0722497930748955,0.0684715462224146,-0.9311312691295264,21.6412353515625,18.66722869873047,-36.83273315429688,-0.04564033058425125,1007.7031080818606
3.572288330078125,-0.7021040207549929,-0.5879617279421537,0.1742220099180936,-0.1249096393585205,-0.070508137345314,-0.134912759065628,0.0710093976457939,0.0678809724854066,-0.9323768038958136,21.39591789245605,18.718170166015625,-36.908782958984375,-0.04571960351077784,1007.7031180005135
3.58235791015625,-0.6973086031720042,-0.6400416784651577,0.126171387976408,-0.1525681167840957,-0.0846888795495033,-0.140050396323204,0.069555605602765,0.0671527518260053,-0.9335926108553364,21.45414161682129,18.58782958984375,-36.903106689453125,-0.04579887835935191,1007.7031279194069
3.592427001953125,-0.7215689650077373,-0.7053864764917641,0.0333025501430034,-0.1803430169820785,-0.077815257012844,-0.1401302963495254,0.0678014882755031,0.066349531855324,-0.934876869204365,21.1960563659668,18.73350524902344,-37.28634643554688,-0.045878149363831014,1007.7031378378194
3.60249609375,-0.7055063034791499,-0.6836163971018046,-0.0521685786545276,-0.2074676901102066,-0.0664352849125862,-0.140982985496521,0.0658055440013728,0.0656304333514534,-0.936092459972838,21.33334732055664,18.86096954345703,-37.119964599609375,-0.04595742036831012,1007.7031477562319
3.61256591796875,-0.7227504298772662,-0.5717712022501975,-0.2010012957721948,-0.2313879430294037,-0.0659186318516731,-0.14534392952919,0.0635798134901505,0.0649351056230911,-0.9373355366959006,21.338340759277344,19.16669464111328,-36.612091064453125,-0.04603669713893167,1007.7031576753659
3.622635009765625,-0.7237254123892635,-0.4995128619754687,-0.3797849145174026,-0.2187685966491699,-0.068568617105484,-0.1405148357152938,0.0613306960048418,0.0642138561852824,-0.9385760286939347,21.18804168701172,19.0177001953125,-36.610748291015625,-0.04611596814341078,1007.7031675937784
3.632705078125,-0.6880052797105163,-0.4715887534677982,-0.5147662164151668,-0.1863965392112732,-0.0628468170762062,-0.1282341927289962,0.0593375025257405,0.063475326856878,-0.9397429646551416,20.983806610107425,19.055908203125,-36.554962158203125,-0.04619524683607982,1007.7031775131529
3.64277392578125,-0.6612714404333383,-0.526748294099234,-0.5976321311503648,-0.131248265504837,-0.0334972478449344,-0.1219530031085014,0.0577842287807956,0.0629234570924776,-0.9408687078874212,20.83966064453125,19.16162109375,-36.49819946289063,-0.046274515918511436,1007.7031874313249
3.652843994140625,-0.59899801267609,-0.5418256343849003,-0.5822849244147539,-0.0711526945233345,-0.0032578513491898,-0.1041194126009941,0.0568250239357469,0.0626878126705594,-0.9419897287186396,20.80220603942871,19.563644409179688,-36.784027099609375,-0.046353794611180485,1007.7031973506994
3.6629130859375,-0.5126600379161537,-0.5508699415840208,-0.5439011254847049,-0.0166480988264083,0.0043134349398314,-0.0915118977427482,0.0564514816027969,0.0626561572095517,-0.9429005136284928,20.93583297729492,19.39795684814453,-36.766632080078125,-0.04643306561565958,1007.7032072691118
3.672983154296875,-0.5029259218219667,-0.5409148031502962,-0.4358656981796026,0.0099225249141454,0.0011839540675282,-0.0903235971927642,0.0564748406209088,0.0626401399111961,-0.9437084487344566,21.023609161376957,19.29986572265625,-36.51510620117188,-0.04651234430832863,1007.7032171884863
3.68305224609375,-0.535652389110066,-0.5380459697157144,-0.2613198631346226,0.0175292342901229,-0.0009571462869644,-0.0978303551673889,0.0566761482093842,0.0625903931826549,-0.9446654608218388,20.728740692138672,19.40380096435547,-36.84390258789063,-0.04659161531280773,1007.7032271068988
3.69312109375,-0.4950639928078278,-0.6068620971146971,-0.0407043508321046,0.0125853428617119,0.0065079606138169,-0.1016466692090034,0.0568765845955408,0.0625720477156653,-0.9456169165556472,20.941591262817383,19.411346435546875,-36.677581787109375,-0.046670884395239344,1007.7032370250707
3.70319091796875,-0.4330570704996586,-0.6604542788315564,0.13144552898705,0.003724087961018,0.0112270023673772,-0.102282240986824,0.0569813339799464,0.0626125324345041,-0.9466072151328644,20.96232795715332,19.63169860839844,-36.37887573242188,-0.04675016116586091,1007.7032469442047
3.713260009765625,-0.3849037919010967,-0.6476954080887138,0.2468026774823665,-0.0031535243615508,0.0030268635600805,-0.1051328927278518,0.0569853808756472,0.0626309310568099,-0.9476618531122066,20.91787338256836,19.78291320800781,-36.86788940429688,-0.04682943217034,1007.7032568626172
3.723330078125,-0.3611753084523603,-0.6228180103331804,0.3257183932870626,-0.0066370870918035,-0.0078152362257242,-0.1060460358858108,0.0569433696452348,0.0625760725940425,-0.9487411230469256,20.80236053466797,19.69671630859375,-36.882232666015625,-0.04690871086300905,1007.7032667819917
3.73339892578125,-0.3521624558374285,-0.60678336932268,0.3804191207677125,-0.002451928332448,-0.0044905459508299,-0.1150342002511024,0.0568999064492484,0.0624804913286187,-0.949890962661301,20.87994384765625,20.02057647705078,-36.26437377929688,-0.04698797994544066,1007.7032767001637
3.743468994140625,-0.3342501843867823,-0.5819841879025102,0.4107780186742544,0.0110279247164726,0.0070530083030462,-0.1118022948503494,0.0569263185183336,0.0624851117965563,-0.9510339986307408,20.95581817626953,19.85401153564453,-36.81411743164063,-0.04706725863810971,1007.7032866195381
3.7535380859375,-0.3018614976856857,-0.5788401177231222,0.4342360511511564,0.0210805591195821,0.0253931321203708,-0.0995280519127845,0.0570793318864949,0.0626472583769146,-0.9520511459714004,21.01681900024414,19.74211883544922,-36.976165771484375,-0.04714652964258881,1007.7032965379506
3.763608154296875,-0.2854749379649758,-0.5866110074529424,0.4563321476250886,0.0271310601383447,0.0424735844135284,-0.0868918746709823,0.0573249154657349,0.0629925718931688,-0.952934000273884,20.71550941467285,19.403785705566406,-36.887237548828125,-0.04722580833525786,1007.7033064573251
3.773677001953125,-0.2671160552579909,-0.5929190946212038,0.4917746324062347,0.0232010334730148,0.0584437698125839,-0.0765135362744331,0.0575823723897717,0.0635189829937891,-0.9537750697440822,20.690523147583008,19.605697631835938,-36.98361206054688,-0.04730507741768947,1007.703316375497
3.78374609375,-0.2112157427292317,-0.6128760601745918,0.5238812507629395,0.0168249048292636,0.0661570131778717,-0.0611472353339195,0.0577907111773769,0.0641542453746471,-0.9544546490318307,20.616039276123047,19.419288635253903,-37.018829345703125,-0.04738434842216857,1007.7033262939095
3.793816162109375,-0.1551978682354092,-0.638112756229192,0.5390624532818794,0.0125420093536376,0.0692473426461219,-0.0474106520414352,0.0579488649629965,0.0648539103988761,-0.9549551772984516,20.637052536010746,19.373558044433597,-36.826751708984375,-0.04746362711483762,1007.703336213284
3.803885009765625,-0.146944199957326,-0.6872731660436838,0.5467366411715746,0.0188203230500221,0.0683423653244972,-0.0378342568874359,0.0581547570661682,0.0655415483978992,-0.955360331777676,20.71929168701172,19.53008270263672,-36.58224487304688,-0.04754289619726923,1007.703346131456
3.813955078125,-0.1603851346801966,-0.7273056820288301,0.5586579651117325,0.0422809086740016,0.0740990564227104,-0.0245911534875631,0.0585134992475199,0.0662295347572404,-0.9557311665269932,20.66028213500977,19.75604248046875,-36.49673461914063,-0.04762217488993828,1007.7033560508305
3.824024169921875,-0.1133137330342084,-0.7711139171604067,0.5828367130786181,0.0641854554414749,0.076747640967369,-0.0119961220771074,0.0590979710686489,0.0669584313515253,-0.956004368705942,20.624908447265625,19.7227783203125,-36.55709838867188,-0.047701445894417376,1007.7033659692429
3.834093994140625,-0.0730070762827992,-0.8168198026068508,0.5588017574965953,0.084929883480072,0.0847475156188011,0.0058846082538366,0.0599013314457094,0.0677527899567827,-0.956076273323372,20.62831115722656,19.46397399902344,-36.58956909179688,-0.04778072266503894,1007.7033758883769
3.8441630859375,-0.0538780859861522,-0.8824120725885033,0.5441717591196298,0.0951646789908409,0.1047245785593986,0.0305609982460737,0.0608591855837118,0.0686479512710552,-0.9559589649641792,20.49761199951172,19.36224365234375,-36.51779174804688,-0.047859993669518035,1007.7033858067894
3.854232177734375,-0.0619019640963524,-0.9588821488067508,0.5140881710231304,0.0849999263882637,0.1262842118740081,0.042614459991455,0.0618370489081562,0.0697803184905066,-0.9556916454005384,20.61616325378418,19.55683898925781,-36.144073486328125,-0.04793926467399714,1007.7033957252019
3.864302001953125,-0.0881765883639454,-1.0082403462156653,0.5365495936781167,0.048073373734951,0.1345103234052658,0.0499568171799182,0.0625884472295396,0.0710494040826491,-0.9552807982127124,20.702486038208008,19.395530700683597,-36.064544677734375,-0.0480185414446187,1007.7034056443358
3.87437109375,-0.0850665665846318,-1.035321026169136,0.526923687198758,-0.011243212968111,0.1341894119977951,0.0643149837851524,0.0628640259568963,0.0723721902757607,-0.9547595907824984,20.644790649414062,19.42269897460937,-36.22726440429688,-0.048097812449097804,1007.7034155627483
3.884441162109375,-0.0828206873539835,-1.0505699601620435,0.4708481642335653,-0.0664129927754402,0.1267369240522384,0.0685597285628318,0.0625596954419419,0.0736276923259708,-0.9540218546288748,20.923734664916992,19.25752258300781,-36.06851196289063,-0.04817709114176685,1007.7034254821228
3.894510009765625,-0.0899591609317809,-1.0475718743246047,0.3005366057574749,-0.0937729775905609,0.1343836635351181,0.0742477104067802,0.061826395721963,0.0748922117924767,-0.953183044302,21.21611785888672,19.49112701416016,-36.432952880859375,-0.048256360224198463,1007.7034354002948
3.904580078125,-0.0838251882214099,-1.082748255515471,0.0653419484823942,-0.0982536301016807,0.132044568657875,0.0805531963706016,0.0609538223165553,0.0761607662328873,-0.9523192129801776,21.019763946533203,19.353759765625,-36.29782104492188,-0.048335638916867506,1007.7034453196692
3.914649169921875,-0.0663952569276094,-1.1177756566897037,-0.1353647482573986,-0.0761509910225868,0.1308000683784485,0.0969502851366996,0.0602035268889843,0.0774071175130571,-0.9513597638037868,20.9636287689209,19.276870727539062,-36.38839721679688,-0.04841490992134661,1007.7034552380817
3.92471875,-0.0515100416805595,-1.13963063788414,-0.3278834623664617,-0.0390065982937812,0.1222693771123886,0.1093117594718933,0.0598052796789339,0.0786092603191186,-0.9502450268408982,21.02290725708008,19.120948791503903,-36.462249755859375,-0.04849418476992068,1007.7034651569752
3.9347880859375,-0.0722985626872628,-1.147772297155112,-0.4393459415107965,-0.0077456133440136,0.1210773438215255,0.1229261010885238,0.0598295916737321,0.0797276409265983,-0.9490887664328128,20.802114486694336,19.15526580810547,-36.13497924804688,-0.04857345769644727,1007.7034750756281
3.944857177734375,-0.1174072859581559,-1.1361071399331093,-0.4452940362602472,0.0011335611343383,0.1190189719200134,0.1332051008939743,0.0600429233537133,0.0808551169112958,-0.9478050699496752,21.169267654418945,19.37787628173828,-36.054046630859375,-0.048652728700926365,1007.7034849940407
3.954927001953125,-0.1540612654209137,-1.160249355281889,-0.4455418735414743,0.002105881460011,0.109988197684288,0.1349265724420547,0.0602823486237175,0.0819291592970266,-0.946461749485722,21.11431312561035,19.13446807861328,-36.07101440429688,-0.04873200547154793,1007.7034949131746
3.96499609375,-0.1734774020958691,-1.1725538333207368,-0.4473205736517905,0.0056582679972052,0.0924282148480415,0.1359672546386718,0.0605234346956593,0.0828469090551094,-0.9451146557499708,21.29048728942871,19.24092102050781,-36.120697021484375,-0.04881127647602703,1007.7035048315871
3.975066162109375,-0.2002533269491046,-1.1899953819870948,-0.3951625163912773,0.013542023487389,0.083434984087944,0.1380008459091186,0.0608206427960471,0.0836298243386537,-0.9437473327327572,21.13677215576172,18.89569854736328,-36.141143798828125,-0.04889055516869607,1007.7035147509616
3.98513525390625,-0.2172767963338643,-1.230173078596592,-0.2930541410475969,0.0163494907319545,0.0900549292564392,0.1384823322296142,0.0611798785226413,0.0843951212219044,-0.9422822586207736,21.426071166992188,18.892333984375,-35.610504150390625,-0.04896982617317518,1007.703524669374
3.995205322265625,-0.2698807707309723,-1.263610068774223,-0.1405383515030145,0.0221828781068325,0.1116523668169975,0.1384932547807693,0.0616010239159028,0.0853108780733874,-0.9407697254999507,21.593170166015625,18.67406463623047,-35.678985595703125,-0.049049104865844226,1007.7035345887485
4.0052744140625,-0.3110007166266441,-1.27936132626608,-0.0084182842552661,0.0281379744410514,0.1218385025858879,0.1429025530815124,0.0620862212063813,0.0863998063844341,-0.9393023146893552,21.642070770263672,18.917739868164062,-36.030548095703125,-0.04912837587032332,1007.703544507161
4.01534423828125,-0.2918999295111745,-1.3049381044626236,0.0733615888088941,0.0297401323914527,0.1145473048090934,0.1456693112850189,0.0626377431643346,0.0874978273365997,-0.9379260763702488,21.56886863708496,19.209312438964844,-35.940948486328125,-0.04920765264094488,1007.703554426295
4.025413330078125,-0.3153762282971292,-1.3349746385470032,0.1524737039685249,0.0406505689024925,0.1078047081828117,0.1476541608572006,0.0632840424836337,0.0884819888362689,-0.9364328198565168,21.862098693847656,18.9697265625,-35.877960205078125,-0.04928692364542398,1007.7035643447075
4.035483154296875,-0.356807724360004,-1.419002144407481,0.2250216383069753,0.0606375932693481,0.1187913194298744,0.1555498987436294,0.0640708559416438,0.0894977521557338,-0.9349120655840244,22.152368545532227,19.13563537597656,-36.020111083984375,-0.049366200416045544,1007.7035742638415
4.045552490234375,-0.3751440299089997,-1.4878279894828796,0.2695020005464553,0.0845424309372901,0.1265477389097213,0.1686195582151413,0.0650807995530498,0.0906019614206037,-0.9333340087724848,22.03800392150879,19.020172119140625,-36.027984619140625,-0.04944547334257213,1007.7035841824944
4.055621337890625,-0.3625882074575871,-1.47297689570114,0.2488005733013153,0.1129743456840515,0.1275187283754348,0.1795480996370315,0.0663690865388067,0.0917474406065469,-0.9317734483835356,21.86139488220215,19.121871948242188,-36.19381713867188,-0.049524742425003744,1007.7035941006665
4.06569140625,-0.3022472090676427,-1.4370537877961993,0.2045458365112543,0.134015291929245,0.1366724222898483,0.1939118802547454,0.0679147394441179,0.0929051547403142,-0.9300762079683722,21.86410522460937,18.93852996826172,-35.819854736328125,-0.049604021117672786,1007.7036040200409
4.075760009765625,-0.3151131934467703,-1.41864485540241,0.1223474457740783,0.1514720469713211,0.1362500488758087,0.2086458206176757,0.0697046080337288,0.0940993073695966,-0.928249362783414,21.96527099609375,18.791473388671875,-35.962127685546875,-0.04968328827805692,1007.7036139379724
4.085830322265625,-0.3097309158865362,-1.4142723394066097,0.0138730425298213,0.1684002429246902,0.1247113868594169,0.2148345112800598,0.0716965848006337,0.0951887925295423,-0.9263987116955076,21.893943786621094,18.833518981933597,-35.790557861328125,-0.04976256889277345,1007.7036238575873
4.095899169921875,-0.2977710865668952,-1.3753034340649843,-0.0537000260055065,0.1906749159097671,0.1457029581069946,0.2128643095493316,0.0739214587241888,0.0963121484680604,-0.9245607260756962,22.120384216308597,18.49327850341797,-36.33541870117188,-0.04984183797520506,1007.7036337757593
4.105969482421875,-0.2197534886457026,-1.2929422539815305,-0.0544318474113941,0.2141114920377731,0.1658316999673843,0.2115746140480041,0.0764218735239359,0.0976776109732143,-0.9226335937875572,22.59760093688965,18.443771362304688,-36.049652099609375,-0.0499211185899216,1007.7036436953742
4.1160380859375,-0.2056313667256385,-1.2649885175205766,-0.0824029733985662,0.2473232448101043,0.1814442127943039,0.2116201519966125,0.0792504043591205,0.0991700577940773,-0.9208114629851836,22.36579322814941,18.378082275390625,-35.989959716796875,-0.05000038575030573,1007.7036536133057
4.126108154296875,-0.2209239937297999,-1.2719251849159598,-0.1758072332829237,0.2843303382396698,0.181617870926857,0.202998474240303,0.0824750971025636,0.1007378642464612,-0.9190849458087038,22.348896026611328,18.191879272460938,-35.867706298828125,-0.05007966444297477,1007.7036635326803
4.136177490234375,-0.2327768555436283,-1.2251685483075678,-0.1923269909292459,0.3122064471244812,0.1588465124368667,0.1859566420316696,0.0860655042611311,0.1022034655587165,-0.9175495465878968,22.433881759643555,18.162185668945312,-35.937164306640625,-0.050158937369501354,1007.7036734513332
4.146246337890625,-0.3108146925352513,-1.2547417026638985,-0.243237678477168,0.3495270609855652,0.1067322120070457,0.1807022839784622,0.0895483030770129,0.1034441381523289,-0.9161961744734622,22.50818634033203,17.93010711669922,-35.926300048828125,-0.05023820645193297,1007.7036833695051
4.15631640625,-0.4942006905093788,-1.430725315427035,-0.1823532939255237,0.3867071866989136,0.1002293080091476,0.2039413005113601,0.0934239855225873,0.1043367693080603,-0.914664525250976,22.911163330078125,17.71692657470703,-35.521575927734375,-0.05031748514460202,1007.7036932888797
4.166385498046875,-0.5906305818252265,-1.5997861431896685,0.0766407566100358,0.3718911111354828,0.0732898563146591,0.2414948493242263,0.097504431158313,0.1050470998626134,-0.9127949213382598,22.99253845214844,17.33758544921875,-36.031768798828125,-0.050396756149081116,1007.7037032072922
4.176455322265625,-0.5482808018736541,-1.56030592732504,0.2723416078865528,0.2855706214904785,0.0539379976689815,0.2497400045394897,0.1011055278314864,0.1054702563872477,-0.9106787280246286,23.05608940124512,17.32556915283203,-35.899139404296875,-0.05047603291970267,1007.7037131264261
4.186524169921875,-0.3484286030713469,-1.32872346919775,0.2903974890589714,0.1005587205290794,0.0365459993481636,0.2505800426006317,0.1033545336878605,0.1056709429993202,-0.9084468185287936,23.109663009643555,17.446243286132812,-35.467010498046875,-0.050555302002134296,1007.7037230445981
4.196594482421875,-0.1064580219205468,-1.0431097072839737,-0.0048977089136838,-0.1847526580095291,0.0507928431034088,0.2588965594768524,0.1032425994214966,0.1058387279866484,-0.9060166230077652,23.228809356689453,17.83709716796875,-35.678070068359375,-0.050634582616850825,1007.703732964213
